elapsed_time,ax,ay,az,gx,gy,gz,mx,my,mz
0.0,0.6865234375,-0.5880126953125,0.306884765625,-5.06591796875,-8.85009765625,-15.0146484375,-15.53955078125,20.1171875,0.23193359375
0.001,0.69287109375,-0.591796875,0.329833984375,-5.06591796875,-8.85009765625,-15.0146484375,-15.53955078125,20.1171875,0.23193359375
0.001,0.701171875,-0.589599609375,0.36083984375,-5.06591796875,-8.85009765625,-15.0146484375,-15.53955078125,20.1171875,0.23193359375
0.024,0.7083740234375,-0.5947265625,0.3736572265625,-5.06591796875,-8.85009765625,-15.0146484375,-15.53955078125,20.1171875,0.23193359375
0.025,0.7154541015625,-0.5908203125,0.35107421875,-5.06591796875,-8.85009765625,-15.0146484375,-15.53955078125,20.1171875,0.23193359375
0.025,0.7222900390625,-0.5875244140625,0.3558349609375,-5.06591796875,-8.85009765625,-15.0146484375,-15.53955078125,20.1171875,0.23193359375
0.069,0.7249755859375,-0.5911865234375,0.351318359375,-5.06591796875,-8.85009765625,-15.0146484375,-15.53955078125,20.1171875,0.23193359375
0.07,0.72021484375,-0.58056640625,0.344482421875,-5.06591796875,-8.85009765625,-15.0146484375,-15.53955078125,20.1171875,0.23193359375
0.071,0.7193603515625,-0.5760498046875,0.339111328125,-5.06591796875,-8.85009765625,-15.0146484375,-15.53955078125,20.1171875,0.23193359375
0.114,0.71875,-0.575439453125,0.314208984375,-5.06591796875,-8.85009765625,-15.0146484375,-15.53955078125,20.1171875,0.23193359375
0.115,0.7191162109375,-0.5811767578125,0.29345703125,-5.06591796875,-8.85009765625,-15.0146484375,-15.53955078125,20.1171875,0.23193359375
0.115,0.7242431640625,-0.583984375,0.3009033203125,-5.06591796875,-8.85009765625,-15.0146484375,-15.53955078125,20.1171875,0.23193359375
0.16,0.723388671875,-0.5909423828125,0.3118896484375,-5.06591796875,-8.85009765625,-15.0146484375,-15.53955078125,20.1171875,0.23193359375
0.16,0.7120361328125,-0.6041259765625,0.3765869140625,-5.06591796875,-8.85009765625,-15.0146484375,-15.53955078125,20.1171875,0.23193359375
0.16,0.7203369140625,-0.6026611328125,0.36083984375,-5.06591796875,-8.85009765625,-15.0146484375,-15.53955078125,20.1171875,0.23193359375
0.205,0.7252197265625,-0.5966796875,0.3507080078125,-5.06591796875,-8.85009765625,-15.0146484375,-15.53955078125,20.1171875,0.23193359375
0.205,0.72802734375,-0.6053466796875,0.296875,-5.06591796875,-8.85009765625,-15.0146484375,-15.53955078125,20.1171875,0.23193359375
0.205,0.740478515625,-0.5960693359375,0.27099609375,-5.06591796875,-8.85009765625,-15.0146484375,-15.53955078125,20.1171875,0.23193359375
0.25,0.7491455078125,-0.593017578125,0.2733154296875,-5.06591796875,-8.85009765625,-15.0146484375,-15.53955078125,20.1171875,0.23193359375
0.25,0.70947265625,-0.574951171875,0.267578125,-5.06591796875,-8.85009765625,-15.0146484375,-15.53955078125,20.1171875,0.23193359375
0.25,0.697021484375,-0.5780029296875,0.2940673828125,-5.06591796875,-8.85009765625,-15.0146484375,-15.53955078125,20.1171875,0.23193359375
0.295,0.6810302734375,-0.5770263671875,0.337158203125,-5.06591796875,-8.85009765625,-15.0146484375,-15.53955078125,20.1171875,0.23193359375
0.296,0.6605224609375,-0.588623046875,0.4130859375,-5.06591796875,-8.85009765625,-15.0146484375,-15.53955078125,20.1171875,0.23193359375
0.296,0.647216796875,-0.5987548828125,0.4287109375,-5.06591796875,-8.85009765625,-15.0146484375,-15.53955078125,20.1171875,0.23193359375
0.34,0.6505126953125,-0.6014404296875,0.423095703125,-5.06591796875,-8.85009765625,-15.0146484375,-15.53955078125,20.1171875,0.23193359375
0.34,0.64892578125,-0.569580078125,0.380859375,-5.06591796875,-8.85009765625,-15.0146484375,-15.53955078125,20.1171875,0.23193359375
0.341,0.6497802734375,-0.5703125,0.3760986328125,-5.06591796875,-8.85009765625,-15.0146484375,-15.53955078125,20.1171875,0.23193359375
0.385,0.6544189453125,-0.5709228515625,0.3841552734375,-5.06591796875,-8.85009765625,-15.0146484375,-15.53955078125,20.1171875,0.23193359375
0.386,0.69921875,-0.576904296875,0.3515625,-5.06591796875,-8.85009765625,-15.0146484375,-15.53955078125,20.1171875,0.23193359375
0.386,0.7000732421875,-0.5650634765625,0.323974609375,-5.06591796875,-8.85009765625,-15.0146484375,-15.53955078125,20.1171875,0.23193359375
0.43,0.7091064453125,-0.561767578125,0.294189453125,-5.06591796875,-8.85009765625,-15.0146484375,-15.53955078125,20.1171875,0.23193359375
0.431,0.708251953125,-0.5870361328125,0.3126220703125,-5.06591796875,-8.85009765625,-15.0146484375,-15.53955078125,20.1171875,0.23193359375
0.431,0.7193603515625,-0.6055908203125,0.3216552734375,-5.06591796875,-8.85009765625,-15.0146484375,-15.53955078125,20.1171875,0.23193359375
0.475,0.723388671875,-0.6153564453125,0.32958984375,-5.06591796875,-8.85009765625,-15.0146484375,-15.53955078125,20.1171875,0.23193359375
0.475,0.7081298828125,-0.6087646484375,0.343505859375,-5.06591796875,-8.85009765625,-15.0146484375,-15.53955078125,20.1171875,0.23193359375
0.475,0.70166015625,-0.6121826171875,0.34716796875,-5.06591796875,-8.85009765625,-15.0146484375,-15.53955078125,20.1171875,0.23193359375
0.52,0.6910400390625,-0.6072998046875,0.3492431640625,-5.06591796875,-8.85009765625,-15.0146484375,-15.53955078125,20.1171875,0.23193359375
0.52,0.698974609375,-0.60205078125,0.34619140625,-5.06591796875,-8.85009765625,-15.0146484375,-15.53955078125,20.1171875,0.23193359375
0.52,0.6995849609375,-0.598388671875,0.3443603515625,-5.06591796875,-8.85009765625,-15.0146484375,-15.53955078125,20.1171875,0.23193359375
0.565,0.6978759765625,-0.5989990234375,0.343017578125,-5.06591796875,-8.85009765625,-15.0146484375,-15.53955078125,20.1171875,0.23193359375
0.565,0.685791015625,-0.588134765625,0.3331298828125,-5.06591796875,-8.85009765625,-15.0146484375,-15.53955078125,20.1171875,0.23193359375
0.566,0.685791015625,-0.5865478515625,0.32275390625,-5.06591796875,-8.85009765625,-15.0146484375,-15.53955078125,20.1171875,0.23193359375
0.61,0.682861328125,-0.582275390625,0.3272705078125,-5.06591796875,-8.85009765625,-15.0146484375,-15.53955078125,20.1171875,0.23193359375
0.61,0.68896484375,-0.5972900390625,0.3582763671875,-5.06591796875,-8.85009765625,-15.0146484375,-15.53955078125,20.1171875,0.23193359375
0.612,0.6915283203125,-0.5970458984375,0.3607177734375,-5.06591796875,-8.85009765625,-15.0146484375,-15.53955078125,20.1171875,0.23193359375
0.655,0.6962890625,-0.597412109375,0.36181640625,-5.06591796875,-8.85009765625,-15.0146484375,-15.53955078125,20.1171875,0.23193359375
0.656,0.6904296875,-0.5982666015625,0.3590087890625,-5.06591796875,-8.85009765625,-15.0146484375,-15.53955078125,20.1171875,0.23193359375
0.656,0.6859130859375,-0.590087890625,0.356201171875,-5.06591796875,-8.85009765625,-15.0146484375,-15.53955078125,20.1171875,0.23193359375
0.699,0.6783447265625,-0.5821533203125,0.358154296875,-5.06591796875,-8.85009765625,-15.0146484375,-15.53955078125,20.1171875,0.23193359375
0.7,0.675048828125,-0.5885009765625,0.36376953125,-5.06591796875,-8.85009765625,-15.0146484375,-15.53955078125,20.1171875,0.23193359375
0.7,0.69189453125,-0.5927734375,0.3507080078125,-5.06591796875,-8.85009765625,-15.0146484375,-15.53955078125,20.1171875,0.23193359375
0.744,0.702880859375,-0.6036376953125,0.3411865234375,-5.06591796875,-8.85009765625,-15.0146484375,-15.53955078125,20.1171875,0.23193359375
0.745,0.68310546875,-0.582763671875,0.283447265625,-5.06591796875,-8.85009765625,-15.0146484375,-15.53955078125,20.1171875,0.23193359375
0.746,0.6646728515625,-0.58984375,0.2962646484375,-5.06591796875,-8.85009765625,-15.0146484375,-15.53955078125,20.1171875,0.23193359375
0.834,0.6531982421875,-0.59912109375,0.3304443359375,-5.06591796875,-8.85009765625,-15.0146484375,-15.53955078125,20.1171875,0.23193359375
0.835,0.6671142578125,-0.6005859375,0.369384765625,-5.06591796875,-8.85009765625,-15.0146484375,-15.53955078125,20.1171875,0.23193359375
0.835,0.6939697265625,-0.58837890625,0.3446044921875,-5.06591796875,-8.85009765625,-15.0146484375,-15.53955078125,20.1171875,0.23193359375
0.843,0.721923828125,-0.6279296875,0.3270263671875,-5.06591796875,-8.85009765625,-15.0146484375,-15.53955078125,20.1171875,0.23193359375
0.879,0.79443359375,-0.544921875,0.3055419921875,-5.06591796875,-8.85009765625,-15.0146484375,-15.53955078125,20.1171875,0.23193359375
0.88,0.682373046875,-0.6048583984375,0.3829345703125,-0.732421875,0.67138671875,-1.15966796875,-15.53955078125,20.1171875,0.23193359375
0.925,0.68505859375,-0.601806640625,0.37158203125,-1.8310546875,3.60107421875,0.30517578125,-15.53955078125,20.1171875,0.23193359375
0.926,0.68505859375,-0.601806640625,0.37158203125,-5.859375,-3.23486328125,-2.3193359375,-15.53955078125,20.1171875,0.23193359375
0.969,0.679931640625,-0.591064453125,0.3502197265625,-5.859375,-3.23486328125,-2.3193359375,-15.53955078125,20.1171875,0.23193359375
0.97,0.6741943359375,-0.584716796875,0.338134765625,-0.54931640625,0.6103515625,0.244140625,-15.53955078125,20.1171875,0.23193359375
1.015,0.6593017578125,-0.599365234375,0.3612060546875,0.3662109375,2.01416015625,1.0986328125,-15.53955078125,20.1171875,0.23193359375
1.015,0.6593017578125,-0.599365234375,0.3612060546875,-1.03759765625,0.30517578125,0.91552734375,-15.53955078125,20.1171875,0.23193359375
1.059,0.6578369140625,-0.6009521484375,0.359619140625,-1.03759765625,0.30517578125,0.91552734375,-15.53955078125,20.1171875,0.23193359375
1.06,0.6810302734375,-0.600341796875,0.3779296875,-4.638671875,-1.46484375,-1.8310546875,-15.53955078125,20.1171875,0.23193359375
1.105,0.6759033203125,-0.606201171875,0.39501953125,-5.79833984375,-15.68603515625,-4.150390625,-15.53955078125,20.1171875,0.23193359375
1.105,0.68359375,-0.588134765625,0.298583984375,-5.79833984375,-15.68603515625,-4.150390625,-15.53955078125,20.1171875,0.23193359375
1.15,0.669677734375,-0.599609375,0.343505859375,0.06103515625,-16.90673828125,-0.48828125,-15.53955078125,20.1171875,0.23193359375
1.151,0.669677734375,-0.599609375,0.343505859375,3.72314453125,-5.2490234375,-0.48828125,-15.53955078125,20.1171875,0.23193359375
1.195,0.653564453125,-0.6005859375,0.364501953125,-2.44140625,-4.69970703125,-3.35693359375,-15.53955078125,20.1171875,0.23193359375
1.195,0.638916015625,-0.6275634765625,0.428955078125,-2.44140625,-4.69970703125,-3.35693359375,-15.53955078125,20.1171875,0.23193359375
1.239,0.638916015625,-0.6275634765625,0.428955078125,-6.40869140625,-2.9296875,-4.638671875,-15.53955078125,20.1171875,0.23193359375
1.24,0.6263427734375,-0.5784912109375,0.3529052734375,2.50244140625,5.79833984375,-1.5869140625,-15.53955078125,20.1171875,0.23193359375
1.286,0.6243896484375,-0.5831298828125,0.353759765625,-2.50244140625,-3.173828125,-4.94384765625,-15.53955078125,20.1171875,0.23193359375
1.286,0.6732177734375,-0.6016845703125,0.37890625,-2.50244140625,-3.173828125,-4.94384765625,-15.53955078125,20.1171875,0.23193359375
1.33,0.7049560546875,-0.5987548828125,0.360107421875,-5.79833984375,-10.6201171875,-6.7138671875,-15.53955078125,20.1171875,0.23193359375
1.331,0.7049560546875,-0.5987548828125,0.360107421875,2.01416015625,3.41796875,-1.28173828125,-15.53955078125,20.1171875,0.23193359375
1.375,0.635009765625,-0.6097412109375,0.3739013671875,4.21142578125,4.0283203125,0.732421875,-15.53955078125,20.1171875,0.23193359375
1.375,0.635009765625,-0.6097412109375,0.3739013671875,0.1220703125,0.3662109375,-0.06103515625,-15.53955078125,20.1171875,0.23193359375
1.42,0.6336669921875,-0.6153564453125,0.3790283203125,-1.28173828125,-3.23486328125,-2.86865234375,-15.53955078125,20.1171875,0.23193359375
1.42,0.6658935546875,-0.61767578125,0.366943359375,-1.28173828125,-3.23486328125,-2.86865234375,-15.53955078125,20.1171875,0.23193359375
1.465,0.672607421875,-0.6180419921875,0.36572265625,-0.1220703125,-0.244140625,-1.220703125,-15.53955078125,20.1171875,0.23193359375
1.466,0.6712646484375,-0.61865234375,0.351318359375,-0.1220703125,-0.244140625,-1.220703125,-15.53955078125,20.1171875,0.23193359375
1.51,0.6712646484375,-0.61865234375,0.351318359375,0.8544921875,0.48828125,-0.9765625,-15.53955078125,20.1171875,0.23193359375
1.511,0.665771484375,-0.6201171875,0.4052734375,-2.62451171875,0.0,-2.5634765625,-15.53955078125,20.1171875,0.23193359375
1.555,0.6695556640625,-0.615478515625,0.3924560546875,-2.62451171875,0.0,-2.5634765625,-15.53955078125,20.1171875,0.23193359375
1.556,0.6810302734375,-0.6156005859375,0.364013671875,-2.0751953125,-0.91552734375,-0.79345703125,-15.53955078125,20.1171875,0.23193359375
1.6,0.6810302734375,-0.6156005859375,0.364013671875,-1.220703125,-1.15966796875,0.79345703125,-15.53955078125,20.1171875,0.23193359375
1.601,0.658447265625,-0.6112060546875,0.3753662109375,-3.84521484375,-2.5634765625,-0.30517578125,-15.53955078125,20.1171875,0.23193359375
1.646,0.6575927734375,-0.608642578125,0.371826171875,-2.44140625,-0.1220703125,0.6103515625,-15.53955078125,20.1171875,0.23193359375
1.646,0.6590576171875,-0.6082763671875,0.3690185546875,-2.44140625,-0.1220703125,0.6103515625,-15.53955078125,20.1171875,0.23193359375
1.689,0.6590576171875,-0.6082763671875,0.3690185546875,-2.0751953125,0.1220703125,2.25830078125,-15.53955078125,20.1171875,0.23193359375
1.69,0.6251220703125,-0.628173828125,0.376953125,-0.54931640625,5.31005859375,4.0283203125,-15.53955078125,20.1171875,0.23193359375
1.735,0.6749267578125,-0.61962890625,0.353759765625,-1.52587890625,4.08935546875,1.77001953125,-15.53955078125,20.1171875,0.23193359375
1.736,0.6749267578125,-0.61962890625,0.353759765625,-0.42724609375,-4.82177734375,0.30517578125,-15.53955078125,20.1171875,0.23193359375
1.78,0.6654052734375,-0.630615234375,0.35546875,-0.9765625,-3.90625,2.62451171875,-15.53955078125,20.1171875,0.23193359375
1.78,0.66943359375,-0.6298828125,0.4063720703125,-0.9765625,-3.90625,2.62451171875,-15.53955078125,20.1171875,0.23193359375
1.825,0.65625,-0.6187744140625,0.3785400390625,-4.638671875,-4.82177734375,2.3193359375,-15.53955078125,20.1171875,0.23193359375
1.826,0.65625,-0.6187744140625,0.3785400390625,-5.2490234375,-0.30517578125,0.0,-15.53955078125,20.1171875,0.23193359375
1.886,0.665283203125,-0.59912109375,0.39453125,-5.2490234375,-0.30517578125,0.0,-15.53955078125,20.1171875,0.23193359375
1.915,0.6458740234375,-0.611083984375,0.3487548828125,0.91552734375,0.54931640625,2.44140625,-15.53955078125,20.1171875,0.23193359375
1.916,0.6458740234375,-0.611083984375,0.3487548828125,0.1220703125,0.9765625,0.67138671875,-15.53955078125,20.1171875,0.23193359375
1.96,0.6429443359375,-0.6104736328125,0.357421875,0.1220703125,0.9765625,0.67138671875,-15.53955078125,20.1171875,0.23193359375
1.961,0.6661376953125,-0.6064453125,0.34716796875,-2.9296875,-3.5400390625,-2.197265625,-15.53955078125,20.1171875,0.23193359375
2.004,0.6661376953125,-0.6064453125,0.34716796875,-2.3193359375,-3.41796875,-2.0751953125,-15.53955078125,20.1171875,0.23193359375
2.005,0.6607666015625,-0.607666015625,0.369873046875,-0.1220703125,-2.197265625,-1.5869140625,-15.53955078125,20.1171875,0.23193359375
2.049,0.653564453125,-0.600341796875,0.381103515625,-0.1220703125,-2.197265625,-1.5869140625,-15.53955078125,20.1171875,0.23193359375
2.05,0.653564453125,-0.600341796875,0.381103515625,-2.685546875,-6.4697265625,-2.25830078125,-15.53955078125,20.1171875,0.23193359375
2.051,0.6639404296875,-0.631103515625,0.3929443359375,-2.685546875,-6.4697265625,-2.25830078125,-15.53955078125,20.1171875,0.23193359375
2.095,0.6412353515625,-0.59716796875,0.3492431640625,-2.685546875,-6.4697265625,-2.25830078125,-15.53955078125,20.1171875,0.23193359375
2.14,0.6741943359375,-0.6507568359375,0.4036865234375,2.38037109375,-2.86865234375,1.953125,-15.53955078125,20.1171875,0.23193359375
2.14,0.6741943359375,-0.6507568359375,0.4036865234375,-0.54931640625,-3.72314453125,-0.79345703125,-15.53955078125,20.1171875,0.23193359375
2.185,0.6624755859375,-0.6195068359375,0.3936767578125,-0.91552734375,-2.685546875,-2.0751953125,-15.53955078125,20.1171875,0.23193359375
2.186,0.640625,-0.6229248046875,0.3582763671875,-0.91552734375,-2.685546875,-2.0751953125,-15.53955078125,20.1171875,0.23193359375
2.23,0.625,-0.6142578125,0.3720703125,-0.6103515625,-0.6103515625,-1.220703125,-15.53955078125,20.1171875,0.23193359375
2.23,0.625,-0.6142578125,0.3720703125,1.953125,5.67626953125,-0.732421875,-15.53955078125,20.1171875,0.23193359375
2.275,0.641357421875,-0.6199951171875,0.3704833984375,9.33837890625,0.48828125,1.5869140625,-15.53955078125,20.1171875,0.23193359375
2.275,0.623046875,-0.65380859375,0.37939453125,9.33837890625,0.48828125,1.5869140625,-15.53955078125,20.1171875,0.23193359375
2.319,0.623046875,-0.65380859375,0.37939453125,4.45556640625,-1.220703125,-0.3662109375,-15.53955078125,20.1171875,0.23193359375
2.32,0.631103515625,-0.61669921875,0.40771484375,4.45556640625,-1.220703125,-0.3662109375,-15.53955078125,20.1171875,0.23193359375
2.321,0.631103515625,-0.61669921875,0.40771484375,-10.92529296875,-9.82666015625,-5.9814453125,-15.53955078125,20.1171875,0.23193359375
2.365,0.648681640625,-0.6102294921875,0.39013671875,-0.42724609375,-7.080078125,-1.3427734375,-15.53955078125,20.1171875,0.23193359375
2.365,0.6673583984375,-0.6295166015625,0.370361328125,-0.42724609375,-7.080078125,-1.3427734375,-15.53955078125,20.1171875,0.23193359375
2.41,0.6307373046875,-0.6461181640625,0.3958740234375,1.708984375,-4.638671875,0.30517578125,-15.53955078125,20.1171875,0.23193359375
2.41,0.6307373046875,-0.6461181640625,0.3958740234375,0.18310546875,-1.64794921875,-0.48828125,-15.53955078125,20.1171875,0.23193359375
2.455,0.625244140625,-0.6141357421875,0.4002685546875,-0.732421875,0.18310546875,-0.79345703125,-15.53955078125,20.1171875,0.23193359375
2.456,0.625244140625,-0.6141357421875,0.4002685546875,-2.197265625,-2.99072265625,-0.67138671875,-15.53955078125,20.1171875,0.23193359375
2.5,0.648681640625,-0.624267578125,0.3814697265625,0.0,0.3662109375,1.3427734375,-15.53955078125,20.1171875,0.23193359375
2.501,0.64794921875,-0.62646484375,0.3551025390625,0.0,0.3662109375,1.3427734375,-15.53955078125,20.1171875,0.23193359375
2.545,0.6419677734375,-0.6251220703125,0.3836669921875,-0.67138671875,1.52587890625,1.15966796875,-15.53955078125,20.1171875,0.23193359375
2.546,0.6419677734375,-0.6251220703125,0.3836669921875,-0.48828125,-2.9296875,0.9765625,-15.53955078125,20.1171875,0.23193359375
2.59,0.638916015625,-0.6280517578125,0.391357421875,-3.23486328125,-0.8544921875,0.06103515625,-15.53955078125,20.1171875,0.23193359375
2.59,0.635498046875,-0.6163330078125,0.3831787109375,-3.23486328125,-0.8544921875,0.06103515625,-15.53955078125,20.1171875,0.23193359375
2.635,0.63623046875,-0.618896484375,0.40673828125,-2.0751953125,-0.1220703125,0.1220703125,-15.53955078125,20.1171875,0.23193359375
2.636,0.63623046875,-0.618896484375,0.40673828125,-2.197265625,-4.33349609375,0.48828125,-15.53955078125,20.1171875,0.23193359375
2.68,0.657958984375,-0.637451171875,0.38525390625,-1.708984375,-2.62451171875,1.3427734375,-15.53955078125,20.1171875,0.23193359375
2.681,0.6348876953125,-0.6578369140625,0.3941650390625,-1.708984375,-2.62451171875,1.3427734375,-15.53955078125,20.1171875,0.23193359375
2.725,0.634521484375,-0.633056640625,0.3863525390625,-0.18310546875,0.91552734375,-0.91552734375,-15.53955078125,20.1171875,0.23193359375
2.726,0.6334228515625,-0.6202392578125,0.3994140625,-0.18310546875,0.91552734375,-0.91552734375,-15.53955078125,20.1171875,0.23193359375
2.77,0.6512451171875,-0.6424560546875,0.3619384765625,-0.79345703125,1.0986328125,-1.953125,-15.53955078125,20.1171875,0.23193359375
2.771,0.6512451171875,-0.6424560546875,0.3619384765625,-1.708984375,-2.62451171875,-1.03759765625,-15.53955078125,20.1171875,0.23193359375
2.814,0.6512451171875,-0.6424560546875,0.3619384765625,-1.46484375,-0.42724609375,-0.8544921875,-15.53955078125,20.1171875,0.23193359375
2.815,0.6097412109375,-0.6220703125,0.3807373046875,0.0,5.37109375,0.8544921875,-15.53955078125,20.1171875,0.23193359375
2.859,0.6121826171875,-0.6044921875,0.328369140625,0.0,5.37109375,0.8544921875,-15.53955078125,20.1171875,0.23193359375
2.86,0.60107421875,-0.6434326171875,0.41845703125,2.5634765625,8.23974609375,-0.6103515625,-15.53955078125,20.1171875,0.23193359375
2.939,0.6513671875,-0.638916015625,0.37841796875,-1.64794921875,4.08935546875,-2.86865234375,-15.53955078125,20.1171875,0.23193359375
2.939,0.6513671875,-0.638916015625,0.37841796875,-8.9111328125,-8.7890625,-6.04248046875,-15.53955078125,20.1171875,0.23193359375
2.968,0.671630859375,-0.636962890625,0.38623046875,-0.1220703125,-3.60107421875,-1.77001953125,-15.53955078125,20.1171875,0.23193359375
2.994,0.671630859375,-0.636962890625,0.38623046875,-0.1220703125,-3.60107421875,-1.77001953125,-15.53955078125,20.1171875,0.23193359375
2.995,0.6307373046875,-0.6448974609375,0.4068603515625,2.5634765625,6.04248046875,1.0986328125,-15.53955078125,20.1171875,0.23193359375
3.039,0.6182861328125,-0.653076171875,0.4239501953125,2.5634765625,6.04248046875,1.0986328125,-15.53955078125,20.1171875,0.23193359375
3.04,0.6182861328125,-0.653076171875,0.4239501953125,-1.0986328125,-3.72314453125,-0.54931640625,-15.9423828125,20.1171875,-0.341796875
3.084,0.632080078125,-0.62255859375,0.39111328125,-1.0986328125,-3.72314453125,-0.54931640625,-15.9423828125,20.1171875,-0.341796875
3.13,0.634033203125,-0.6260986328125,0.3916015625,0.0,-0.06103515625,1.0986328125,-15.90576171875,20.068359375,0.1220703125
3.175,0.634033203125,-0.6260986328125,0.3916015625,-2.197265625,-1.40380859375,-0.48828125,-15.90576171875,20.068359375,0.1220703125
3.176,0.63720703125,-0.6346435546875,0.3875732421875,-2.197265625,-1.40380859375,-0.48828125,-16.064453125,20.22705078125,0.5126953125
3.22,0.63720703125,-0.6346435546875,0.3875732421875,-0.42724609375,-0.1220703125,2.9296875,-16.064453125,20.22705078125,0.5126953125
3.221,0.6287841796875,-0.6136474609375,0.3785400390625,-0.42724609375,-0.1220703125,2.9296875,-15.8203125,20.263671875,0.634765625
3.265,0.6287841796875,-0.6136474609375,0.3785400390625,-0.54931640625,-0.6103515625,1.15966796875,-15.56396484375,20.41015625,-0.0732421875
3.266,0.6322021484375,-0.600341796875,0.347900390625,-0.54931640625,-0.6103515625,1.15966796875,-15.56396484375,20.41015625,-0.0732421875
3.31,0.6322021484375,-0.600341796875,0.347900390625,1.89208984375,0.06103515625,2.9296875,-16.78466796875,20.47119140625,0.18310546875
3.311,0.519287109375,-0.5899658203125,0.2996826171875,1.89208984375,0.06103515625,2.9296875,-16.78466796875,20.47119140625,0.18310546875
3.355,0.5594482421875,-0.626220703125,0.2757568359375,11.77978515625,-14.16015625,3.90625,-16.78466796875,20.47119140625,0.18310546875
3.356,0.5594482421875,-0.626220703125,0.2757568359375,6.4697265625,-14.58740234375,-2.38037109375,-16.78466796875,20.47119140625,0.18310546875
3.399,0.5594482421875,-0.626220703125,0.2757568359375,6.4697265625,-14.58740234375,-2.38037109375,-15.4296875,19.88525390625,-1.708984375
3.4,0.5423583984375,-0.5584716796875,0.2489013671875,-3.23486328125,1.0986328125,8.056640625,-15.4296875,19.88525390625,-1.708984375
3.445,0.5423583984375,-0.5584716796875,0.2489013671875,2.25830078125,4.150390625,14.5263671875,-14.9169921875,19.49462890625,-0.3662109375
3.446,0.512451171875,-0.51611328125,0.4039306640625,2.25830078125,4.150390625,14.5263671875,-14.9169921875,19.49462890625,-0.3662109375
3.49,0.512451171875,-0.51611328125,0.4039306640625,14.70947265625,-24.59716796875,19.8974609375,-16.29638671875,21.00830078125,-1.85546875
3.492,0.5096435546875,-0.5662841796875,0.380126953125,14.70947265625,-24.59716796875,19.8974609375,-16.29638671875,21.00830078125,-1.85546875
3.535,0.5096435546875,-0.5662841796875,0.380126953125,-17.4560546875,-64.27001953125,13.12255859375,-16.29638671875,21.00830078125,-1.85546875
3.536,0.5096435546875,-0.5662841796875,0.380126953125,-17.4560546875,-64.27001953125,13.12255859375,-15.66162109375,20.98388671875,-0.0732421875
3.537,0.3306884765625,-0.54296875,0.457763671875,-17.4560546875,-64.27001953125,13.12255859375,-15.66162109375,20.98388671875,-0.0732421875
3.58,0.3306884765625,-0.54296875,0.457763671875,-45.34912109375,-53.3447265625,3.2958984375,-15.66162109375,20.98388671875,-0.0732421875
3.581,0.3336181640625,-0.629638671875,0.5609130859375,-45.34912109375,-53.3447265625,3.2958984375,-17.3095703125,20.88623046875,1.513671875
3.625,0.3336181640625,-0.629638671875,0.5609130859375,-34.1796875,-40.83251953125,-7.6904296875,-15.66162109375,20.64208984375,2.2705078125
3.626,0.4771728515625,-0.7230224609375,0.5692138671875,-34.1796875,-40.83251953125,-7.6904296875,-15.66162109375,20.64208984375,2.2705078125
3.67,0.4771728515625,-0.7230224609375,0.5692138671875,4.2724609375,-13.18359375,-22.94921875,-16.015625,21.10595703125,2.60009765625
3.671,0.5413818359375,-0.74658203125,0.4921875,4.2724609375,-13.18359375,-22.94921875,-16.015625,21.10595703125,2.60009765625
3.716,0.6328125,-0.718505859375,0.6072998046875,-2.62451171875,-12.5732421875,-48.4619140625,-16.015625,21.10595703125,2.60009765625
3.717,0.6328125,-0.718505859375,0.6072998046875,-3.7841796875,-30.57861328125,-66.58935546875,-16.015625,21.10595703125,2.60009765625
3.76,0.6602783203125,-0.717041015625,0.585693359375,-3.7841796875,-30.57861328125,-66.58935546875,-13.34228515625,19.47021484375,2.79541015625
3.763,0.6602783203125,-0.717041015625,0.585693359375,-1.0986328125,-3.11279296875,-64.27001953125,-13.34228515625,19.47021484375,2.79541015625
3.804,0.65771484375,-0.7080078125,0.5955810546875,-1.0986328125,-3.11279296875,-64.27001953125,-13.34228515625,19.47021484375,2.79541015625
3.805,0.65771484375,-0.7080078125,0.5955810546875,5.0048828125,12.39013671875,-35.09521484375,-13.34228515625,19.47021484375,2.79541015625
3.806,0.65771484375,-0.7080078125,0.5955810546875,5.0048828125,12.39013671875,-35.09521484375,-12.158203125,19.3359375,2.55126953125
3.849,0.633056640625,-0.7369384765625,0.707763671875,5.0048828125,12.39013671875,-35.09521484375,-12.158203125,19.3359375,2.55126953125
3.85,0.633056640625,-0.7369384765625,0.707763671875,-0.42724609375,-13.00048828125,-31.92138671875,-12.3291015625,18.83544921875,2.9052734375
3.895,0.599365234375,-0.779296875,0.6397705078125,-10.1318359375,-4.69970703125,-23.92578125,-11.09619140625,18.5302734375,1.7578125
3.94,0.57958984375,-0.750244140625,0.540771484375,-10.1318359375,-4.69970703125,-23.92578125,-11.09619140625,18.5302734375,1.7578125
3.941,0.57958984375,-0.750244140625,0.540771484375,-3.41796875,18.798828125,-6.04248046875,-10.70556640625,18.98193359375,1.7822265625
4.005,0.4893798828125,-0.709228515625,0.5755615234375,-3.41796875,18.798828125,-6.04248046875,-10.70556640625,18.98193359375,1.7822265625
4.006,0.4893798828125,-0.709228515625,0.5755615234375,-4.39453125,2.99072265625,-7.2021484375,-10.26611328125,18.8232421875,2.57568359375
4.029,0.45263671875,-0.725830078125,0.6072998046875,-4.39453125,2.99072265625,-7.2021484375,-10.26611328125,18.8232421875,2.57568359375
4.03,0.45263671875,-0.725830078125,0.6072998046875,-10.80322265625,-3.7841796875,-8.4228515625,-9.87548828125,18.7255859375,1.98974609375
4.074,0.4210205078125,-0.7320556640625,0.5748291015625,-10.80322265625,-3.7841796875,-8.4228515625,-9.87548828125,18.7255859375,1.98974609375
4.075,0.4210205078125,-0.7320556640625,0.5748291015625,-6.16455078125,11.77978515625,-2.38037109375,-9.87548828125,18.7255859375,1.98974609375
4.076,0.4210205078125,-0.7320556640625,0.5748291015625,-6.16455078125,11.77978515625,-2.38037109375,-11.0107421875,18.76220703125,1.89208984375
4.119,0.3837890625,-0.71337890625,0.6060791015625,-6.16455078125,11.77978515625,-2.38037109375,-11.0107421875,18.76220703125,1.89208984375
4.12,0.3743896484375,-0.7154541015625,0.58251953125,-8.48388671875,5.4931640625,-0.732421875,-11.0107421875,18.76220703125,1.89208984375
4.165,0.3743896484375,-0.7154541015625,0.58251953125,-8.48388671875,5.4931640625,-0.732421875,-9.7900390625,18.9208984375,2.33154296875
4.166,0.3658447265625,-0.673095703125,0.517578125,-3.2958984375,2.9296875,-0.48828125,-9.7900390625,18.9208984375,2.33154296875
4.21,0.369384765625,-0.666748046875,0.5179443359375,-3.2958984375,2.9296875,-0.48828125,-9.7900390625,18.9208984375,2.33154296875
4.211,0.369384765625,-0.666748046875,0.5179443359375,3.23486328125,-0.732421875,-0.244140625,-9.3505859375,18.84765625,3.74755859375
4.255,0.3515625,-0.711181640625,0.5535888671875,-1.64794921875,-3.90625,-3.0517578125,-9.3505859375,18.84765625,3.74755859375
4.256,0.3515625,-0.711181640625,0.5535888671875,-1.64794921875,-3.90625,-3.0517578125,-10.2783203125,18.39599609375,2.79541015625
4.3,0.3975830078125,-0.7076416015625,0.5345458984375,-1.64794921875,-3.90625,-3.0517578125,-10.2783203125,18.39599609375,2.79541015625
4.301,0.3975830078125,-0.7076416015625,0.5345458984375,6.4697265625,0.0,2.197265625,-10.31494140625,18.20068359375,3.173828125
4.346,0.3685302734375,-0.7059326171875,0.5626220703125,6.4697265625,0.0,2.197265625,-10.31494140625,18.20068359375,3.173828125
4.348,0.3685302734375,-0.7059326171875,0.5626220703125,-0.67138671875,-3.11279296875,0.1220703125,-10.1318359375,19.1162109375,2.55126953125
4.39,0.36376953125,-0.6986083984375,0.5750732421875,0.06103515625,-7.14111328125,0.244140625,-10.1318359375,19.1162109375,2.55126953125
4.391,0.36376953125,-0.6986083984375,0.5750732421875,0.06103515625,-7.14111328125,0.244140625,-10.14404296875,18.20068359375,2.34375
4.435,0.36328125,-0.6968994140625,0.54833984375,-1.220703125,-4.638671875,-2.3193359375,-10.14404296875,18.20068359375,2.34375
4.436,0.36328125,-0.6968994140625,0.54833984375,-1.220703125,-4.638671875,-2.3193359375,-9.8388671875,18.9208984375,2.47802734375
4.48,0.34765625,-0.719970703125,0.5684814453125,-1.5869140625,-4.638671875,-2.13623046875,-9.8388671875,18.9208984375,2.47802734375
4.481,0.3675537109375,-0.7076416015625,0.5650634765625,-1.5869140625,-4.638671875,-2.13623046875,-9.8388671875,18.9208984375,2.47802734375
4.525,0.3675537109375,-0.7076416015625,0.5650634765625,-1.5869140625,-4.638671875,-2.13623046875,-9.3505859375,18.73779296875,2.1728515625
4.526,0.3853759765625,-0.71630859375,0.5621337890625,-1.220703125,1.3427734375,-2.50244140625,-9.3505859375,18.73779296875,2.1728515625
4.57,0.37744140625,-0.7239990234375,0.5692138671875,-2.99072265625,-1.708984375,-1.46484375,-9.3505859375,18.73779296875,2.1728515625
4.571,0.37744140625,-0.7239990234375,0.5692138671875,-2.99072265625,-1.708984375,-1.46484375,-9.87548828125,19.29931640625,2.4169921875
4.615,0.37158203125,-0.721435546875,0.5721435546875,-2.99072265625,-1.708984375,-1.46484375,-9.87548828125,19.29931640625,2.4169921875
4.616,0.37158203125,-0.721435546875,0.5721435546875,-6.04248046875,-6.28662109375,-2.01416015625,-10.19287109375,19.287109375,2.74658203125
4.661,0.3922119140625,-0.7169189453125,0.5386962890625,0.42724609375,0.30517578125,2.50244140625,-10.19287109375,19.287109375,2.74658203125
4.662,0.3922119140625,-0.7169189453125,0.5386962890625,0.42724609375,0.30517578125,2.50244140625,-10.07080078125,18.42041015625,2.67333984375
4.705,0.3690185546875,-0.720458984375,0.5596923828125,-1.52587890625,-0.9765625,-0.54931640625,-10.07080078125,18.42041015625,2.67333984375
4.706,0.3690185546875,-0.720458984375,0.5596923828125,-1.52587890625,-0.9765625,-0.54931640625,-9.2041015625,18.84765625,2.25830078125
4.75,0.3709716796875,-0.7135009765625,0.5560302734375,-1.52587890625,-0.9765625,-0.54931640625,-9.2041015625,18.84765625,2.25830078125
4.751,0.3709716796875,-0.7135009765625,0.5560302734375,0.1220703125,0.18310546875,0.1220703125,-9.7412109375,18.95751953125,2.20947265625
4.795,0.3638916015625,-0.7161865234375,0.5576171875,0.1220703125,0.18310546875,0.1220703125,-9.7412109375,18.95751953125,2.20947265625
4.796,0.3638916015625,-0.7161865234375,0.5576171875,-1.8310546875,-2.13623046875,-0.30517578125,-10.21728515625,19.81201171875,2.490234375
4.841,0.36181640625,-0.708251953125,0.5770263671875,-1.5869140625,0.8544921875,-1.03759765625,-10.21728515625,19.81201171875,2.490234375
4.842,0.36181640625,-0.708251953125,0.5770263671875,-1.5869140625,0.8544921875,-1.03759765625,-10.60791015625,18.51806640625,1.5380859375
4.885,0.3701171875,-0.7017822265625,0.5623779296875,-2.197265625,-1.46484375,-0.06103515625,-10.60791015625,18.51806640625,1.5380859375
4.886,0.3646240234375,-0.7120361328125,0.5601806640625,-2.197265625,-1.46484375,-0.06103515625,-10.60791015625,18.51806640625,1.5380859375
4.933,0.3646240234375,-0.7120361328125,0.5601806640625,-3.173828125,-2.01416015625,-0.9765625,-10.60791015625,18.51806640625,1.5380859375
4.934,0.3646240234375,-0.7120361328125,0.5601806640625,-3.173828125,-2.01416015625,-0.9765625,-9.8876953125,18.51806640625,2.72216796875
4.935,0.37255859375,-0.709228515625,0.559814453125,-3.173828125,-2.01416015625,-0.9765625,-9.8876953125,18.51806640625,2.72216796875
4.975,0.37255859375,-0.709228515625,0.559814453125,-2.685546875,-1.77001953125,-1.64794921875,-10.205078125,18.17626953125,3.47900390625
4.977,0.3663330078125,-0.7191162109375,0.576171875,-2.685546875,-1.77001953125,-1.64794921875,-10.205078125,18.17626953125,3.47900390625
5.038,0.3822021484375,-0.733642578125,0.5965576171875,-0.1220703125,-0.3662109375,-0.67138671875,-9.7900390625,18.49365234375,2.9052734375
5.065,0.3695068359375,-0.708740234375,0.5567626953125,-3.662109375,-1.40380859375,-0.9765625,-10.009765625,18.78662109375,2.08740234375
5.109,0.3695068359375,-0.708740234375,0.5567626953125,-6.4697265625,-0.9765625,0.18310546875,-10.009765625,18.78662109375,2.08740234375
5.11,0.3695068359375,-0.708740234375,0.5567626953125,-6.4697265625,-0.9765625,0.18310546875,-9.9609375,18.17626953125,3.3447265625
5.111,0.3751220703125,-0.71533203125,0.567626953125,-6.4697265625,-0.9765625,0.18310546875,-9.9609375,18.17626953125,3.3447265625
5.155,0.3751220703125,-0.71533203125,0.567626953125,-1.5869140625,4.7607421875,1.953125,-10.1806640625,18.61572265625,2.20947265625
5.156,0.35498046875,-0.7056884765625,0.560546875,-1.5869140625,4.7607421875,1.953125,-10.1806640625,18.61572265625,2.20947265625
5.199,0.35498046875,-0.7056884765625,0.560546875,-4.33349609375,-2.9296875,1.03759765625,-10.1806640625,18.61572265625,2.20947265625
5.2,0.35498046875,-0.7056884765625,0.560546875,-4.33349609375,-2.9296875,1.03759765625,-9.912109375,17.87109375,2.83203125
5.201,0.3704833984375,-0.7093505859375,0.5439453125,-4.33349609375,-2.9296875,1.03759765625,-9.912109375,17.87109375,2.83203125
5.244,0.3704833984375,-0.7093505859375,0.5439453125,0.91552734375,-1.89208984375,2.3193359375,-9.912109375,17.87109375,2.83203125
5.245,0.3533935546875,-0.7076416015625,0.563720703125,1.220703125,0.9765625,-0.30517578125,-9.912109375,17.87109375,2.83203125
5.302,0.37109375,-0.706298828125,0.5604248046875,0.244140625,-3.662109375,-1.28173828125,-9.912109375,18.44482421875,2.6123046875
5.334,0.37109375,-0.706298828125,0.5604248046875,0.79345703125,-3.173828125,-1.28173828125,-9.912109375,18.44482421875,2.6123046875
5.335,0.3707275390625,-0.7083740234375,0.58935546875,0.79345703125,-3.173828125,-1.28173828125,-10.11962890625,18.42041015625,3.16162109375
5.379,0.3707275390625,-0.7083740234375,0.58935546875,0.54931640625,0.79345703125,-0.6103515625,-10.11962890625,18.42041015625,3.16162109375
5.38,0.36181640625,-0.707275390625,0.5794677734375,0.54931640625,0.79345703125,-0.6103515625,-10.02197265625,18.90869140625,2.13623046875
5.425,0.36767578125,-0.703857421875,0.551513671875,-1.89208984375,0.06103515625,1.3427734375,-10.4736328125,18.56689453125,2.57568359375
5.47,0.362548828125,-0.7008056640625,0.5447998046875,-3.0517578125,-1.03759765625,-0.79345703125,-9.89990234375,18.24951171875,3.94287109375
5.515,0.362548828125,-0.7008056640625,0.5447998046875,-2.01416015625,-0.3662109375,-1.3427734375,-9.89990234375,18.24951171875,3.94287109375
5.516,0.362548828125,-0.7008056640625,0.5447998046875,-2.01416015625,-0.3662109375,-1.3427734375,-10.15625,18.83544921875,2.294921875
5.517,0.3597412109375,-0.7061767578125,0.57421875,-2.01416015625,-0.3662109375,-1.3427734375,-10.15625,18.83544921875,2.294921875
5.561,0.3597412109375,-0.7061767578125,0.57421875,0.244140625,-2.197265625,-1.64794921875,-10.15625,18.83544921875,2.294921875
5.563,0.363525390625,-0.7149658203125,0.5906982421875,0.244140625,-2.197265625,-1.64794921875,-10.3271484375,19.3603515625,1.4892578125
5.604,0.363525390625,-0.7149658203125,0.5906982421875,-1.5869140625,-1.89208984375,-2.9296875,-10.3271484375,19.3603515625,1.4892578125
5.605,0.361328125,-0.6995849609375,0.5732421875,-3.662109375,0.48828125,-2.62451171875,-10.3271484375,19.3603515625,1.4892578125
5.65,0.361328125,-0.6995849609375,0.5732421875,-3.662109375,0.48828125,-2.62451171875,-9.912109375,18.90869140625,2.05078125
5.651,0.3609619140625,-0.7066650390625,0.599365234375,-2.9296875,-2.0751953125,-3.173828125,-9.912109375,18.90869140625,2.05078125
5.695,0.3609619140625,-0.7066650390625,0.599365234375,-2.9296875,-2.0751953125,-3.173828125,-10.11962890625,18.3837890625,2.77099609375
5.696,0.359619140625,-0.7208251953125,0.59814453125,-2.9296875,-2.0751953125,-3.173828125,-10.11962890625,18.3837890625,2.77099609375
5.697,0.359619140625,-0.7208251953125,0.59814453125,-6.8359375,-2.0751953125,-3.84521484375,-10.11962890625,18.3837890625,2.77099609375
5.74,0.364013671875,-0.7149658203125,0.5650634765625,-4.69970703125,1.5869140625,-2.50244140625,-10.11962890625,18.3837890625,2.77099609375
5.741,0.364013671875,-0.7149658203125,0.5650634765625,-4.69970703125,1.5869140625,-2.50244140625,-9.912109375,18.78662109375,2.47802734375
5.785,0.369873046875,-0.7120361328125,0.5670166015625,-3.72314453125,4.08935546875,-2.74658203125,-9.89990234375,17.7490234375,2.7587890625
5.83,0.3720703125,-0.7203369140625,0.583251953125,-5.2490234375,1.77001953125,-2.197265625,-9.09423828125,17.08984375,1.8310546875
5.876,0.3546142578125,-0.71435546875,0.5474853515625,-4.7607421875,1.3427734375,-2.13623046875,-9.09423828125,17.08984375,1.8310546875
5.877,0.3546142578125,-0.71435546875,0.5474853515625,-4.7607421875,1.3427734375,-2.13623046875,-9.66796875,18.1884765625,2.55126953125
5.92,0.3636474609375,-0.7080078125,0.556640625,-1.64794921875,0.48828125,-0.67138671875,-9.66796875,18.1884765625,2.55126953125
5.921,0.3636474609375,-0.7080078125,0.556640625,-1.64794921875,0.48828125,-0.67138671875,-9.38720703125,18.07861328125,2.94189453125
5.965,0.3499755859375,-0.7017822265625,0.57177734375,-0.244140625,-1.5869140625,-0.6103515625,-9.14306640625,18.54248046875,2.81982421875
6.009,0.343994140625,-0.6971435546875,0.575439453125,-0.244140625,-1.5869140625,-0.6103515625,-9.14306640625,18.54248046875,2.81982421875
6.01,0.3487548828125,-0.71142578125,0.59326171875,0.3662109375,0.54931640625,-1.220703125,-9.14306640625,18.54248046875,2.81982421875
6.081,0.3516845703125,-0.7093505859375,0.5926513671875,0.3662109375,0.54931640625,-1.220703125,-9.5703125,18.51806640625,2.685546875
6.082,0.3516845703125,-0.7093505859375,0.5926513671875,-0.54931640625,-2.5634765625,-0.67138671875,-9.5703125,18.51806640625,2.685546875
6.1,0.354248046875,-0.7171630859375,0.585693359375,-1.03759765625,0.91552734375,-2.38037109375,-9.5703125,18.51806640625,2.685546875
6.101,0.354248046875,-0.7171630859375,0.585693359375,-1.03759765625,0.91552734375,-2.38037109375,-9.21630859375,17.9443359375,3.22265625
6.145,0.362548828125,-0.716064453125,0.560302734375,-1.220703125,0.6103515625,-1.77001953125,-9.21630859375,17.9443359375,3.22265625
6.146,0.362548828125,-0.716064453125,0.560302734375,-1.220703125,0.6103515625,-1.77001953125,-9.94873046875,18.701171875,4.52880859375
6.19,0.345458984375,-0.7108154296875,0.5728759765625,-1.64794921875,-3.173828125,-2.197265625,-10.0341796875,18.20068359375,3.28369140625
6.235,0.36181640625,-0.714111328125,0.5701904296875,-0.06103515625,2.5634765625,-1.03759765625,-10.0341796875,18.20068359375,3.28369140625
6.236,0.36181640625,-0.714111328125,0.5701904296875,-0.06103515625,2.5634765625,-1.03759765625,-8.80126953125,19.287109375,2.45361328125
6.28,0.3472900390625,-0.7025146484375,0.5721435546875,-2.8076171875,-4.21142578125,-0.06103515625,-9.033203125,18.408203125,2.24609375
6.324,0.3416748046875,-0.712158203125,0.59423828125,-2.8076171875,-4.21142578125,-0.06103515625,-9.033203125,18.408203125,2.24609375
6.325,0.3416748046875,-0.712158203125,0.59423828125,-4.57763671875,-2.3193359375,-0.1220703125,-9.58251953125,18.51806640625,3.45458984375
6.369,0.3436279296875,-0.704345703125,0.577392578125,-4.57763671875,-2.3193359375,-0.1220703125,-9.58251953125,18.51806640625,3.45458984375
6.37,0.3370361328125,-0.707763671875,0.576171875,-3.0517578125,0.3662109375,0.9765625,-9.58251953125,18.51806640625,3.45458984375
6.414,0.3370361328125,-0.707763671875,0.576171875,-3.173828125,-0.54931640625,0.8544921875,-9.58251953125,18.51806640625,3.45458984375
6.415,0.3370361328125,-0.707763671875,0.576171875,-3.173828125,-0.54931640625,0.8544921875,-9.7900390625,18.45703125,2.62451171875
6.416,0.3397216796875,-0.7078857421875,0.56689453125,-3.173828125,-0.54931640625,0.8544921875,-9.7900390625,18.45703125,2.62451171875
6.459,0.3397216796875,-0.7078857421875,0.56689453125,-3.173828125,-4.21142578125,0.3662109375,-9.7900390625,18.45703125,2.62451171875
6.46,0.3358154296875,-0.7188720703125,0.572265625,-3.173828125,-4.21142578125,0.3662109375,-10.19287109375,18.701171875,2.57568359375
6.504,0.3358154296875,-0.7188720703125,0.572265625,-1.77001953125,-3.35693359375,1.220703125,-10.19287109375,18.701171875,2.57568359375
6.505,0.3465576171875,-0.7200927734375,0.58544921875,-1.77001953125,-3.35693359375,1.220703125,-9.16748046875,18.5302734375,2.44140625
6.55,0.3465576171875,-0.7200927734375,0.58544921875,-3.662109375,-2.9296875,0.06103515625,-9.16748046875,18.5302734375,2.44140625
6.551,0.3465576171875,-0.7200927734375,0.58544921875,-3.662109375,-2.9296875,0.06103515625,-9.4970703125,18.5546875,3.515625
6.552,0.3441162109375,-0.716064453125,0.579833984375,-3.662109375,-2.9296875,0.06103515625,-9.4970703125,18.5546875,3.515625
6.595,0.3441162109375,-0.716064453125,0.579833984375,-1.953125,-1.40380859375,0.1220703125,-9.1552734375,18.61572265625,2.96630859375
6.596,0.347412109375,-0.7158203125,0.5828857421875,-1.953125,-1.40380859375,0.1220703125,-9.1552734375,18.61572265625,2.96630859375
6.64,0.347412109375,-0.7158203125,0.5828857421875,-4.150390625,-1.0986328125,-0.732421875,-10.5712890625,18.45703125,3.33251953125
6.641,0.349853515625,-0.7115478515625,0.581298828125,-4.150390625,-1.0986328125,-0.732421875,-10.5712890625,18.45703125,3.33251953125
6.685,0.349853515625,-0.7115478515625,0.581298828125,0.0,-1.52587890625,1.03759765625,-9.5458984375,18.71337890625,3.173828125
6.687,0.344970703125,-0.7158203125,0.5931396484375,0.0,-1.52587890625,1.03759765625,-9.5458984375,18.71337890625,3.173828125
6.73,0.344970703125,-0.7158203125,0.5931396484375,-1.220703125,-3.173828125,0.42724609375,-9.5458984375,18.71337890625,3.173828125
6.775,0.359619140625,-0.7154541015625,0.5849609375,-1.220703125,-0.91552734375,1.3427734375,-9.5458984375,18.71337890625,3.173828125
6.776,0.359619140625,-0.7154541015625,0.5849609375,-1.220703125,-0.91552734375,1.3427734375,-9.375,18.83544921875,3.6376953125
6.819,0.340576171875,-0.7083740234375,0.595458984375,-1.220703125,-0.91552734375,1.3427734375,-9.375,18.83544921875,3.6376953125
6.82,0.340576171875,-0.7083740234375,0.595458984375,-2.38037109375,-1.15966796875,1.40380859375,-9.3994140625,18.4814453125,3.35693359375
6.865,0.3516845703125,-0.7158203125,0.6016845703125,-3.0517578125,1.5869140625,1.5869140625,-9.3994140625,18.4814453125,3.35693359375
6.866,0.3516845703125,-0.7158203125,0.6016845703125,-3.0517578125,1.5869140625,1.5869140625,-9.58251953125,18.9208984375,3.62548828125
6.91,0.3377685546875,-0.697265625,0.588134765625,-1.64794921875,-0.1220703125,1.708984375,-9.66796875,18.59130859375,3.11279296875
6.956,0.354736328125,-0.7032470703125,0.589111328125,0.91552734375,-0.244140625,3.23486328125,-9.66796875,18.59130859375,3.11279296875
6.957,0.354736328125,-0.7032470703125,0.589111328125,0.91552734375,-0.244140625,3.23486328125,-9.63134765625,19.00634765625,4.04052734375
7.0,0.36181640625,-0.7142333984375,0.6016845703125,0.54931640625,-1.89208984375,5.79833984375,-9.80224609375,18.505859375,2.50244140625
7.045,0.3836669921875,-0.7305908203125,0.6260986328125,0.54931640625,-1.89208984375,5.79833984375,-9.80224609375,18.505859375,2.50244140625
7.046,0.3836669921875,-0.7305908203125,0.6260986328125,0.0,2.44140625,6.40869140625,-9.68017578125,18.95751953125,3.4423828125
7.129,0.4122314453125,-0.7265625,0.5999755859375,0.0,2.44140625,6.40869140625,-9.68017578125,18.95751953125,3.4423828125
7.135,0.4527587890625,-0.76708984375,0.64013671875,9.94873046875,7.9345703125,11.29150390625,-10.0830078125,18.994140625,3.5400390625
7.18,0.4527587890625,-0.76708984375,0.64013671875,8.4228515625,8.36181640625,9.21630859375,-10.15625,19.140625,2.67333984375
7.181,0.4449462890625,-0.7064208984375,0.578125,8.4228515625,8.36181640625,9.21630859375,-10.15625,19.140625,2.67333984375
7.224,0.4449462890625,-0.7064208984375,0.578125,9.3994140625,16.41845703125,14.404296875,-10.15625,19.140625,2.67333984375
7.225,0.4600830078125,-0.6693115234375,0.554931640625,9.3994140625,16.41845703125,14.404296875,-10.85205078125,19.12841796875,2.64892578125
7.269,0.4600830078125,-0.6693115234375,0.554931640625,21.728515625,25.93994140625,10.80322265625,-10.85205078125,19.12841796875,2.64892578125
7.27,0.4600830078125,-0.6693115234375,0.554931640625,21.728515625,25.93994140625,10.80322265625,-10.99853515625,18.701171875,1.67236328125
7.271,0.44677734375,-0.6583251953125,0.5205078125,21.728515625,25.93994140625,10.80322265625,-10.99853515625,18.701171875,1.67236328125
7.315,0.44677734375,-0.6583251953125,0.5205078125,22.76611328125,21.05712890625,19.775390625,-11.34033203125,18.78662109375,0.98876953125
7.316,0.5245361328125,-0.655029296875,0.42431640625,22.76611328125,21.05712890625,19.775390625,-11.34033203125,18.78662109375,0.98876953125
7.359,0.5245361328125,-0.655029296875,0.42431640625,33.99658203125,22.76611328125,21.66748046875,-11.34033203125,18.78662109375,0.98876953125
7.36,0.499755859375,-0.7271728515625,0.472900390625,33.99658203125,22.76611328125,21.66748046875,-11.9873046875,18.6279296875,0.91552734375
7.405,0.421875,-0.7647705078125,0.3961181640625,46.38671875,26.123046875,25.146484375,-11.962890625,19.23828125,-0.93994140625
7.45,0.421875,-0.7647705078125,0.3961181640625,38.4521484375,9.46044921875,15.0146484375,-11.962890625,19.23828125,-0.93994140625
7.451,0.4744873046875,-0.8101806640625,0.4102783203125,38.4521484375,9.46044921875,15.0146484375,-13.09814453125,19.970703125,-1.64794921875
7.495,0.4727783203125,-0.8385009765625,0.453125,37.53662109375,16.6015625,26.123046875,-13.09814453125,19.970703125,-1.64794921875
7.495,0.4727783203125,-0.8385009765625,0.453125,23.49853515625,16.05224609375,19.71435546875,-13.09814453125,19.970703125,-1.64794921875
7.54,0.492919921875,-0.8397216796875,0.23779296875,-12.8173828125,-21.54541015625,7.38525390625,-13.12255859375,19.68994140625,-2.28271484375
7.584,0.5118408203125,-0.837646484375,0.1883544921875,-12.8173828125,-21.54541015625,7.38525390625,-13.12255859375,19.68994140625,-2.28271484375
7.585,0.5118408203125,-0.837646484375,0.1883544921875,-0.8544921875,26.42822265625,10.25390625,-13.12255859375,19.68994140625,-2.28271484375
7.586,0.5118408203125,-0.837646484375,0.1883544921875,-0.8544921875,26.42822265625,10.25390625,-13.916015625,19.98291015625,-0.1708984375
7.629,0.5689697265625,-0.7977294921875,0.2703857421875,-0.8544921875,26.42822265625,10.25390625,-13.916015625,19.98291015625,-0.1708984375
7.63,0.5689697265625,-0.7977294921875,0.2703857421875,29.47998046875,39.6728515625,23.86474609375,-13.83056640625,19.71435546875,-0.927734375
7.675,0.3890380859375,-0.8255615234375,0.222900390625,29.47998046875,39.6728515625,23.86474609375,-13.83056640625,19.71435546875,-0.927734375
7.676,0.3890380859375,-0.8255615234375,0.222900390625,7.080078125,31.3720703125,13.85498046875,-14.013671875,20.52001953125,-2.5634765625
7.72,0.5087890625,-0.8470458984375,0.235107421875,10.8642578125,33.50830078125,11.41357421875,-14.013671875,20.52001953125,-2.5634765625
7.721,0.5087890625,-0.8470458984375,0.235107421875,10.8642578125,33.50830078125,11.41357421875,-14.5263671875,20.25146484375,-3.50341796875
7.765,0.5703125,-0.78369140625,0.11865234375,10.8642578125,33.50830078125,11.41357421875,-14.5263671875,20.25146484375,-3.50341796875
7.766,0.5703125,-0.78369140625,0.11865234375,33.38623046875,27.2216796875,12.3291015625,-14.31884765625,20.6787109375,-3.86962890625
7.81,0.4468994140625,-0.7410888671875,0.076416015625,31.31103515625,6.8359375,4.5166015625,-14.31884765625,20.6787109375,-3.86962890625
7.811,0.4468994140625,-0.7410888671875,0.076416015625,31.31103515625,6.8359375,4.5166015625,-14.306640625,21.10595703125,-4.11376953125
7.855,0.4952392578125,-0.79541015625,0.150390625,17.51708984375,4.94384765625,7.50732421875,-14.697265625,21.91162109375,-5.37109375
7.9,0.5533447265625,-0.8673095703125,0.1864013671875,17.51708984375,4.94384765625,7.50732421875,-14.697265625,21.91162109375,-5.37109375
7.901,0.529541015625,-0.822021484375,0.0740966796875,14.09912109375,-4.94384765625,27.64892578125,-14.697265625,21.91162109375,-5.37109375
7.945,0.529541015625,-0.822021484375,0.0740966796875,14.6484375,-7.62939453125,28.62548828125,-14.697265625,21.91162109375,-5.37109375
7.946,0.529541015625,-0.822021484375,0.0740966796875,14.6484375,-7.62939453125,28.62548828125,-14.794921875,21.59423828125,-4.9560546875
7.947,0.523193359375,-0.8115234375,0.1102294921875,14.6484375,-7.62939453125,28.62548828125,-14.794921875,21.59423828125,-4.9560546875
7.99,0.523193359375,-0.8115234375,0.1102294921875,10.07080078125,-14.404296875,29.296875,-14.794921875,21.59423828125,-4.9560546875
7.991,0.5399169921875,-0.7520751953125,0.1099853515625,10.07080078125,-14.404296875,29.296875,-16.2353515625,21.98486328125,-5.2734375
8.035,0.5399169921875,-0.7520751953125,0.1099853515625,-2.99072265625,-39.24560546875,32.04345703125,-16.2353515625,21.98486328125,-5.2734375
8.036,0.7103271484375,-0.8111572265625,0.100830078125,-2.99072265625,-39.24560546875,32.04345703125,-16.17431640625,22.3876953125,-5.87158203125
8.08,0.7103271484375,-0.8111572265625,0.100830078125,1.40380859375,-26.79443359375,50.78125,-17.68798828125,22.998046875,-4.43115234375
8.081,0.7161865234375,-0.72314453125,0.2027587890625,1.40380859375,-26.79443359375,50.78125,-17.68798828125,22.998046875,-4.43115234375
8.125,0.7161865234375,-0.72314453125,0.2027587890625,28.4423828125,-16.54052734375,39.306640625,-17.68798828125,22.998046875,-4.43115234375
8.126,0.5421142578125,-0.634033203125,0.211669921875,28.4423828125,-16.54052734375,39.306640625,-18.27392578125,24.15771484375,-5.40771484375
8.174,0.5421142578125,-0.634033203125,0.211669921875,17.822265625,-21.728515625,34.11865234375,-18.27392578125,24.15771484375,-5.40771484375
8.175,0.6695556640625,-0.5535888671875,0.148681640625,17.822265625,-21.728515625,34.11865234375,-19.3115234375,23.53515625,-6.73828125
8.215,0.791015625,-0.6484375,0.447998046875,41.32080078125,13.671875,11.53564453125,-19.3115234375,23.53515625,-6.73828125
8.215,0.791015625,-0.6484375,0.447998046875,30.82275390625,-50.29296875,0.8544921875,-19.3115234375,23.53515625,-6.73828125
8.259,0.791015625,-0.6484375,0.447998046875,30.82275390625,-50.29296875,0.8544921875,-19.4091796875,25.35400390625,-7.06787109375
8.26,0.8896484375,-0.5081787109375,0.2906494140625,-15.56396484375,-39.794921875,4.39453125,-19.4091796875,25.35400390625,-7.06787109375
8.304,0.8896484375,-0.5081787109375,0.2906494140625,-15.56396484375,-39.794921875,4.39453125,-19.140625,24.79248046875,-5.52978515625
8.305,0.8592529296875,-0.5213623046875,0.2630615234375,9.21630859375,-31.982421875,10.31494140625,-19.140625,24.79248046875,-5.52978515625
8.35,0.8514404296875,-0.5035400390625,0.267333984375,-4.2724609375,-16.11328125,29.47998046875,-19.62890625,25.64697265625,-5.2490234375
8.395,0.75927734375,-0.5322265625,0.376220703125,-41.68701171875,-6.7138671875,12.6953125,-19.677734375,25.67138671875,-4.5654296875
8.439,0.6595458984375,-0.368408203125,0.1771240234375,-41.68701171875,-6.7138671875,12.6953125,-19.677734375,25.67138671875,-4.5654296875
8.44,0.6595458984375,-0.368408203125,0.1771240234375,29.35791015625,20.3857421875,17.02880859375,-20.4833984375,25.927734375,-5.5419921875
8.485,0.5284423828125,-0.264404296875,0.193359375,47.66845703125,-76.171875,-37.4755859375,-20.4833984375,25.927734375,-5.5419921875
8.486,0.5284423828125,-0.264404296875,0.193359375,47.66845703125,-76.171875,-37.4755859375,-20.95947265625,25.4638671875,-4.67529296875
8.529,0.388916015625,-0.3492431640625,0.61474609375,47.66845703125,-76.171875,-37.4755859375,-20.95947265625,25.4638671875,-4.67529296875
8.53,0.388916015625,-0.3492431640625,0.61474609375,-2.38037109375,-81.6650390625,-53.7109375,-19.90966796875,24.9267578125,-3.43017578125
8.574,0.4404296875,-0.39697265625,0.1212158203125,-2.38037109375,-81.6650390625,-53.7109375,-19.90966796875,24.9267578125,-3.43017578125
8.575,0.4404296875,-0.39697265625,0.1212158203125,33.447265625,-26.3671875,-31.005859375,-19.82421875,25.048828125,-2.490234375
8.62,0.6156005859375,-0.61767578125,0.308349609375,33.447265625,-26.3671875,-31.005859375,-19.82421875,25.048828125,-2.490234375
8.623,0.6156005859375,-0.61767578125,0.308349609375,-3.90625,-108.5205078125,-4.33349609375,-20.17822265625,25.1953125,-2.99072265625
8.664,0.8876953125,-0.919189453125,0.583984375,-3.90625,-108.5205078125,-4.33349609375,-20.17822265625,25.1953125,-2.99072265625
8.665,0.8876953125,-0.919189453125,0.583984375,-41.259765625,-94.17724609375,-0.79345703125,-20.17822265625,25.1953125,-2.99072265625
8.71,0.636474609375,-0.5616455078125,0.6348876953125,-49.25537109375,-105.04150390625,-3.84521484375,-20.41015625,24.25537109375,-0.08544921875
8.754,0.84033203125,-0.438720703125,0.7730712890625,-49.25537109375,-105.04150390625,-3.84521484375,-20.41015625,24.25537109375,-0.08544921875
8.755,0.84033203125,-0.438720703125,0.7730712890625,-51.94091796875,-148.5595703125,5.2490234375,-20.41015625,24.25537109375,-0.08544921875
8.756,0.84033203125,-0.438720703125,0.7730712890625,-51.94091796875,-148.5595703125,5.2490234375,-20.2392578125,24.951171875,3.52783203125
8.799,0.9901123046875,-0.39111328125,0.6572265625,-51.94091796875,-148.5595703125,5.2490234375,-20.2392578125,24.951171875,3.52783203125
8.8,0.9901123046875,-0.39111328125,0.6572265625,32.958984375,-58.16650390625,90.8203125,-19.93408203125,25.32958984375,3.89404296875
8.86,0.7413330078125,-0.4825439453125,0.8818359375,9.6435546875,-21.54541015625,76.96533203125,-20.73974609375,25.69580078125,4.11376953125
8.891,0.5826416015625,-0.833984375,0.893310546875,9.6435546875,-21.54541015625,76.96533203125,-20.73974609375,25.69580078125,4.11376953125
8.892,0.5826416015625,-0.833984375,0.893310546875,-1.3427734375,-13.0615234375,30.6396484375,-21.6796875,26.1474609375,4.2236328125
8.935,0.57568359375,-0.4791259765625,0.5328369140625,-1.3427734375,-13.0615234375,30.6396484375,-21.6796875,26.1474609375,4.2236328125
8.936,0.57568359375,-0.4791259765625,0.5328369140625,-42.41943359375,32.958984375,30.21240234375,-21.6796875,26.1474609375,4.2236328125
8.937,0.57568359375,-0.4791259765625,0.5328369140625,-42.41943359375,32.958984375,30.21240234375,-22.00927734375,26.3916015625,4.9072265625
8.98,0.59033203125,-0.5955810546875,0.526611328125,-9.58251953125,4.69970703125,22.76611328125,-22.6318359375,26.74560546875,4.19921875
9.025,0.5289306640625,-0.4173583984375,0.1429443359375,40.283203125,38.9404296875,36.4990234375,-22.6318359375,26.74560546875,4.19921875
9.026,0.5289306640625,-0.4173583984375,0.1429443359375,40.283203125,38.9404296875,36.4990234375,-22.75390625,26.9287109375,3.4912109375
9.069,0.779541015625,-0.48388671875,0.528564453125,40.283203125,38.9404296875,36.4990234375,-22.75390625,26.9287109375,3.4912109375
9.07,-0.1463623046875,-0.140625,0.364501953125,-80.56640625,-180.23681640625,47.36328125,-22.75390625,26.9287109375,3.4912109375
9.115,-0.1463623046875,-0.140625,0.364501953125,-41.259765625,-251.03759765625,104.67529296875,-23.7548828125,28.90625,6.53076171875
9.116,0.0941162109375,0.078369140625,0.1551513671875,-41.259765625,-251.03759765625,104.67529296875,-23.7548828125,28.90625,6.53076171875
9.159,0.0941162109375,0.078369140625,0.1551513671875,-72.509765625,58.2275390625,156.1279296875,-23.7548828125,28.90625,6.53076171875
9.215,0.5262451171875,0.2432861328125,0.5833740234375,-142.02880859375,-10.1318359375,195.80078125,-24.35302734375,30.84716796875,6.93359375
9.249,0.5262451171875,0.2432861328125,0.5833740234375,-142.02880859375,-10.1318359375,195.80078125,-25.7080078125,35.4736328125,7.48291015625
9.25,0.6668701171875,-0.0838623046875,1.124755859375,25.87890625,-70.86181640625,-28.80859375,-25.7080078125,35.4736328125,7.48291015625
9.294,0.6668701171875,-0.0838623046875,1.124755859375,25.87890625,-70.86181640625,-28.80859375,-24.9267578125,36.4013671875,10.11962890625
9.295,0.752197265625,-0.1075439453125,0.8055419921875,38.4521484375,-20.69091796875,-46.9970703125,-24.9267578125,36.4013671875,10.11962890625
9.339,0.5787353515625,-0.3238525390625,0.87451171875,38.4521484375,-20.69091796875,-46.9970703125,-24.35302734375,34.814453125,10.3759765625
9.34,0.5787353515625,-0.3238525390625,0.87451171875,-12.39013671875,-42.8466796875,-48.4619140625,-24.35302734375,34.814453125,10.3759765625
9.384,0.5787353515625,-0.3238525390625,0.87451171875,-12.39013671875,-42.8466796875,-48.4619140625,-23.876953125,34.4482421875,11.279296875
9.385,0.5396728515625,-0.3524169921875,0.882080078125,-25.87890625,-83.984375,-12.6953125,-23.876953125,34.4482421875,11.279296875
9.429,0.5396728515625,-0.3524169921875,0.882080078125,-25.87890625,-83.984375,-12.6953125,-22.55859375,33.447265625,13.134765625
9.43,0.621826171875,-0.2232666015625,1.0010986328125,-21.30126953125,-48.583984375,-17.578125,-22.55859375,33.447265625,13.134765625
9.474,0.62548828125,-0.2291259765625,1.004638671875,-21.30126953125,-48.583984375,-17.578125,-22.55859375,33.447265625,13.134765625
9.475,0.62548828125,-0.2291259765625,1.004638671875,-15.44189453125,-36.865234375,-32.16552734375,-21.77734375,33.2275390625,12.48779296875
9.519,0.64453125,-0.2001953125,1.07275390625,-15.44189453125,-36.865234375,-32.16552734375,-21.77734375,33.2275390625,12.48779296875
9.52,0.64453125,-0.2001953125,1.07275390625,6.103515625,-70.37353515625,-59.38720703125,-20.80078125,33.04443359375,14.94140625
9.566,0.55419921875,-0.141357421875,1.198974609375,14.46533203125,-38.0859375,-69.88525390625,-19.39697265625,32.26318359375,16.064453125
9.611,0.24169921875,-0.1461181640625,1.2303466796875,27.16064453125,40.283203125,-46.20361328125,-19.39697265625,32.26318359375,16.064453125
9.612,0.24169921875,-0.1461181640625,1.2303466796875,27.16064453125,40.283203125,-46.20361328125,-18.5791015625,31.2255859375,16.40625
9.656,0.03662109375,-0.13916015625,1.012451171875,12.75634765625,16.41845703125,6.103515625,-18.5791015625,31.2255859375,16.40625
9.657,0.03662109375,-0.13916015625,1.012451171875,12.75634765625,16.41845703125,6.103515625,-18.7255859375,30.5908203125,15.46630859375
9.7,0.0443115234375,-0.043212890625,0.8980712890625,12.75634765625,16.41845703125,6.103515625,-18.7255859375,30.5908203125,15.46630859375
9.701,0.0443115234375,-0.043212890625,0.8980712890625,-1.15966796875,49.4384765625,25.32958984375,-18.7255859375,30.5908203125,15.46630859375
9.702,0.0443115234375,-0.043212890625,0.8980712890625,-1.15966796875,49.4384765625,25.32958984375,-19.2138671875,30.62744140625,13.09814453125
9.746,0.2469482421875,0.0272216796875,0.9757080078125,-1.15966796875,49.4384765625,25.32958984375,-19.2138671875,30.62744140625,13.09814453125
9.747,0.2469482421875,0.0272216796875,0.9757080078125,7.87353515625,46.08154296875,16.05224609375,-19.2138671875,30.62744140625,13.09814453125
9.748,0.2469482421875,0.0272216796875,0.9757080078125,7.87353515625,46.08154296875,16.05224609375,-20.5078125,30.95703125,13.29345703125
9.791,0.1427001953125,0.0115966796875,0.8306884765625,7.87353515625,46.08154296875,16.05224609375,-20.5078125,30.95703125,13.29345703125
9.792,0.1427001953125,0.0115966796875,0.8306884765625,4.21142578125,66.46728515625,39.97802734375,-20.5078125,30.95703125,13.29345703125
9.793,0.22216796875,0.100341796875,0.59912109375,4.21142578125,66.46728515625,39.97802734375,-20.5078125,30.95703125,13.29345703125
9.836,0.2303466796875,0.0960693359375,0.5694580078125,-4.08935546875,30.21240234375,19.34814453125,-20.5078125,30.95703125,13.29345703125
9.837,0.2303466796875,0.0960693359375,0.5694580078125,-4.08935546875,30.21240234375,19.34814453125,-21.17919921875,30.615234375,12.6953125
9.881,0.322021484375,0.0126953125,0.5172119140625,-10.80322265625,-3.662109375,0.9765625,-21.17919921875,30.615234375,12.6953125
9.883,0.322021484375,0.0126953125,0.5172119140625,-10.80322265625,-3.662109375,0.9765625,-21.240234375,31.33544921875,13.07373046875
9.926,0.4638671875,0.0030517578125,0.694091796875,8.72802734375,-9.6435546875,-21.42333984375,-21.240234375,31.33544921875,13.07373046875
9.928,0.4638671875,0.0030517578125,0.694091796875,8.72802734375,-9.6435546875,-21.42333984375,-21.27685546875,31.77490234375,13.4765625
9.97,0.4613037109375,-0.1756591796875,0.895751953125,18.00537109375,10.8642578125,-2.25830078125,-21.27685546875,31.77490234375,13.4765625
9.971,0.4613037109375,-0.1756591796875,0.895751953125,18.00537109375,10.8642578125,-2.25830078125,-21.1669921875,30.94482421875,12.5
10.015,0.4268798828125,-0.2333984375,0.8643798828125,18.00537109375,10.8642578125,-2.25830078125,-21.1669921875,30.94482421875,12.5
10.017,0.4268798828125,-0.2333984375,0.8643798828125,4.150390625,18.12744140625,10.986328125,-21.49658203125,30.74951171875,13.1591796875
10.06,0.46923828125,-0.244873046875,0.8795166015625,15.9912109375,-0.732421875,14.16015625,-21.49658203125,30.74951171875,13.1591796875
10.061,0.46923828125,-0.244873046875,0.8795166015625,15.9912109375,-0.732421875,14.16015625,-22.57080078125,30.859375,12.7197265625
10.106,0.5963134765625,-0.2579345703125,0.9854736328125,23.92578125,-48.7060546875,-14.7705078125,-22.57080078125,30.859375,12.7197265625
10.107,0.5963134765625,-0.2579345703125,0.9854736328125,23.92578125,-48.7060546875,-14.7705078125,-20.7763671875,30.5908203125,14.2578125
10.15,0.56005859375,-0.402099609375,1.3218994140625,23.92578125,-48.7060546875,-14.7705078125,-20.7763671875,30.5908203125,14.2578125
10.151,0.41162109375,-0.404296875,1.374267578125,15.93017578125,-10.68115234375,13.18359375,-20.7763671875,30.5908203125,14.2578125
10.195,0.41162109375,-0.404296875,1.374267578125,15.0146484375,4.150390625,22.88818359375,-21.15478515625,30.33447265625,14.14794921875
10.196,0.3245849609375,-0.14599609375,0.9783935546875,15.0146484375,4.150390625,22.88818359375,-21.15478515625,30.33447265625,14.14794921875
10.265,0.3245849609375,-0.14599609375,0.9783935546875,12.6953125,66.0400390625,41.93115234375,-21.15478515625,30.33447265625,14.14794921875
10.266,0.244384765625,-0.16015625,0.80615234375,12.6953125,66.0400390625,41.93115234375,-21.923828125,30.92041015625,13.65966796875
10.33,0.244384765625,-0.16015625,0.80615234375,26.06201171875,38.330078125,5.859375,-21.923828125,30.92041015625,13.65966796875
10.331,0.244384765625,-0.16015625,0.80615234375,26.06201171875,38.330078125,5.859375,-22.88818359375,30.55419921875,12.3291015625
10.332,0.08154296875,-0.0186767578125,0.6175537109375,32.04345703125,9.27734375,56.94580078125,-22.88818359375,30.55419921875,12.3291015625
10.375,0.08154296875,-0.0186767578125,0.6175537109375,32.04345703125,9.27734375,56.94580078125,-25.634765625,33.41064453125,12.80517578125
10.376,0.0809326171875,0.291748046875,0.84228515625,69.88525390625,-237.79296875,46.20361328125,-25.634765625,33.41064453125,12.80517578125
10.42,0.0809326171875,0.291748046875,0.84228515625,69.88525390625,-237.79296875,46.20361328125,-22.69287109375,35.693359375,14.07470703125
10.421,0.133544921875,0.449462890625,0.8853759765625,-276.2451171875,141.9677734375,33.63037109375,-22.69287109375,35.693359375,14.07470703125
10.465,-0.635498046875,-1.72509765625,1.15576171875,-276.2451171875,141.9677734375,33.63037109375,-21.59423828125,35.9130859375,17.6513671875
10.467,-0.635498046875,-1.72509765625,1.15576171875,-301.94091796875,516.05224609375,-297.54638671875,-21.59423828125,35.9130859375,17.6513671875
10.51,-0.635498046875,-1.72509765625,1.15576171875,-301.94091796875,516.05224609375,-297.54638671875,-27.294921875,40.66162109375,11.279296875
10.511,0.5064697265625,0.9541015625,1.423095703125,199.0966796875,-361.572265625,247.98583984375,-27.294921875,40.66162109375,11.279296875
10.555,0.5064697265625,0.9541015625,1.423095703125,199.0966796875,-361.572265625,247.98583984375,-22.35107421875,39.78271484375,15.83251953125
10.556,0.5087890625,-0.0843505859375,1.11181640625,-16.845703125,26.85546875,46.38671875,-22.35107421875,39.78271484375,15.83251953125
10.6,0.376708984375,-0.100830078125,0.9810791015625,-20.44677734375,-61.767578125,59.9365234375,-22.35107421875,39.78271484375,15.83251953125
10.601,0.376708984375,-0.100830078125,0.9810791015625,-20.44677734375,-61.767578125,59.9365234375,-21.49658203125,41.650390625,16.4794921875
10.646,0.5552978515625,0.6297607421875,1.1240234375,-14.6484375,-114.19677734375,-62.56103515625,-21.49658203125,41.650390625,16.4794921875
10.647,0.5552978515625,0.6297607421875,1.1240234375,-14.6484375,-114.19677734375,-62.56103515625,-19.82421875,43.06640625,17.7978515625
10.692,0.390380859375,0.2127685546875,1.7978515625,52.30712890625,-24.10888671875,-22.5830078125,-17.51708984375,41.71142578125,18.896484375
10.736,-0.0648193359375,0.1295166015625,0.780029296875,-29.72412109375,-15.5029296875,-212.58544921875,-17.51708984375,41.71142578125,18.896484375
10.737,-0.0648193359375,0.1295166015625,0.780029296875,-29.72412109375,-15.5029296875,-212.58544921875,-17.2607421875,41.1376953125,19.27490234375
10.78,0.054443359375,0.3583984375,0.9766845703125,-18.98193359375,-10.43701171875,-195.49560546875,-17.2607421875,41.1376953125,19.27490234375
10.781,0.054443359375,0.3583984375,0.9766845703125,-18.98193359375,-10.43701171875,-195.49560546875,-19.04296875,38.51318359375,19.8974609375
10.825,-0.1807861328125,-0.1961669921875,1.007568359375,-18.98193359375,-10.43701171875,-195.49560546875,-19.04296875,38.51318359375,19.8974609375
10.826,-0.1807861328125,-0.1961669921875,1.007568359375,-38.75732421875,58.16650390625,-32.958984375,-20.1416015625,38.28125,19.287109375
10.871,0.180908203125,0.1258544921875,0.7127685546875,-45.10498046875,-6.04248046875,-43.39599609375,-20.1416015625,38.28125,19.287109375
10.872,0.21826171875,0.189697265625,0.634765625,-45.10498046875,-6.04248046875,-43.39599609375,-20.1416015625,38.28125,19.287109375
10.915,0.2293701171875,0.279052734375,0.88623046875,-45.10498046875,-6.04248046875,-43.39599609375,-20.166015625,38.3544921875,18.65234375
10.916,0.2293701171875,0.279052734375,0.88623046875,-83.3740234375,62.744140625,-19.53125,-20.166015625,38.3544921875,18.65234375
10.96,0.06689453125,0.17919921875,0.70068359375,-53.955078125,97.59521484375,39.55078125,-20.166015625,38.3544921875,18.65234375
10.961,0.06689453125,0.17919921875,0.70068359375,-53.955078125,97.59521484375,39.55078125,-21.39892578125,38.85498046875,18.8232421875
11.005,0.37255859375,0.415771484375,0.7628173828125,-9.94873046875,49.62158203125,16.54052734375,-22.86376953125,40.1123046875,18.10302734375
11.05,0.2919921875,0.39208984375,0.5452880859375,-6.65283203125,27.89306640625,13.85498046875,-22.86376953125,40.1123046875,18.10302734375
11.051,0.2919921875,0.39208984375,0.5452880859375,-6.65283203125,27.89306640625,13.85498046875,-23.2177734375,40.44189453125,17.2119140625
11.096,0.2587890625,0.2493896484375,0.693115234375,-5.2490234375,43.701171875,31.67724609375,-24.560546875,41.41845703125,16.71142578125
11.14,0.4278564453125,0.4110107421875,0.9290771484375,-5.2490234375,43.701171875,31.67724609375,-24.560546875,41.41845703125,16.71142578125
11.141,0.4278564453125,0.4110107421875,0.9290771484375,-16.90673828125,27.2216796875,48.52294921875,-25.2197265625,42.88330078125,15.576171875
11.185,0.5843505859375,0.17578125,0.8436279296875,-16.90673828125,27.2216796875,48.52294921875,-25.2197265625,42.88330078125,15.576171875
11.186,0.5843505859375,0.17578125,0.8436279296875,-135.68115234375,-5.859375,66.83349609375,-24.853515625,44.4580078125,13.7451171875
11.23,0.3919677734375,0.163818359375,1.3931884765625,-337.158203125,34.48486328125,-52.24609375,-24.853515625,44.4580078125,13.7451171875
11.231,0.3919677734375,0.163818359375,1.3931884765625,-337.158203125,34.48486328125,-52.24609375,-25.5859375,47.76611328125,11.1083984375
11.309,0.12158203125,0.6131591796875,1.5321044921875,-366.2109375,122.25341796875,-167.6025390625,-25.5859375,47.76611328125,11.1083984375
11.309,0.857666015625,0.4129638671875,0.0216064453125,-366.2109375,122.25341796875,-167.6025390625,-25.5859375,47.76611328125,11.1083984375
11.32,0.3829345703125,0.46337890625,-0.063232421875,-213.623046875,190.7958984375,-107.23876953125,-28.45458984375,47.05810546875,6.60400390625
11.367,0.3829345703125,0.46337890625,-0.063232421875,-178.466796875,95.21484375,10.986328125,-29.833984375,46.875,2.978515625
11.368,-0.1673583984375,0.8809814453125,-0.191650390625,-178.466796875,95.21484375,10.986328125,-29.833984375,46.875,2.978515625
11.41,0.6851806640625,1.4063720703125,-0.7940673828125,-188.41552734375,125.67138671875,21.240234375,-29.60205078125,46.8505859375,-2.0751953125
11.456,0.0797119140625,0.6168212890625,-1.020263671875,-54.19921875,113.1591796875,-21.66748046875,-29.43115234375,45.5078125,-3.13720703125
11.5,0.0797119140625,0.6168212890625,-1.020263671875,63.5986328125,-212.2802734375,74.3408203125,-29.5654296875,47.79052734375,-0.79345703125
11.501,-0.0203857421875,0.7989501953125,-0.059326171875,63.5986328125,-212.2802734375,74.3408203125,-29.5654296875,47.79052734375,-0.79345703125
11.544,-0.0203857421875,0.7989501953125,-0.059326171875,4.8828125,-7.6904296875,58.04443359375,-29.5654296875,47.79052734375,-0.79345703125
11.545,0.4376220703125,0.37158203125,-0.1434326171875,4.8828125,-7.6904296875,58.04443359375,-30.029296875,47.39990234375,0.0
11.589,0.4376220703125,0.37158203125,-0.1434326171875,44.921875,-5.9814453125,-95.458984375,-30.029296875,47.39990234375,0.0
11.59,0.4849853515625,0.4801025390625,0.236572265625,44.921875,-5.9814453125,-95.458984375,-31.3232421875,44.56787109375,0.68359375
11.635,0.4849853515625,0.4801025390625,0.236572265625,82.51953125,-30.82275390625,-146.78955078125,-31.3232421875,44.56787109375,0.68359375
11.636,0.40478515625,0.581298828125,0.142578125,82.51953125,-30.82275390625,-146.78955078125,-31.3232421875,44.56787109375,0.68359375
11.637,0.40478515625,0.581298828125,0.142578125,36.0107421875,-120.1171875,-157.470703125,-31.3232421875,44.56787109375,0.68359375
11.679,2.1907958984375,3.2142333984375,0.301513671875,36.0107421875,-120.1171875,-157.470703125,-33.154296875,40.88134765625,3.3447265625
11.68,2.1907958984375,3.2142333984375,0.301513671875,-83.19091796875,-18.85986328125,-73.1201171875,-33.154296875,40.88134765625,3.3447265625
11.724,2.1907958984375,3.2142333984375,0.301513671875,-98.69384765625,12.02392578125,103.3935546875,-33.154296875,40.88134765625,3.3447265625
11.725,0.42626953125,0.9976806640625,0.208740234375,-98.69384765625,12.02392578125,103.3935546875,-33.3251953125,40.24658203125,4.638671875
11.769,0.42626953125,0.9976806640625,0.208740234375,-198.05908203125,-87.0361328125,184.50927734375,-33.3251953125,40.24658203125,4.638671875
11.77,0.4443359375,0.8125,-0.2352294921875,-198.05908203125,-87.0361328125,184.50927734375,-31.7138671875,45.27587890625,5.23681640625
11.814,0.4443359375,0.8125,-0.2352294921875,-203.2470703125,-133.11767578125,116.943359375,-31.7138671875,45.27587890625,5.23681640625
11.815,0.458984375,0.9744873046875,-0.3543701171875,-203.2470703125,-133.11767578125,116.943359375,-30.06591796875,48.74267578125,6.35986328125
11.859,0.458984375,0.9744873046875,-0.3543701171875,-177.6123046875,-93.68896484375,110.3515625,-30.06591796875,48.74267578125,6.35986328125
11.86,0.482666015625,0.746337890625,-0.3958740234375,-177.6123046875,-93.68896484375,110.3515625,-27.45361328125,50.68359375,5.4931640625
11.905,0.482666015625,0.746337890625,-0.3958740234375,-146.17919921875,-73.42529296875,70.86181640625,-27.392578125,51.220703125,5.23681640625
11.906,0.68603515625,0.4686279296875,-0.5147705078125,-146.17919921875,-73.42529296875,70.86181640625,-27.392578125,51.220703125,5.23681640625
11.949,0.68603515625,0.4686279296875,-0.5147705078125,-50.9033203125,-25.146484375,-78.30810546875,-27.392578125,51.220703125,5.23681640625
11.95,0.2547607421875,0.6072998046875,-0.3968505859375,-50.9033203125,-25.146484375,-78.30810546875,-27.9296875,50.7080078125,5.43212890625
11.994,0.2547607421875,0.6072998046875,-0.3968505859375,36.4990234375,63.65966796875,29.1748046875,-27.9296875,50.7080078125,5.43212890625
11.995,-0.0006103515625,0.447265625,-0.755859375,47.607421875,28.564453125,30.2734375,-27.9296875,50.7080078125,5.43212890625
12.039,0.3485107421875,0.82275390625,-0.577880859375,47.607421875,28.564453125,30.2734375,-27.7587890625,50.7080078125,5.18798828125
12.04,0.3485107421875,0.82275390625,-0.577880859375,11.41357421875,26.611328125,0.244140625,-27.7587890625,50.7080078125,5.18798828125
12.084,0.2406005859375,0.891357421875,-0.7650146484375,11.41357421875,26.611328125,0.244140625,-27.7587890625,50.7080078125,5.18798828125
12.129,0.2406005859375,0.891357421875,-0.7650146484375,-5.615234375,12.20703125,-6.34765625,-27.685546875,50.64697265625,5.45654296875
12.13,0.1484375,0.6845703125,-0.5693359375,-5.615234375,12.20703125,-6.34765625,-27.685546875,50.64697265625,5.45654296875
12.174,0.1484375,0.6845703125,-0.5693359375,-11.23046875,-7.87353515625,-8.1787109375,-27.685546875,50.64697265625,5.45654296875
12.175,0.23046875,0.8326416015625,-0.4417724609375,-11.23046875,-7.87353515625,-8.1787109375,-27.52685546875,50.50048828125,5.57861328125
12.219,0.23046875,0.8326416015625,-0.4417724609375,34.423828125,24.0478515625,36.07177734375,-27.52685546875,50.50048828125,5.57861328125
12.22,0.24560546875,0.8558349609375,-0.553466796875,34.423828125,24.0478515625,36.07177734375,-27.16064453125,51.13525390625,5.18798828125
12.265,0.4493408203125,0.8531494140625,-0.28271484375,33.447265625,16.05224609375,32.470703125,-26.59912109375,50.6591796875,5.38330078125
12.333,0.4493408203125,0.8531494140625,-0.28271484375,-8.36181640625,12.51220703125,1.77001953125,-27.1484375,50.6591796875,4.7119140625
12.334,0.486083984375,0.90869140625,-0.180908203125,-8.36181640625,12.51220703125,1.77001953125,-27.1484375,50.6591796875,4.7119140625
12.354,0.486083984375,0.90869140625,-0.180908203125,1.64794921875,-2.38037109375,18.06640625,-27.1484375,50.6591796875,4.7119140625
12.355,0.5224609375,0.94580078125,-0.1080322265625,-6.04248046875,-3.23486328125,30.57861328125,-27.1484375,50.6591796875,4.7119140625
12.399,0.5020751953125,0.9559326171875,-0.2149658203125,-6.04248046875,-3.23486328125,30.57861328125,-26.47705078125,50.8544921875,5.5908203125
12.4,0.5020751953125,0.9559326171875,-0.2149658203125,17.51708984375,13.73291015625,8.23974609375,-26.47705078125,50.8544921875,5.5908203125
12.444,0.50732421875,1.0006103515625,-0.2530517578125,17.51708984375,13.73291015625,8.23974609375,-26.47705078125,50.8544921875,5.5908203125
12.445,0.50732421875,1.0006103515625,-0.2530517578125,12.451171875,-1.46484375,-14.70947265625,-26.171875,51.57470703125,4.6630859375
12.489,0.509521484375,0.963134765625,-0.2728271484375,-11.71875,-15.7470703125,-6.89697265625,-26.171875,51.57470703125,4.6630859375
12.49,0.509521484375,0.963134765625,-0.2728271484375,-11.71875,-15.7470703125,-6.89697265625,-26.1474609375,50.13427734375,5.18798828125
12.534,0.510009765625,0.7137451171875,-0.1121826171875,-11.71875,-15.7470703125,-6.89697265625,-26.1474609375,50.13427734375,5.18798828125
12.541,0.510009765625,0.7137451171875,-0.1121826171875,-12.6953125,-12.02392578125,8.60595703125,-26.1474609375,50.13427734375,5.18798828125
12.542,0.510009765625,0.7137451171875,-0.1121826171875,-12.6953125,-12.02392578125,8.60595703125,-26.1474609375,50.7080078125,4.443359375
12.579,0.4874267578125,0.599609375,-0.21875,-12.6953125,-12.02392578125,8.60595703125,-26.1474609375,50.7080078125,4.443359375
12.58,0.4874267578125,0.599609375,-0.21875,-4.638671875,-7.62939453125,-34.24072265625,-26.5625,50.54931640625,5.70068359375
12.624,0.3658447265625,0.7867431640625,-0.3062744140625,-4.638671875,-7.62939453125,-34.24072265625,-26.5625,50.54931640625,5.70068359375
12.625,0.3658447265625,0.7867431640625,-0.3062744140625,-39.73388671875,2.3193359375,-43.88427734375,-27.3193359375,49.47509765625,6.82373046875
12.669,0.3441162109375,0.57568359375,-0.2393798828125,-39.73388671875,2.3193359375,-43.88427734375,-27.3193359375,49.47509765625,6.82373046875
12.67,0.3441162109375,0.57568359375,-0.2393798828125,-61.8896484375,-27.52685546875,-32.8369140625,-27.72216796875,49.23095703125,5.0537109375
12.714,0.2677001953125,0.6641845703125,-0.2862548828125,-61.8896484375,-27.52685546875,-32.8369140625,-27.72216796875,49.23095703125,5.0537109375
12.715,0.2677001953125,0.6641845703125,-0.2862548828125,-53.89404296875,4.94384765625,7.87353515625,-27.44140625,48.828125,5.078125
12.759,0.3995361328125,0.9337158203125,-0.4202880859375,-47.05810546875,-67.32177734375,61.46240234375,-27.44140625,48.828125,5.078125
12.76,0.55517578125,0.993408203125,-0.4049072265625,-47.05810546875,-67.32177734375,61.46240234375,-27.44140625,48.828125,5.078125
12.804,0.55517578125,0.993408203125,-0.4049072265625,-59.4482421875,-93.1396484375,93.81103515625,-27.44140625,48.828125,5.078125
12.805,-0.2200927734375,0.889892578125,-0.6253662109375,-59.4482421875,-93.1396484375,93.81103515625,-26.50146484375,49.54833984375,5.74951171875
12.849,-0.2200927734375,0.889892578125,-0.6253662109375,-100.830078125,-74.15771484375,237.3046875,-26.50146484375,49.54833984375,5.74951171875
12.85,-0.38916015625,0.8140869140625,-0.4482421875,-100.830078125,-74.15771484375,237.3046875,-22.13134765625,51.9775390625,5.615234375
12.894,-0.38916015625,0.8140869140625,-0.4482421875,-50.048828125,-248.779296875,219.78759765625,-22.13134765625,51.9775390625,5.615234375
12.895,0.5985107421875,0.904052734375,-0.8087158203125,-50.048828125,-248.779296875,219.78759765625,-16.22314453125,55.82275390625,6.8115234375
12.939,0.5985107421875,0.904052734375,-0.8087158203125,-75.439453125,-123.84033203125,210.26611328125,-16.22314453125,55.82275390625,6.8115234375
12.94,0.388671875,0.8831787109375,-1.380859375,-75.439453125,-123.84033203125,210.26611328125,-11.75537109375,58.48388671875,7.28759765625
12.984,0.388671875,0.8831787109375,-1.380859375,33.935546875,-145.01953125,85.693359375,-11.75537109375,58.48388671875,7.28759765625
12.985,0.375732421875,1.076416015625,-0.573974609375,33.935546875,-145.01953125,85.693359375,-9.9609375,58.4228515625,6.689453125
13.03,0.5614013671875,1.072021484375,-0.49853515625,13.671875,-61.21826171875,-68.05419921875,-12.31689453125,58.50830078125,3.82080078125
13.074,0.5614013671875,1.072021484375,-0.49853515625,-133.23974609375,21.05712890625,-129.5166015625,-12.31689453125,58.50830078125,3.82080078125
13.075,0.056640625,0.7076416015625,-0.2623291015625,-18.24951171875,43.51806640625,-110.7177734375,-12.31689453125,58.50830078125,3.82080078125
13.119,0.056640625,0.7076416015625,-0.2623291015625,-18.24951171875,43.51806640625,-110.7177734375,-15.10009765625,57.4951171875,3.18603515625
13.12,0.1041259765625,0.5164794921875,-0.5242919921875,-115.29541015625,-0.244140625,-169.25048828125,-15.10009765625,57.4951171875,3.18603515625
13.164,0.242919921875,0.7003173828125,-0.786865234375,-115.29541015625,-0.244140625,-169.25048828125,-15.10009765625,57.4951171875,3.18603515625
13.165,0.242919921875,0.7003173828125,-0.786865234375,-156.06689453125,-29.78515625,-213.07373046875,-15.10009765625,57.4951171875,3.18603515625
13.166,0.242919921875,0.7003173828125,-0.786865234375,-156.06689453125,-29.78515625,-213.07373046875,-18.0419921875,56.1279296875,0.32958984375
13.209,-0.0120849609375,-0.25244140625,-1.1419677734375,-51.33056640625,4.39453125,-34.97314453125,-18.0419921875,56.1279296875,0.32958984375
13.21,-0.0120849609375,-0.25244140625,-1.1419677734375,-51.33056640625,4.39453125,-34.97314453125,-20.60546875,52.01416015625,-1.806640625
13.254,0.4188232421875,-0.0174560546875,-0.7532958984375,-62.3779296875,25.08544921875,-3.84521484375,-20.60546875,52.01416015625,-1.806640625
13.255,0.4188232421875,-0.0174560546875,-0.7532958984375,-62.3779296875,25.08544921875,-3.84521484375,-24.76806640625,55.72509765625,-1.8310546875
13.299,0.4833984375,0.4739990234375,-0.661865234375,-42.41943359375,37.9638671875,9.33837890625,-24.76806640625,55.72509765625,-1.8310546875
13.3,0.4833984375,0.4739990234375,-0.661865234375,-42.41943359375,37.9638671875,9.33837890625,-28.84521484375,59.72900390625,-2.81982421875
13.361,0.2086181640625,0.4307861328125,-0.5433349609375,8.6669921875,29.23583984375,53.8330078125,-28.84521484375,59.72900390625,-2.81982421875
13.362,0.2086181640625,0.4307861328125,-0.5433349609375,8.6669921875,29.23583984375,53.8330078125,-27.11181640625,58.447265625,-4.4189453125
13.389,0.3643798828125,0.3927001953125,-0.5849609375,8.6669921875,29.23583984375,53.8330078125,-27.11181640625,58.447265625,-4.4189453125
13.39,0.3643798828125,0.3927001953125,-0.5849609375,28.99169921875,89.78271484375,60.85205078125,-23.22998046875,56.89697265625,-3.759765625
13.434,0.2669677734375,0.342529296875,-0.5174560546875,28.99169921875,89.78271484375,60.85205078125,-23.22998046875,56.89697265625,-3.759765625
13.435,0.2669677734375,0.342529296875,-0.5174560546875,73.54736328125,195.9228515625,37.04833984375,-19.4580078125,55.37109375,-4.638671875
13.479,-0.24560546875,0.1937255859375,-0.79296875,116.76025390625,35.70556640625,92.34619140625,-19.4580078125,55.37109375,-4.638671875
13.48,0.2623291015625,0.421875,-1.73095703125,116.76025390625,35.70556640625,92.34619140625,-19.4580078125,55.37109375,-4.638671875
13.524,0.2623291015625,0.421875,-1.73095703125,117.3095703125,27.2216796875,74.3408203125,-19.4580078125,55.37109375,-4.638671875
13.525,1.1539306640625,1.00439453125,-1.3900146484375,117.3095703125,27.2216796875,74.3408203125,-17.1630859375,56.40869140625,-2.55126953125
13.57,1.1539306640625,1.00439453125,-1.3900146484375,-14.892578125,28.38134765625,-12.20703125,-17.1630859375,56.40869140625,-2.55126953125
13.571,1.1539306640625,1.00439453125,-1.3900146484375,-14.892578125,28.38134765625,-12.20703125,-17.27294921875,56.54296875,-2.99072265625
13.572,-0.28369140625,0.24365234375,-0.8934326171875,-14.892578125,28.38134765625,-12.20703125,-17.27294921875,56.54296875,-2.99072265625
13.615,-0.28369140625,0.24365234375,-0.8934326171875,-39.00146484375,-25.45166015625,-7.87353515625,-17.27294921875,56.54296875,-2.99072265625
13.616,-0.258544921875,1.15869140625,0.3310546875,-39.00146484375,-25.45166015625,-7.87353515625,-17.61474609375,56.04248046875,-2.4169921875
13.659,-0.258544921875,1.15869140625,0.3310546875,-15.80810546875,-57.80029296875,4.8828125,-17.61474609375,56.04248046875,-2.4169921875
13.66,-0.0899658203125,0.39794921875,-0.5882568359375,-15.80810546875,-57.80029296875,4.8828125,-16.845703125,56.06689453125,-3.7841796875
13.704,-0.0899658203125,0.39794921875,-0.5882568359375,-44.49462890625,41.80908203125,64.453125,-16.845703125,56.06689453125,-3.7841796875
13.705,0.1131591796875,0.114501953125,-0.790283203125,-44.49462890625,41.80908203125,64.453125,-15.0634765625,56.6162109375,-4.65087890625
13.749,0.1131591796875,0.114501953125,-0.790283203125,-45.34912109375,60.05859375,127.9296875,-15.0634765625,56.6162109375,-4.65087890625
13.75,-0.07763671875,-0.1309814453125,-0.654052734375,-45.34912109375,60.05859375,127.9296875,-12.1826171875,57.51953125,-5.56640625
13.794,-0.07763671875,-0.1309814453125,-0.654052734375,-13.916015625,53.1005859375,113.1591796875,-12.1826171875,57.51953125,-5.56640625
13.795,0.015869140625,0.5712890625,-1.44970703125,80.6884765625,-17.9443359375,127.0751953125,-12.1826171875,57.51953125,-5.56640625
13.839,0.015869140625,0.5712890625,-1.44970703125,80.6884765625,-17.9443359375,127.0751953125,-9.41162109375,58.740234375,-5.46875
13.84,0.141845703125,1.1116943359375,-2.2962646484375,80.6884765625,-17.9443359375,127.0751953125,-9.41162109375,58.740234375,-5.46875
13.841,0.141845703125,1.1116943359375,-2.2962646484375,-137.8173828125,56.70166015625,101.74560546875,-9.41162109375,58.740234375,-5.46875
13.884,-0.193359375,0.47607421875,-1.314453125,-137.8173828125,56.70166015625,101.74560546875,-9.41162109375,58.740234375,-5.46875
13.885,-0.193359375,0.47607421875,-1.314453125,-57.7392578125,-21.91162109375,14.95361328125,-9.41162109375,58.740234375,-5.46875
13.886,-0.193359375,0.47607421875,-1.314453125,-57.7392578125,-21.91162109375,14.95361328125,-7.177734375,57.958984375,-7.3974609375
13.929,-0.3621826171875,1.0574951171875,-0.42333984375,-57.7392578125,-21.91162109375,14.95361328125,-7.177734375,57.958984375,-7.3974609375
13.93,-0.3621826171875,1.0574951171875,-0.42333984375,-17.333984375,-21.17919921875,-45.8984375,-7.275390625,56.92138671875,-7.8857421875
13.974,-1.065185546875,0.518798828125,-0.718994140625,-17.333984375,-21.17919921875,-45.8984375,-7.275390625,56.92138671875,-7.8857421875
13.975,-1.065185546875,0.518798828125,-0.718994140625,-2.44140625,14.22119140625,12.20703125,-7.470703125,56.689453125,-8.63037109375
14.019,-0.0936279296875,0.150146484375,-1.304931640625,6.34765625,-0.3662109375,44.37255859375,-7.470703125,56.689453125,-8.63037109375
14.02,-0.0936279296875,0.150146484375,-1.304931640625,6.34765625,-0.3662109375,44.37255859375,-7.50732421875,56.5185546875,-7.9833984375
14.064,0.6488037109375,0.3062744140625,-0.9871826171875,6.34765625,-0.3662109375,44.37255859375,-7.50732421875,56.5185546875,-7.9833984375
14.109,0.6488037109375,0.3062744140625,-0.9871826171875,-19.04296875,-13.00048828125,-31.67724609375,-7.50732421875,56.5185546875,-7.9833984375
14.11,0.7403564453125,0.0799560546875,-0.823974609375,-19.04296875,-13.00048828125,-31.67724609375,-7.2021484375,57.53173828125,-9.72900390625
14.155,0.7403564453125,0.0799560546875,-0.823974609375,-20.56884765625,-52.6123046875,-47.9736328125,-7.2021484375,57.53173828125,-9.72900390625
14.156,-0.2373046875,0.5784912109375,-0.2091064453125,-20.56884765625,-52.6123046875,-47.9736328125,-8.4716796875,56.2255859375,-9.6435546875
14.157,-0.2373046875,0.5784912109375,-0.2091064453125,-17.08984375,-23.681640625,0.18310546875,-8.4716796875,56.2255859375,-9.6435546875
14.199,-0.2373046875,0.5784912109375,-0.2091064453125,-17.08984375,-23.681640625,0.18310546875,-10.44921875,56.72607421875,-10.43701171875
14.2,-0.4322509765625,0.3746337890625,-0.3739013671875,13.36669921875,29.9072265625,2.685546875,-10.44921875,56.72607421875,-10.43701171875
14.244,-0.4322509765625,0.3746337890625,-0.3739013671875,13.36669921875,29.9072265625,2.685546875,-9.50927734375,56.26220703125,-9.4482421875
14.245,-0.35400390625,0.509033203125,-0.1484375,29.96826171875,32.77587890625,0.6103515625,-9.50927734375,56.26220703125,-9.4482421875
14.289,-0.1358642578125,0.4837646484375,-0.0430908203125,29.96826171875,32.77587890625,0.6103515625,-9.50927734375,56.26220703125,-9.4482421875
14.29,-0.1358642578125,0.4837646484375,-0.0430908203125,97.83935546875,190.12451171875,-50.9033203125,-9.92431640625,57.8125,-9.1796875
14.334,-0.23583984375,0.4671630859375,-0.409423828125,97.83935546875,190.12451171875,-50.9033203125,-9.92431640625,57.8125,-9.1796875
14.335,-0.23583984375,0.4671630859375,-0.409423828125,205.322265625,243.0419921875,-23.8037109375,-9.92431640625,57.8125,-9.1796875
14.336,-0.23583984375,0.4671630859375,-0.409423828125,205.322265625,243.0419921875,-23.8037109375,-8.935546875,58.55712890625,-7.33642578125
14.386,-0.68115234375,0.880126953125,-0.31982421875,205.322265625,243.0419921875,-23.8037109375,-8.935546875,58.55712890625,-7.33642578125
14.387,-0.68115234375,0.880126953125,-0.31982421875,381.04248046875,123.1689453125,-28.13720703125,-8.3984375,59.765625,-1.03759765625
14.424,-1.041259765625,1.1978759765625,-0.495361328125,381.04248046875,123.1689453125,-28.13720703125,-8.3984375,59.765625,-1.03759765625
14.425,-1.041259765625,1.1978759765625,-0.495361328125,489.56298828125,-21.240234375,-25.32958984375,-10.0830078125,58.36181640625,10.90087890625
14.469,-0.5482177734375,1.79296875,-0.4420166015625,366.63818359375,-34.11865234375,24.658203125,-10.0830078125,58.36181640625,10.90087890625
14.47,-0.5482177734375,1.79296875,-0.4420166015625,366.63818359375,-34.11865234375,24.658203125,-8.544921875,50.87890625,20.22705078125
14.514,-0.388671875,2.2021484375,-0.457763671875,366.63818359375,-34.11865234375,24.658203125,-8.544921875,50.87890625,20.22705078125
14.515,-0.388671875,2.2021484375,-0.457763671875,77.57568359375,-35.46142578125,40.6494140625,-7.3974609375,48.095703125,23.0224609375
14.559,0.1585693359375,1.9248046875,-0.4541015625,77.57568359375,-35.46142578125,40.6494140625,-7.3974609375,48.095703125,23.0224609375
14.56,-0.023681640625,1.6373291015625,0.0577392578125,-224.42626953125,156.8603515625,54.99267578125,-7.3974609375,48.095703125,23.0224609375
14.604,-0.023681640625,1.6373291015625,0.0577392578125,-224.42626953125,156.8603515625,54.99267578125,-8.99658203125,51.96533203125,20.5078125
14.605,-0.1607666015625,0.951171875,0.35546875,-224.42626953125,89.78271484375,-33.38623046875,-8.99658203125,51.96533203125,20.5078125
14.649,-0.1236572265625,0.899658203125,0.377197265625,-224.42626953125,89.78271484375,-33.38623046875,-8.99658203125,51.96533203125,20.5078125
14.65,-0.1236572265625,0.899658203125,0.377197265625,-157.958984375,166.6259765625,-74.40185546875,-11.5234375,55.712890625,14.94140625
14.694,-0.1212158203125,1.0281982421875,0.114013671875,-157.958984375,166.6259765625,-74.40185546875,-11.5234375,55.712890625,14.94140625
14.695,-0.1212158203125,1.0281982421875,0.114013671875,-159.912109375,173.9501953125,-98.14453125,-11.5234375,55.712890625,14.94140625
14.696,-0.1212158203125,1.0281982421875,0.114013671875,-159.912109375,173.9501953125,-98.14453125,-15.4296875,56.75048828125,10.11962890625
14.739,-0.34619140625,0.3826904296875,-0.16650390625,-159.912109375,173.9501953125,-98.14453125,-15.4296875,56.75048828125,10.11962890625
14.74,-0.34619140625,0.3826904296875,-0.16650390625,1.15966796875,33.935546875,-45.34912109375,-18.81103515625,57.2265625,5.92041015625
14.784,-0.226806640625,0.475341796875,-0.1197509765625,1.15966796875,33.935546875,-45.34912109375,-18.81103515625,57.2265625,5.92041015625
14.785,-0.226806640625,0.475341796875,-0.1197509765625,7.6904296875,-62.31689453125,9.8876953125,-19.23828125,56.34765625,6.25
14.829,-0.9794921875,0.9747314453125,-0.3497314453125,7.6904296875,-62.31689453125,9.8876953125,-19.23828125,56.34765625,6.25
14.83,-0.9794921875,0.9747314453125,-0.3497314453125,-118.83544921875,-93.75,57.06787109375,-18.83544921875,57.18994140625,4.9560546875
14.874,-0.6639404296875,0.77734375,-0.3895263671875,-118.83544921875,-93.75,57.06787109375,-18.83544921875,57.18994140625,4.9560546875
14.875,-0.6639404296875,0.77734375,-0.3895263671875,32.04345703125,-141.2353515625,120.05615234375,-15.90576171875,58.97216796875,4.5654296875
14.919,-0.25634765625,0.7320556640625,-0.3177490234375,43.0908203125,-168.39599609375,175.96435546875,-15.90576171875,58.97216796875,4.5654296875
14.92,-0.25634765625,0.7320556640625,-0.3177490234375,43.0908203125,-168.39599609375,175.96435546875,-10.24169921875,59.6435546875,7.94677734375
14.964,-0.3717041015625,1.3095703125,-0.24755859375,-9.765625,-87.40234375,163.9404296875,-10.24169921875,59.6435546875,7.94677734375
14.965,-0.201904296875,0.962158203125,-0.2373046875,-9.765625,-87.40234375,163.9404296875,-10.24169921875,59.6435546875,7.94677734375
15.009,-0.201904296875,0.962158203125,-0.2373046875,-15.625,-37.53662109375,119.384765625,-5.712890625,59.86328125,7.0068359375
15.01,-0.4095458984375,0.980712890625,-0.240966796875,-15.625,-37.53662109375,119.384765625,-5.712890625,59.86328125,7.0068359375
15.037,-0.4095458984375,0.980712890625,-0.240966796875,-15.625,-37.53662109375,119.384765625,-5.712890625,59.86328125,7.0068359375
15.054,-0.4095458984375,0.980712890625,-0.240966796875,-53.3447265625,28.13720703125,12.3291015625,-5.712890625,59.86328125,7.0068359375
15.055,-0.3671875,0.798828125,-0.283447265625,-53.3447265625,28.13720703125,12.3291015625,-5.04150390625,60.41259765625,5.89599609375
15.099,-0.3671875,0.798828125,-0.283447265625,-22.15576171875,50.23193359375,-75.5615234375,-5.04150390625,60.41259765625,5.89599609375
15.1,-0.1744384765625,0.92822265625,-0.3692626953125,-22.15576171875,50.23193359375,-75.5615234375,-7.40966796875,60.44921875,6.3720703125
15.128,-0.1744384765625,0.92822265625,-0.3692626953125,-22.15576171875,50.23193359375,-75.5615234375,-7.40966796875,60.44921875,6.3720703125
15.144,-0.1744384765625,0.92822265625,-0.3692626953125,6.40869140625,-25.7568359375,-111.6943359375,-7.40966796875,60.44921875,6.3720703125
15.145,-0.2528076171875,0.96728515625,-0.370849609375,6.40869140625,-25.7568359375,-111.6943359375,-9.46044921875,60.6201171875,6.45751953125
15.189,-0.2528076171875,0.96728515625,-0.370849609375,55.23681640625,11.8408203125,-58.04443359375,-9.46044921875,60.6201171875,6.45751953125
15.19,-0.131591796875,0.892578125,-0.396728515625,55.23681640625,11.8408203125,-58.04443359375,-11.962890625,60.07080078125,8.1787109375
15.219,-0.131591796875,0.892578125,-0.396728515625,55.23681640625,11.8408203125,-58.04443359375,-11.962890625,60.07080078125,8.1787109375
15.235,-0.131591796875,0.892578125,-0.396728515625,6.40869140625,65.91796875,-49.74365234375,-12.548828125,59.912109375,7.40966796875
15.236,-0.3409423828125,1.102783203125,-0.392333984375,6.40869140625,65.91796875,-49.74365234375,-12.548828125,59.912109375,7.40966796875
15.28,-0.3409423828125,1.102783203125,-0.392333984375,3.23486328125,27.77099609375,5.615234375,-12.48779296875,59.04541015625,8.0078125
15.281,-0.138671875,0.8482666015625,-0.3780517578125,3.23486328125,27.77099609375,5.615234375,-12.48779296875,59.04541015625,8.0078125
15.325,-0.1431884765625,0.829345703125,-0.426025390625,3.662109375,-21.54541015625,-19.95849609375,-12.48779296875,59.04541015625,8.0078125
15.326,-0.1431884765625,0.829345703125,-0.426025390625,17.333984375,-12.39013671875,-46.08154296875,-12.48779296875,59.04541015625,8.0078125
15.332,-0.1431884765625,0.829345703125,-0.426025390625,17.333984375,-12.39013671875,-46.08154296875,-12.48779296875,59.04541015625,8.0078125
15.369,-0.1431884765625,0.829345703125,-0.426025390625,17.333984375,-12.39013671875,-46.08154296875,-13.97705078125,58.80126953125,8.14208984375
15.37,-0.1195068359375,0.7943115234375,-0.403076171875,5.31005859375,-16.9677734375,-30.70068359375,-13.97705078125,58.80126953125,8.14208984375
15.414,-0.1195068359375,0.7943115234375,-0.403076171875,11.474609375,-9.33837890625,-30.8837890625,-14.24560546875,59.326171875,8.8134765625
15.415,-0.153076171875,0.880859375,-0.4085693359375,11.474609375,-9.33837890625,-30.8837890625,-14.24560546875,59.326171875,8.8134765625
15.426,-0.153076171875,0.880859375,-0.4085693359375,11.474609375,-9.33837890625,-30.8837890625,-14.24560546875,59.326171875,8.8134765625
15.459,-0.153076171875,0.880859375,-0.4085693359375,20.44677734375,9.21630859375,-27.83203125,-14.24560546875,59.326171875,8.8134765625
15.46,-0.20068359375,0.8780517578125,-0.4495849609375,20.44677734375,9.21630859375,-27.83203125,-14.74609375,58.14208984375,9.8388671875
15.504,-0.20068359375,0.8780517578125,-0.4495849609375,5.06591796875,8.60595703125,-13.85498046875,-14.74609375,58.14208984375,9.8388671875
15.505,-0.1549072265625,1.04345703125,-0.440185546875,5.06591796875,8.60595703125,-13.85498046875,-15.73486328125,58.36181640625,9.8876953125
15.515,-0.1549072265625,1.04345703125,-0.440185546875,5.06591796875,8.60595703125,-13.85498046875,-15.73486328125,58.36181640625,9.8876953125
15.549,-0.1549072265625,1.04345703125,-0.440185546875,0.8544921875,-23.3154296875,-16.78466796875,-15.771484375,58.2275390625,8.48388671875
15.55,-0.2763671875,0.9276123046875,-0.3829345703125,0.8544921875,-23.3154296875,-16.78466796875,-15.771484375,58.2275390625,8.48388671875
15.594,-0.2763671875,0.9276123046875,-0.3829345703125,-43.212890625,19.34814453125,54.26025390625,-15.771484375,58.2275390625,8.48388671875
15.595,-0.1865234375,0.9967041015625,-0.244140625,-43.212890625,19.34814453125,54.26025390625,-15.13671875,59.11865234375,8.3740234375
15.635,-0.1865234375,0.9967041015625,-0.244140625,-43.212890625,19.34814453125,54.26025390625,-15.13671875,59.11865234375,8.3740234375
15.639,-0.1865234375,0.9967041015625,-0.244140625,-17.333984375,-27.40478515625,24.0478515625,-15.13671875,59.11865234375,8.3740234375
15.64,-0.1865234375,1.0439453125,-0.2100830078125,-17.333984375,-27.40478515625,24.0478515625,-14.7705078125,59.3505859375,9.3017578125
15.684,-0.1865234375,1.0439453125,-0.2100830078125,3.5400390625,-28.62548828125,16.54052734375,-14.7705078125,59.3505859375,9.3017578125
15.685,-0.135498046875,1.076904296875,-0.214599609375,-7.080078125,-28.076171875,19.775390625,-14.7705078125,59.3505859375,9.3017578125
15.722,-0.135498046875,1.076904296875,-0.214599609375,-7.080078125,-28.076171875,19.775390625,-14.7705078125,59.3505859375,9.3017578125
15.729,-0.135498046875,1.076904296875,-0.214599609375,-7.080078125,-28.076171875,19.775390625,-13.427734375,59.2529296875,8.97216796875
15.73,0.0377197265625,1.0372314453125,-0.296875,-10.92529296875,1.28173828125,-16.11328125,-13.427734375,59.2529296875,8.97216796875
15.774,0.050537109375,1.047119140625,-0.290771484375,-10.92529296875,1.28173828125,-16.11328125,-13.427734375,59.2529296875,8.97216796875
15.775,0.050537109375,1.047119140625,-0.290771484375,-85.38818359375,116.76025390625,-40.46630859375,-13.92822265625,58.9599609375,7.5927734375
15.812,0.050537109375,1.047119140625,-0.290771484375,-85.38818359375,116.76025390625,-40.46630859375,-13.92822265625,58.9599609375,7.5927734375
15.819,-0.0997314453125,1.02685546875,-0.36328125,-85.38818359375,116.76025390625,-40.46630859375,-13.92822265625,58.9599609375,7.5927734375
15.82,-0.0997314453125,1.02685546875,-0.36328125,-146.91162109375,153.1982421875,-79.65087890625,-15.68603515625,60.21728515625,4.45556640625
15.867,-0.2220458984375,0.8603515625,-0.3720703125,-100.40283203125,116.39404296875,-65.91796875,-15.68603515625,60.21728515625,4.45556640625
15.868,-0.2220458984375,0.8603515625,-0.3720703125,-100.40283203125,116.39404296875,-65.91796875,-17.66357421875,59.38720703125,0.3662109375
15.91,-0.17626953125,0.723388671875,-0.4320068359375,-9.09423828125,86.7919921875,-69.27490234375,-17.66357421875,59.38720703125,0.3662109375
15.911,-0.17626953125,0.723388671875,-0.4320068359375,-9.09423828125,86.7919921875,-69.27490234375,-19.59228515625,57.97119140625,-3.125
15.932,-0.17626953125,0.723388671875,-0.4320068359375,-9.09423828125,86.7919921875,-69.27490234375,-19.59228515625,57.97119140625,-3.125
15.954,-0.19580078125,0.62060546875,-0.5015869140625,-9.09423828125,86.7919921875,-69.27490234375,-19.59228515625,57.97119140625,-3.125
15.955,-0.19580078125,0.62060546875,-0.5015869140625,100.28076171875,81.84814453125,23.86474609375,-19.82421875,57.50732421875,-2.40478515625
15.999,-0.536865234375,0.824462890625,-0.6485595703125,54.19921875,-15.80810546875,31.73828125,-19.82421875,57.50732421875,-2.40478515625
16.0,-0.536865234375,0.824462890625,-0.6485595703125,54.19921875,-15.80810546875,31.73828125,-19.53125,58.5693359375,-0.76904296875
16.028,-0.536865234375,0.824462890625,-0.6485595703125,54.19921875,-15.80810546875,31.73828125,-19.53125,58.5693359375,-0.76904296875
16.044,-0.3282470703125,0.6328125,-0.5238037109375,85.87646484375,-24.59716796875,58.837890625,-19.53125,58.5693359375,-0.76904296875
16.045,-0.3282470703125,0.6328125,-0.5238037109375,85.87646484375,-24.59716796875,58.837890625,-17.6025390625,59.3017578125,2.9541015625
16.089,-0.3907470703125,0.89990234375,-0.559814453125,85.87646484375,-24.59716796875,58.837890625,-17.6025390625,59.3017578125,2.9541015625
16.09,-0.3907470703125,0.89990234375,-0.559814453125,36.56005859375,-31.6162109375,57.9833984375,-17.6025390625,59.3017578125,2.9541015625
16.115,-0.3907470703125,0.89990234375,-0.559814453125,36.56005859375,-31.6162109375,57.9833984375,-17.6025390625,59.3017578125,2.9541015625
16.134,-0.4312744140625,0.9134521484375,-0.5496826171875,36.56005859375,-31.6162109375,57.9833984375,-17.6025390625,59.3017578125,2.9541015625
16.135,-0.443115234375,0.9444580078125,-0.4991455078125,36.56005859375,-31.6162109375,57.9833984375,-17.6025390625,59.3017578125,2.9541015625
16.136,-0.443115234375,0.9444580078125,-0.4991455078125,41.50390625,-60.791015625,73.42529296875,-17.6025390625,59.3017578125,2.9541015625
16.179,-0.443115234375,0.9444580078125,-0.4991455078125,41.50390625,-60.791015625,73.42529296875,-16.3330078125,59.19189453125,2.40478515625
16.18,-0.2581787109375,0.895751953125,-0.51025390625,-35.400390625,-0.91552734375,24.59716796875,-16.3330078125,59.19189453125,2.40478515625
16.224,-0.2581787109375,0.895751953125,-0.51025390625,-35.400390625,-0.91552734375,24.59716796875,-14.31884765625,59.14306640625,3.1005859375
16.225,-0.385498046875,1.0721435546875,-0.4034423828125,-56.09130859375,-13.12255859375,17.51708984375,-14.31884765625,59.14306640625,3.1005859375
16.234,-0.385498046875,1.0721435546875,-0.4034423828125,-56.09130859375,-13.12255859375,17.51708984375,-14.31884765625,59.14306640625,3.1005859375
16.269,-0.385498046875,1.0721435546875,-0.4034423828125,-56.09130859375,-13.12255859375,17.51708984375,-13.85498046875,60.31494140625,3.38134765625
16.27,-0.3836669921875,0.6884765625,-0.3338623046875,-69.580078125,-2.197265625,4.08935546875,-13.85498046875,60.31494140625,3.38134765625
16.314,-0.3836669921875,0.6884765625,-0.3338623046875,-69.580078125,-2.197265625,4.08935546875,-13.41552734375,60.09521484375,1.74560546875
16.315,-0.387939453125,0.6207275390625,-0.3265380859375,22.94921875,-9.033203125,49.6826171875,-13.41552734375,60.09521484375,1.74560546875
16.321,-0.387939453125,0.6207275390625,-0.3265380859375,22.94921875,-9.033203125,49.6826171875,-13.41552734375,60.09521484375,1.74560546875
16.359,-0.4140625,0.5982666015625,-0.32958984375,22.94921875,-9.033203125,49.6826171875,-13.0859375,60.09521484375,-0.1953125
16.361,-0.4140625,0.5982666015625,-0.32958984375,91.6748046875,-16.90673828125,59.75341796875,-13.0859375,60.09521484375,-0.1953125
16.404,-0.4140625,0.5982666015625,-0.32958984375,91.6748046875,-16.90673828125,59.75341796875,-11.99951171875,60.9375,1.7578125
16.405,-0.56640625,0.7900390625,-0.3154296875,209.89990234375,-107.11669921875,45.0439453125,-11.99951171875,60.9375,1.7578125
16.418,-0.56640625,0.7900390625,-0.3154296875,209.89990234375,-107.11669921875,45.0439453125,-11.99951171875,60.9375,1.7578125
16.457,-0.56640625,0.7900390625,-0.3154296875,209.89990234375,-107.11669921875,45.0439453125,-9.36279296875,59.68017578125,7.373046875
16.458,-0.425048828125,0.951416015625,-0.2738037109375,191.46728515625,-125.1220703125,41.68701171875,-9.36279296875,59.68017578125,7.373046875
16.495,-0.425048828125,0.951416015625,-0.2738037109375,176.81884765625,-120.66650390625,36.43798828125,-9.36279296875,59.68017578125,7.373046875
16.496,-0.395263671875,1.3204345703125,-0.1766357421875,176.81884765625,-120.66650390625,36.43798828125,-7.1533203125,58.33740234375,12.6220703125
16.537,-0.395263671875,1.3204345703125,-0.1766357421875,176.81884765625,-120.66650390625,36.43798828125,-7.1533203125,58.33740234375,12.6220703125
16.539,-0.395263671875,1.3204345703125,-0.1766357421875,96.923828125,-47.8515625,17.578125,-6.43310546875,57.01904296875,15.087890625
16.54,-0.35107421875,0.923583984375,-0.083984375,96.923828125,-47.8515625,17.578125,-6.43310546875,57.01904296875,15.087890625
16.584,-0.35107421875,0.923583984375,-0.083984375,-51.26953125,-3.23486328125,40.8935546875,-6.43310546875,57.01904296875,15.087890625
16.585,-0.35107421875,0.923583984375,-0.083984375,-51.26953125,-3.23486328125,40.8935546875,-5.50537109375,56.89697265625,12.1826171875
16.586,-0.439453125,0.813232421875,-0.1412353515625,-51.26953125,-3.23486328125,40.8935546875,-5.50537109375,56.89697265625,12.1826171875
16.629,-0.439453125,0.813232421875,-0.1412353515625,-15.9912109375,43.5791015625,-14.95361328125,-5.50537109375,56.89697265625,12.1826171875
16.63,-0.4957275390625,1.069091796875,-0.0589599609375,-15.9912109375,43.5791015625,-14.95361328125,-6.3232421875,57.45849609375,13.34228515625
16.655,-0.4957275390625,1.069091796875,-0.0589599609375,-15.9912109375,43.5791015625,-14.95361328125,-6.3232421875,57.45849609375,13.34228515625
16.674,-0.4957275390625,1.069091796875,-0.0589599609375,14.34326171875,33.203125,-7.32421875,-5.48095703125,58.4716796875,11.92626953125
16.675,-0.3861083984375,0.9820556640625,-0.2984619140625,14.34326171875,33.203125,-7.32421875,-5.48095703125,58.4716796875,11.92626953125
16.712,-0.3861083984375,0.9820556640625,-0.2984619140625,14.34326171875,33.203125,-7.32421875,-5.48095703125,58.4716796875,11.92626953125
16.719,-0.3861083984375,0.9820556640625,-0.2984619140625,-72.509765625,-17.02880859375,34.24072265625,-5.712890625,59.1552734375,11.63330078125
16.72,-0.3123779296875,0.7755126953125,-0.2161865234375,-72.509765625,-17.02880859375,34.24072265625,-5.712890625,59.1552734375,11.63330078125
16.764,-0.3123779296875,0.7755126953125,-0.2161865234375,-76.59912109375,55.96923828125,-41.50390625,-5.712890625,59.1552734375,11.63330078125
16.765,-0.4305419921875,0.8758544921875,-0.172119140625,-14.09912109375,118.896484375,-93.32275390625,-5.712890625,59.1552734375,11.63330078125
16.809,-0.4305419921875,0.8758544921875,-0.172119140625,-14.09912109375,118.896484375,-93.32275390625,-8.0322265625,59.31396484375,10.29052734375
16.81,-0.5244140625,0.7305908203125,-0.1617431640625,-20.751953125,51.20849609375,-14.58740234375,-8.0322265625,59.31396484375,10.29052734375
16.833,-0.5244140625,0.7305908203125,-0.1617431640625,-20.751953125,51.20849609375,-14.58740234375,-8.0322265625,59.31396484375,10.29052734375
16.854,-0.5244140625,0.7305908203125,-0.1617431640625,-20.751953125,51.20849609375,-14.58740234375,-10.11962890625,59.033203125,9.24072265625
16.855,-0.476806640625,0.7296142578125,-0.2838134765625,36.19384765625,-14.7705078125,-9.09423828125,-10.11962890625,59.033203125,9.24072265625
16.899,-0.4141845703125,0.8157958984375,-0.270751953125,43.45703125,-3.72314453125,-13.24462890625,-10.11962890625,59.033203125,9.24072265625
16.9,-0.4141845703125,0.8157958984375,-0.270751953125,43.45703125,-3.72314453125,-13.24462890625,-10.43701171875,58.94775390625,10.21728515625
16.928,-0.4141845703125,0.8157958984375,-0.270751953125,43.45703125,-3.72314453125,-13.24462890625,-10.43701171875,58.94775390625,10.21728515625
16.945,-0.39697265625,0.97802734375,-0.2218017578125,43.45703125,-3.72314453125,-13.24462890625,-10.43701171875,58.94775390625,10.21728515625
16.989,-0.39697265625,0.97802734375,-0.2218017578125,-13.85498046875,-12.75634765625,21.91162109375,-10.5712890625,58.4716796875,10.55908203125
16.99,-0.3671875,0.8736572265625,-0.220458984375,-13.85498046875,-12.75634765625,21.91162109375,-10.5712890625,58.4716796875,10.55908203125
16.991,-0.3671875,0.8736572265625,-0.220458984375,-11.5966796875,17.7001953125,-4.5166015625,-10.5712890625,58.4716796875,10.55908203125
17.012,-0.3671875,0.8736572265625,-0.220458984375,-11.5966796875,17.7001953125,-4.5166015625,-10.5712890625,58.4716796875,10.55908203125
17.035,-0.4434814453125,0.8404541015625,-0.165771484375,-11.5966796875,17.7001953125,-4.5166015625,-10.6201171875,58.837890625,9.716796875
17.036,-0.4434814453125,0.8404541015625,-0.165771484375,14.09912109375,-0.6103515625,-7.2021484375,-10.6201171875,58.837890625,9.716796875
17.08,-0.391357421875,0.9833984375,-0.19580078125,14.09912109375,-0.6103515625,-7.2021484375,-10.3759765625,58.5205078125,10.2294921875
17.081,-0.391357421875,0.9833984375,-0.19580078125,15.13671875,-11.1083984375,2.0751953125,-10.3759765625,58.5205078125,10.2294921875
17.124,-0.391357421875,0.9833984375,-0.19580078125,15.13671875,-11.1083984375,2.0751953125,-10.5224609375,58.49609375,10.26611328125
17.125,-0.3433837890625,0.9241943359375,-0.17822265625,-15.5029296875,20.6298828125,-3.173828125,-10.5224609375,58.49609375,10.26611328125
17.132,-0.3433837890625,0.9241943359375,-0.17822265625,-15.5029296875,20.6298828125,-3.173828125,-10.5224609375,58.49609375,10.26611328125
17.169,-0.3433837890625,0.9241943359375,-0.17822265625,-15.5029296875,20.6298828125,-3.173828125,-10.77880859375,58.99658203125,11.04736328125
17.17,-0.4317626953125,0.8359375,-0.1422119140625,-3.662109375,12.26806640625,-4.33349609375,-10.77880859375,58.99658203125,11.04736328125
17.214,-0.4317626953125,0.8359375,-0.1422119140625,-3.662109375,12.26806640625,-4.33349609375,-11.07177734375,58.94775390625,9.94873046875
17.215,-0.42578125,0.9222412109375,-0.1676025390625,22.03369140625,-14.6484375,5.859375,-11.07177734375,58.94775390625,9.94873046875
17.221,-0.42578125,0.9222412109375,-0.1676025390625,22.03369140625,-14.6484375,5.859375,-11.07177734375,58.94775390625,9.94873046875
17.259,-0.375244140625,0.941162109375,-0.1973876953125,22.03369140625,-14.6484375,5.859375,-11.07177734375,58.94775390625,9.94873046875
17.26,-0.375244140625,0.941162109375,-0.1973876953125,5.79833984375,-3.173828125,5.55419921875,-10.9130859375,58.28857421875,11.0107421875
17.304,-0.36181640625,0.9268798828125,-0.1949462890625,5.79833984375,-3.173828125,5.55419921875,-10.9130859375,58.28857421875,11.0107421875
17.305,-0.36181640625,0.9268798828125,-0.1949462890625,0.6103515625,-0.244140625,1.220703125,-11.23046875,58.06884765625,11.474609375
17.311,-0.36181640625,0.9268798828125,-0.1949462890625,0.6103515625,-0.244140625,1.220703125,-11.23046875,58.06884765625,11.474609375
17.349,-0.37158203125,0.8961181640625,-0.14892578125,10.1318359375,-0.1220703125,1.03759765625,-11.23046875,58.06884765625,11.474609375
17.35,-0.37158203125,0.8961181640625,-0.14892578125,10.1318359375,-0.1220703125,1.03759765625,-10.77880859375,58.203125,11.62109375
17.394,-0.386474609375,0.9385986328125,-0.151611328125,10.1318359375,-0.1220703125,1.03759765625,-10.77880859375,58.203125,11.62109375
17.395,-0.386474609375,0.9385986328125,-0.151611328125,3.5400390625,-3.35693359375,1.220703125,-10.3271484375,58.3740234375,10.53466796875
17.434,-0.386474609375,0.9385986328125,-0.151611328125,3.5400390625,-3.35693359375,1.220703125,-10.3271484375,58.3740234375,10.53466796875
17.439,-0.3609619140625,0.938720703125,-0.1876220703125,3.5400390625,-3.35693359375,1.220703125,-10.3271484375,58.3740234375,10.53466796875
17.44,-0.3609619140625,0.938720703125,-0.1876220703125,-2.0751953125,3.60107421875,-2.99072265625,-10.5712890625,58.70361328125,12.14599609375
17.484,-0.376953125,0.9298095703125,-0.176025390625,-8.36181640625,7.9345703125,-4.08935546875,-10.5712890625,58.70361328125,12.14599609375
17.485,-0.376953125,0.9298095703125,-0.176025390625,-8.36181640625,7.9345703125,-4.08935546875,-11.328125,58.23974609375,10.83984375
17.529,-0.3978271484375,0.9014892578125,-0.16064453125,-8.36181640625,7.9345703125,-4.08935546875,-11.328125,58.23974609375,10.83984375
17.53,-0.414794921875,0.8856201171875,-0.143798828125,3.90625,-1.3427734375,-2.5634765625,-11.328125,58.23974609375,10.83984375
17.555,-0.414794921875,0.8856201171875,-0.143798828125,3.90625,-1.3427734375,-2.5634765625,-11.328125,58.23974609375,10.83984375
17.574,-0.414794921875,0.8856201171875,-0.143798828125,7.62939453125,-3.47900390625,-2.197265625,-11.328125,58.23974609375,10.83984375
17.575,-0.3829345703125,0.9105224609375,-0.1669921875,7.62939453125,-3.47900390625,-2.197265625,-11.26708984375,58.04443359375,11.63330078125
17.616,-0.3829345703125,0.9105224609375,-0.1669921875,7.62939453125,-3.47900390625,-2.197265625,-11.26708984375,58.04443359375,11.63330078125
17.619,-0.3829345703125,0.9105224609375,-0.1669921875,11.53564453125,-12.939453125,3.47900390625,-10.92529296875,58.0078125,11.73095703125
17.62,-0.3665771484375,0.92822265625,-0.163818359375,11.53564453125,-12.939453125,3.47900390625,-10.92529296875,58.0078125,11.73095703125
17.654,-0.3665771484375,0.92822265625,-0.163818359375,11.53564453125,-12.939453125,3.47900390625,-10.92529296875,58.0078125,11.73095703125
17.664,-0.3665771484375,0.92822265625,-0.163818359375,-5.126953125,-0.06103515625,2.44140625,-10.58349609375,58.72802734375,11.34033203125
17.665,-0.4012451171875,0.8892822265625,-0.11669921875,-5.126953125,-0.06103515625,2.44140625,-10.58349609375,58.72802734375,11.34033203125
17.71,-0.4012451171875,0.8892822265625,-0.11669921875,2.197265625,1.46484375,0.8544921875,-10.58349609375,58.72802734375,11.34033203125
17.711,-0.3746337890625,0.909912109375,-0.134033203125,2.197265625,1.46484375,0.8544921875,-11.1328125,58.3740234375,11.6455078125
17.736,-0.3746337890625,0.909912109375,-0.134033203125,2.197265625,1.46484375,0.8544921875,-11.1328125,58.3740234375,11.6455078125
17.755,-0.3746337890625,0.909912109375,-0.134033203125,10.6201171875,-4.8828125,2.197265625,-11.181640625,58.10546875,11.26708984375
17.756,-0.3447265625,0.9383544921875,-0.142333984375,10.6201171875,-4.8828125,2.197265625,-11.181640625,58.10546875,11.26708984375
17.768,-0.3447265625,0.9383544921875,-0.142333984375,10.6201171875,-4.8828125,2.197265625,-11.181640625,58.10546875,11.26708984375
17.8,-0.3447265625,0.9383544921875,-0.142333984375,-3.173828125,-1.15966796875,4.0283203125,-11.181640625,58.10546875,11.26708984375
17.801,-0.3717041015625,0.9132080078125,-0.1181640625,-3.173828125,-1.15966796875,4.0283203125,-10.80322265625,58.67919921875,12.36572265625
17.82,-0.3717041015625,0.9132080078125,-0.1181640625,-3.173828125,-1.15966796875,4.0283203125,-10.80322265625,58.67919921875,12.36572265625
17.845,-0.3717041015625,0.9132080078125,-0.1181640625,-2.0751953125,8.1787109375,-0.9765625,-10.80322265625,58.67919921875,12.36572265625
17.846,-0.3834228515625,0.9024658203125,-0.1556396484375,7.080078125,-2.9296875,0.0,-10.80322265625,58.67919921875,12.36572265625
17.858,-0.3834228515625,0.9024658203125,-0.1556396484375,7.080078125,-2.9296875,0.0,-10.80322265625,58.67919921875,12.36572265625
17.89,-0.3834228515625,0.9024658203125,-0.1556396484375,7.080078125,-2.9296875,0.0,-11.2548828125,58.36181640625,12.01171875
17.891,-0.3575439453125,0.935546875,-0.176513671875,1.40380859375,-2.38037109375,-0.3662109375,-11.2548828125,58.36181640625,12.01171875
17.911,-0.3575439453125,0.935546875,-0.176513671875,1.40380859375,-2.38037109375,-0.3662109375,-11.2548828125,58.36181640625,12.01171875
17.935,-0.3829345703125,0.908447265625,-0.1474609375,1.40380859375,-2.38037109375,-0.3662109375,-11.24267578125,58.1787109375,12.646484375
17.936,-0.3829345703125,0.908447265625,-0.1474609375,0.18310546875,-0.732421875,-2.01416015625,-11.24267578125,58.1787109375,12.646484375
17.952,-0.3829345703125,0.908447265625,-0.1474609375,0.18310546875,-0.732421875,-2.01416015625,-11.24267578125,58.1787109375,12.646484375
17.98,-0.3770751953125,0.91162109375,-0.142822265625,0.18310546875,-0.732421875,-2.01416015625,-11.24267578125,58.1787109375,12.646484375
17.981,-0.3770751953125,0.91162109375,-0.142822265625,2.0751953125,-1.220703125,-2.62451171875,-11.24267578125,58.1787109375,12.646484375
17.982,-0.3770751953125,0.91162109375,-0.142822265625,2.0751953125,-1.220703125,-2.62451171875,-10.83984375,58.1298828125,12.158203125
18.025,-0.3751220703125,0.9122314453125,-0.1363525390625,2.0751953125,-1.220703125,-2.62451171875,-10.83984375,58.1298828125,12.158203125
18.026,-0.3751220703125,0.9122314453125,-0.1363525390625,0.30517578125,-1.3427734375,-2.13623046875,-10.92529296875,58.09326171875,11.77978515625
18.027,-0.3751220703125,0.9122314453125,-0.1363525390625,0.30517578125,-1.3427734375,-2.13623046875,-10.92529296875,58.09326171875,11.77978515625
18.04,-0.3751220703125,0.9122314453125,-0.1363525390625,0.30517578125,-1.3427734375,-2.13623046875,-10.92529296875,58.09326171875,11.77978515625
18.069,-0.38330078125,0.9171142578125,-0.148193359375,0.30517578125,-1.3427734375,-2.13623046875,-10.92529296875,58.09326171875,11.77978515625
18.07,-0.38330078125,0.9171142578125,-0.148193359375,-2.74658203125,0.1220703125,-0.91552734375,-10.888671875,58.4228515625,12.4267578125
18.116,-0.3780517578125,0.899658203125,-0.12744140625,1.28173828125,0.67138671875,-1.64794921875,-11.1572265625,58.3984375,11.9140625
18.122,-0.3780517578125,0.899658203125,-0.12744140625,1.28173828125,0.67138671875,-1.64794921875,-11.1572265625,58.3984375,11.9140625
18.158,-0.3780517578125,0.899658203125,-0.12744140625,1.28173828125,0.67138671875,-1.64794921875,-11.1572265625,58.3984375,11.9140625
18.16,-0.3902587890625,0.896240234375,-0.131591796875,2.62451171875,-2.01416015625,1.52587890625,-11.3037109375,58.14208984375,12.04833984375
18.206,-0.401611328125,0.9014892578125,-0.1568603515625,-1.5869140625,-1.5869140625,2.197265625,-10.9375,58.056640625,12.70751953125
18.211,-0.401611328125,0.9014892578125,-0.1568603515625,-1.5869140625,-1.5869140625,2.197265625,-10.9375,58.056640625,12.70751953125
18.247,-0.401611328125,0.9014892578125,-0.1568603515625,-1.5869140625,-1.5869140625,2.197265625,-10.9375,58.056640625,12.70751953125
18.251,-0.380126953125,0.91064453125,-0.1248779296875,0.48828125,-1.64794921875,2.0751953125,-10.9375,58.056640625,12.70751953125
18.252,-0.380126953125,0.91064453125,-0.1248779296875,0.48828125,-1.64794921875,2.0751953125,-11.1572265625,57.958984375,12.3779296875
18.295,-0.3763427734375,0.903564453125,-0.1190185546875,0.48828125,-1.64794921875,2.0751953125,-11.1572265625,57.958984375,12.3779296875
18.296,-0.3763427734375,0.9112548828125,-0.1561279296875,-2.0751953125,0.244140625,2.8076171875,-11.1572265625,57.958984375,12.3779296875
18.333,-0.3763427734375,0.9112548828125,-0.1561279296875,-2.0751953125,0.244140625,2.8076171875,-11.1572265625,57.958984375,12.3779296875
18.34,-0.3763427734375,0.9112548828125,-0.1561279296875,-2.9296875,1.220703125,2.99072265625,-11.1572265625,57.958984375,12.3779296875
18.341,-0.369873046875,0.9176025390625,-0.1419677734375,-2.9296875,1.220703125,2.99072265625,-11.14501953125,58.0322265625,12.3046875
18.342,-0.369873046875,0.9176025390625,-0.1419677734375,-2.9296875,1.220703125,2.99072265625,-11.14501953125,58.0322265625,12.3046875
18.385,-0.370849609375,0.8988037109375,-0.1456298828125,0.1220703125,0.6103515625,0.8544921875,-11.083984375,58.30078125,13.18359375
18.417,-0.370849609375,0.8988037109375,-0.1456298828125,0.1220703125,0.6103515625,0.8544921875,-11.083984375,58.30078125,13.18359375
18.429,-0.370849609375,0.8988037109375,-0.1456298828125,-0.9765625,0.3662109375,1.40380859375,-11.083984375,58.30078125,13.18359375
18.43,-0.3797607421875,0.9072265625,-0.136962890625,-0.9765625,0.3662109375,1.40380859375,-11.21826171875,57.7880859375,12.51220703125
18.458,-0.3797607421875,0.9072265625,-0.136962890625,-0.9765625,0.3662109375,1.40380859375,-11.21826171875,57.7880859375,12.51220703125
18.474,-0.3797607421875,0.9072265625,-0.136962890625,-0.18310546875,-0.30517578125,2.01416015625,-11.21826171875,57.7880859375,12.51220703125
18.475,-0.3756103515625,0.9422607421875,-0.158447265625,-0.18310546875,-0.30517578125,2.01416015625,-11.3037109375,58.23974609375,12.63427734375
18.512,-0.3756103515625,0.9422607421875,-0.158447265625,-0.18310546875,-0.30517578125,2.01416015625,-11.3037109375,58.23974609375,12.63427734375
18.535,-0.3756103515625,0.9422607421875,-0.158447265625,-0.244140625,0.732421875,1.28173828125,-11.26708984375,57.8857421875,12.65869140625
18.536,-0.3822021484375,0.9337158203125,-0.143798828125,-0.244140625,0.732421875,1.28173828125,-11.26708984375,57.8857421875,12.65869140625
18.552,-0.3822021484375,0.9337158203125,-0.143798828125,-0.244140625,0.732421875,1.28173828125,-11.26708984375,57.8857421875,12.65869140625
18.565,-0.3685302734375,0.9383544921875,-0.1094970703125,-4.150390625,1.5869140625,1.40380859375,-10.26611328125,58.21533203125,12.841796875
18.61,-0.3685302734375,0.9383544921875,-0.1094970703125,0.06103515625,-1.46484375,1.64794921875,-10.26611328125,58.21533203125,12.841796875
18.611,-0.34814453125,0.90576171875,-0.111083984375,0.06103515625,-1.46484375,1.64794921875,-10.97412109375,58.04443359375,11.80419921875
