elapsed_time,ax,ay,az,gx,gy,gz,mx,my,mz
0.0,-0.03125,0.9871826171875,-0.1234130859375,-0.79345703125,-0.54931640625,0.30517578125,12.4267578125,57.7880859375,31.55517578125
0.0,-0.035888671875,0.9891357421875,-0.1251220703125,-0.79345703125,-0.54931640625,0.30517578125,12.4267578125,57.7880859375,31.55517578125
0.0,-0.0360107421875,0.98828125,-0.12548828125,-0.79345703125,-0.54931640625,0.30517578125,12.4267578125,57.7880859375,31.55517578125
0.029,-0.0367431640625,0.9884033203125,-0.1240234375,-0.79345703125,-0.54931640625,0.30517578125,12.4267578125,57.7880859375,31.55517578125
0.03,-0.0377197265625,0.98828125,-0.1236572265625,-0.79345703125,-0.54931640625,0.30517578125,12.4267578125,57.7880859375,31.55517578125
0.03,-0.0369873046875,0.98828125,-0.118408203125,-0.79345703125,-0.54931640625,0.30517578125,12.4267578125,57.7880859375,31.55517578125
0.074,-0.037109375,0.9892578125,-0.1192626953125,-0.79345703125,-0.54931640625,0.30517578125,12.4267578125,57.7880859375,31.55517578125
0.074,-0.027099609375,0.98876953125,-0.1036376953125,-0.79345703125,-0.54931640625,0.30517578125,12.4267578125,57.7880859375,31.55517578125
0.075,-0.025390625,0.9893798828125,-0.0997314453125,-0.79345703125,-0.54931640625,0.30517578125,12.4267578125,57.7880859375,31.55517578125
0.119,-0.0220947265625,0.9898681640625,-0.0982666015625,-0.79345703125,-0.54931640625,0.30517578125,12.4267578125,57.7880859375,31.55517578125
0.119,-0.0111083984375,0.9906005859375,-0.09228515625,-0.79345703125,-0.54931640625,0.30517578125,12.4267578125,57.7880859375,31.55517578125
0.12,-0.0103759765625,0.9901123046875,-0.09228515625,-0.79345703125,-0.54931640625,0.30517578125,12.4267578125,57.7880859375,31.55517578125
0.164,-0.007080078125,0.988525390625,-0.0921630859375,-0.79345703125,-0.54931640625,0.30517578125,12.4267578125,57.7880859375,31.55517578125
0.165,-0.0079345703125,0.98974609375,-0.0980224609375,-0.79345703125,-0.54931640625,0.30517578125,12.4267578125,57.7880859375,31.55517578125
0.165,-0.0101318359375,0.987548828125,-0.1016845703125,-0.79345703125,-0.54931640625,0.30517578125,12.4267578125,57.7880859375,31.55517578125
0.209,-0.012451171875,0.98876953125,-0.1029052734375,-0.79345703125,-0.54931640625,0.30517578125,12.4267578125,57.7880859375,31.55517578125
0.21,-0.02294921875,0.988525390625,-0.1146240234375,-0.79345703125,-0.54931640625,0.30517578125,12.4267578125,57.7880859375,31.55517578125
0.21,-0.0269775390625,0.9881591796875,-0.1182861328125,-0.79345703125,-0.54931640625,0.30517578125,12.4267578125,57.7880859375,31.55517578125
0.254,-0.03125,0.9886474609375,-0.119384765625,-0.79345703125,-0.54931640625,0.30517578125,12.4267578125,57.7880859375,31.55517578125
0.254,-0.040283203125,0.9871826171875,-0.1240234375,-0.79345703125,-0.54931640625,0.30517578125,12.4267578125,57.7880859375,31.55517578125
0.255,-0.04052734375,0.98828125,-0.1231689453125,-0.79345703125,-0.54931640625,0.30517578125,12.4267578125,57.7880859375,31.55517578125
0.299,-0.0401611328125,0.989013671875,-0.1217041015625,-0.79345703125,-0.54931640625,0.30517578125,12.4267578125,57.7880859375,31.55517578125
0.3,-0.0330810546875,0.989501953125,-0.1126708984375,-0.79345703125,-0.54931640625,0.30517578125,12.4267578125,57.7880859375,31.55517578125
0.3,-0.028564453125,0.989501953125,-0.109619140625,-0.79345703125,-0.54931640625,0.30517578125,12.4267578125,57.7880859375,31.55517578125
0.344,-0.0257568359375,0.9903564453125,-0.1058349609375,-0.79345703125,-0.54931640625,0.30517578125,12.4267578125,57.7880859375,31.55517578125
0.344,-0.0145263671875,0.9896240234375,-0.09765625,-0.79345703125,-0.54931640625,0.30517578125,12.4267578125,57.7880859375,31.55517578125
0.345,-0.01220703125,0.9893798828125,-0.0953369140625,-0.79345703125,-0.54931640625,0.30517578125,12.4267578125,57.7880859375,31.55517578125
0.39,-0.009765625,0.99072265625,-0.09326171875,-0.79345703125,-0.54931640625,0.30517578125,12.4267578125,57.7880859375,31.55517578125
0.39,-0.0084228515625,0.9891357421875,-0.09521484375,-0.79345703125,-0.54931640625,0.30517578125,12.4267578125,57.7880859375,31.55517578125
0.39,-0.0098876953125,0.98779296875,-0.094970703125,-0.79345703125,-0.54931640625,0.30517578125,12.4267578125,57.7880859375,31.55517578125
0.434,-0.0123291015625,0.989013671875,-0.100341796875,-0.79345703125,-0.54931640625,0.30517578125,12.4267578125,57.7880859375,31.55517578125
0.434,-0.0238037109375,0.9881591796875,-0.111083984375,-0.79345703125,-0.54931640625,0.30517578125,12.4267578125,57.7880859375,31.55517578125
0.435,-0.02783203125,0.989501953125,-0.1129150390625,-0.79345703125,-0.54931640625,0.30517578125,12.4267578125,57.7880859375,31.55517578125
0.479,-0.0301513671875,0.9886474609375,-0.1165771484375,-0.79345703125,-0.54931640625,0.30517578125,12.4267578125,57.7880859375,31.55517578125
0.479,-0.0340576171875,0.9891357421875,-0.120361328125,-0.79345703125,-0.54931640625,0.30517578125,12.4267578125,57.7880859375,31.55517578125
0.481,-0.0340576171875,0.9862060546875,-0.119384765625,-0.79345703125,-0.54931640625,0.30517578125,12.4267578125,57.7880859375,31.55517578125
0.524,-0.0360107421875,0.9892578125,-0.121337890625,-0.79345703125,-0.54931640625,0.30517578125,12.4267578125,57.7880859375,31.55517578125
0.524,-0.0311279296875,0.9891357421875,-0.115478515625,-0.79345703125,-0.54931640625,0.30517578125,12.4267578125,57.7880859375,31.55517578125
0.525,-0.0301513671875,0.990478515625,-0.1142578125,-0.79345703125,-0.54931640625,0.30517578125,12.4267578125,57.7880859375,31.55517578125
0.569,-0.0272216796875,0.989501953125,-0.111572265625,-0.79345703125,-0.54931640625,0.30517578125,12.4267578125,57.7880859375,31.55517578125
0.569,-0.0206298828125,0.989501953125,-0.1036376953125,-0.79345703125,-0.54931640625,0.30517578125,12.4267578125,57.7880859375,31.55517578125
0.57,-0.0196533203125,0.98876953125,-0.1011962890625,-0.79345703125,-0.54931640625,0.30517578125,12.4267578125,57.7880859375,31.55517578125
0.614,-0.0181884765625,0.989501953125,-0.101318359375,-0.79345703125,-0.54931640625,0.30517578125,12.4267578125,57.7880859375,31.55517578125
0.615,-0.014892578125,0.989013671875,-0.096923828125,-0.79345703125,-0.54931640625,0.30517578125,12.4267578125,57.7880859375,31.55517578125
0.615,-0.01611328125,0.9903564453125,-0.099609375,-0.79345703125,-0.54931640625,0.30517578125,12.4267578125,57.7880859375,31.55517578125
0.659,-0.015625,0.9903564453125,-0.09912109375,-0.79345703125,-0.54931640625,0.30517578125,12.4267578125,57.7880859375,31.55517578125
0.659,-0.0174560546875,0.9888916015625,-0.1025390625,-0.79345703125,-0.54931640625,0.30517578125,12.4267578125,57.7880859375,31.55517578125
0.66,-0.019775390625,0.988525390625,-0.104736328125,-0.79345703125,-0.54931640625,0.30517578125,12.4267578125,57.7880859375,31.55517578125
0.704,-0.0211181640625,0.989501953125,-0.1070556640625,-0.79345703125,-0.54931640625,0.30517578125,12.4267578125,57.7880859375,31.55517578125
0.705,-0.0272216796875,0.9893798828125,-0.11474609375,-0.79345703125,-0.54931640625,0.30517578125,12.4267578125,57.7880859375,31.55517578125
0.705,-0.0281982421875,0.9888916015625,-0.1163330078125,-0.79345703125,-0.54931640625,0.30517578125,12.4267578125,57.7880859375,31.55517578125
0.749,-0.0303955078125,0.9898681640625,-0.116943359375,-0.79345703125,-0.54931640625,0.30517578125,12.4267578125,57.7880859375,31.55517578125
0.75,-0.031982421875,0.9888916015625,-0.11767578125,-0.79345703125,-0.54931640625,0.30517578125,12.4267578125,57.7880859375,31.55517578125
0.75,-0.0311279296875,0.988037109375,-0.116943359375,-0.79345703125,-0.54931640625,0.30517578125,12.4267578125,57.7880859375,31.55517578125
0.794,-0.03076171875,0.9884033203125,-0.1153564453125,-0.79345703125,-0.54931640625,0.30517578125,12.4267578125,57.7880859375,31.55517578125
0.794,-0.0267333984375,0.9898681640625,-0.1082763671875,-0.79345703125,-0.54931640625,0.30517578125,12.4267578125,57.7880859375,31.55517578125
0.795,-0.025146484375,0.9892578125,-0.1060791015625,-0.79345703125,-0.54931640625,0.30517578125,12.4267578125,57.7880859375,31.55517578125
0.839,-0.02392578125,0.9891357421875,-0.1046142578125,-0.79345703125,-0.54931640625,0.30517578125,12.4267578125,57.7880859375,31.55517578125
0.84,-0.020263671875,0.9901123046875,-0.1016845703125,-0.79345703125,-0.54931640625,0.30517578125,12.4267578125,57.7880859375,31.55517578125
0.84,-0.017822265625,0.98974609375,-0.1015625,-0.79345703125,-0.54931640625,0.30517578125,12.4267578125,57.7880859375,31.55517578125
0.884,-0.01708984375,0.9908447265625,-0.098876953125,-0.79345703125,-0.54931640625,0.30517578125,12.4267578125,57.7880859375,31.55517578125
0.885,-0.0152587890625,0.9906005859375,-0.099609375,-0.79345703125,-0.54931640625,0.30517578125,12.4267578125,57.7880859375,31.55517578125
0.885,-0.016845703125,0.98974609375,-0.1016845703125,-0.79345703125,-0.54931640625,0.30517578125,12.4267578125,57.7880859375,31.55517578125
0.929,-0.016845703125,0.98974609375,-0.10498046875,-0.79345703125,-0.54931640625,0.30517578125,12.4267578125,57.7880859375,31.55517578125
0.929,-0.0218505859375,0.98974609375,-0.109130859375,-0.79345703125,-0.54931640625,0.30517578125,12.4267578125,57.7880859375,31.55517578125
0.93,-0.024169921875,0.98876953125,-0.1092529296875,-0.79345703125,-0.54931640625,0.30517578125,12.4267578125,57.7880859375,31.55517578125
0.974,-0.0272216796875,0.98876953125,-0.1129150390625,-0.79345703125,-0.54931640625,0.30517578125,12.4267578125,57.7880859375,31.55517578125
0.974,-0.03125,0.9884033203125,-0.115478515625,-0.79345703125,-0.54931640625,0.30517578125,12.4267578125,57.7880859375,31.55517578125
0.975,-0.0325927734375,0.9886474609375,-0.1175537109375,-0.79345703125,-0.54931640625,0.30517578125,12.4267578125,57.7880859375,31.55517578125
1.034,-0.031982421875,0.98876953125,-0.1158447265625,-0.79345703125,-0.54931640625,0.30517578125,12.4267578125,57.7880859375,31.55517578125
1.035,-0.0299072265625,0.9893798828125,-0.114501953125,-0.79345703125,-0.54931640625,0.30517578125,12.4267578125,57.7880859375,31.55517578125
1.035,-0.0291748046875,0.9884033203125,-0.1126708984375,-0.79345703125,-0.54931640625,0.30517578125,12.4267578125,57.7880859375,31.55517578125
1.064,-0.0289306640625,0.9891357421875,-0.1121826171875,-0.79345703125,-0.54931640625,0.30517578125,12.4267578125,57.7880859375,31.55517578125
1.064,-0.020263671875,0.989990234375,-0.10400390625,-0.79345703125,-0.54931640625,0.30517578125,12.4267578125,57.7880859375,31.55517578125
1.065,-0.018798828125,0.9886474609375,-0.103515625,-0.79345703125,-0.54931640625,0.30517578125,12.4267578125,57.7880859375,31.55517578125
1.109,-0.0185546875,0.98974609375,-0.1015625,-0.79345703125,-0.54931640625,0.30517578125,12.4267578125,57.7880859375,31.55517578125
1.109,-0.0162353515625,0.9888916015625,-0.100341796875,-0.79345703125,-0.54931640625,0.30517578125,12.4267578125,57.7880859375,31.55517578125
1.11,-0.016845703125,0.988525390625,-0.1019287109375,-0.79345703125,-0.54931640625,0.30517578125,12.4267578125,57.7880859375,31.55517578125
1.154,-0.0177001953125,0.990234375,-0.102294921875,-0.79345703125,-0.54931640625,0.30517578125,12.4267578125,57.7880859375,31.55517578125
1.155,-0.02294921875,0.9866943359375,-0.1075439453125,-0.79345703125,-0.54931640625,0.30517578125,12.4267578125,57.7880859375,31.55517578125
1.155,-0.0245361328125,0.9892578125,-0.1080322265625,-0.79345703125,-0.54931640625,0.30517578125,12.4267578125,57.7880859375,31.55517578125
1.199,-0.0263671875,0.9896240234375,-0.1104736328125,-0.79345703125,-0.54931640625,0.30517578125,12.4267578125,57.7880859375,31.55517578125
1.199,-0.028564453125,0.9893798828125,-0.113525390625,-0.79345703125,-0.54931640625,0.30517578125,12.4267578125,57.7880859375,31.55517578125
1.2,-0.0284423828125,0.98779296875,-0.1134033203125,-0.79345703125,-0.54931640625,0.30517578125,12.4267578125,57.7880859375,31.55517578125
1.244,-0.02880859375,0.9876708984375,-0.1136474609375,-0.79345703125,-0.54931640625,0.30517578125,12.4267578125,57.7880859375,31.55517578125
1.244,-0.028076171875,0.98828125,-0.1146240234375,-0.79345703125,-0.54931640625,0.30517578125,12.4267578125,57.7880859375,31.55517578125
1.245,-0.0267333984375,0.989013671875,-0.112548828125,-0.79345703125,-0.54931640625,0.30517578125,12.4267578125,57.7880859375,31.55517578125
1.29,-0.0267333984375,0.9884033203125,-0.1109619140625,-0.79345703125,-0.54931640625,0.30517578125,12.4267578125,57.7880859375,31.55517578125
1.29,-0.022705078125,0.99072265625,-0.109375,-0.79345703125,-0.54931640625,0.30517578125,12.4267578125,57.7880859375,31.55517578125
1.29,-0.021484375,0.989501953125,-0.10693359375,-0.79345703125,-0.54931640625,0.30517578125,12.4267578125,57.7880859375,31.55517578125
1.334,-0.0211181640625,0.9891357421875,-0.1063232421875,-0.79345703125,-0.54931640625,0.30517578125,12.4267578125,57.7880859375,31.55517578125
1.334,-0.0189208984375,0.989501953125,-0.101806640625,-0.79345703125,-0.54931640625,0.30517578125,12.4267578125,57.7880859375,31.55517578125
1.335,-0.019287109375,0.9903564453125,-0.1026611328125,-0.79345703125,-0.54931640625,0.30517578125,12.4267578125,57.7880859375,31.55517578125
1.379,-0.01953125,0.98974609375,-0.1019287109375,-0.79345703125,-0.54931640625,0.30517578125,12.4267578125,57.7880859375,31.55517578125
1.379,-0.0201416015625,0.98828125,-0.1046142578125,-0.79345703125,-0.54931640625,0.30517578125,12.4267578125,57.7880859375,31.55517578125
1.38,-0.0203857421875,0.9898681640625,-0.103759765625,-0.79345703125,-0.54931640625,0.30517578125,12.4267578125,57.7880859375,31.55517578125
1.424,-0.0220947265625,0.98876953125,-0.105712890625,-0.79345703125,-0.54931640625,0.30517578125,12.4267578125,57.7880859375,31.55517578125
1.424,-0.024169921875,0.98828125,-0.1087646484375,-0.79345703125,-0.54931640625,0.30517578125,12.4267578125,57.7880859375,31.55517578125
1.425,-0.0257568359375,0.989990234375,-0.1119384765625,-0.79345703125,-0.54931640625,0.30517578125,12.4267578125,57.7880859375,31.55517578125
1.469,-0.02685546875,0.9888916015625,-0.1124267578125,-0.79345703125,-0.54931640625,0.30517578125,12.4267578125,57.7880859375,31.55517578125
1.47,-0.027587890625,0.989013671875,-0.113037109375,-0.79345703125,-0.54931640625,0.30517578125,12.4267578125,57.7880859375,31.55517578125
1.47,-0.028564453125,0.9896240234375,-0.11376953125,-0.79345703125,-0.54931640625,0.30517578125,12.4267578125,57.7880859375,31.55517578125
1.514,-0.0272216796875,0.989013671875,-0.11376953125,-0.79345703125,-0.54931640625,0.30517578125,12.4267578125,57.7880859375,31.55517578125
1.514,-0.0274658203125,0.9898681640625,-0.111083984375,-0.79345703125,-0.54931640625,0.30517578125,12.4267578125,57.7880859375,31.55517578125
1.516,-0.0244140625,0.9886474609375,-0.1097412109375,-0.79345703125,-0.54931640625,0.30517578125,12.4267578125,57.7880859375,31.55517578125
1.573,-0.0240478515625,0.9898681640625,-0.108154296875,-0.79345703125,-0.54931640625,0.30517578125,12.4267578125,57.7880859375,31.55517578125
1.604,-0.0220947265625,0.9898681640625,-0.10595703125,-0.79345703125,-0.54931640625,0.30517578125,12.4267578125,57.7880859375,31.55517578125
1.614,-0.0220947265625,0.9898681640625,-0.10595703125,-0.8544921875,-0.48828125,0.30517578125,12.4267578125,57.7880859375,31.55517578125
1.615,-0.0191650390625,0.9892578125,-0.102783203125,-0.8544921875,-0.48828125,0.30517578125,12.4267578125,57.7880859375,31.55517578125
1.649,-0.019775390625,0.98876953125,-0.103515625,-1.03759765625,-0.6103515625,0.30517578125,12.4267578125,57.7880859375,31.55517578125
1.65,-0.0225830078125,0.9898681640625,-0.1075439453125,-1.03759765625,-0.6103515625,0.30517578125,12.4267578125,57.7880859375,31.55517578125
1.694,-0.0225830078125,0.9898681640625,-0.1075439453125,-0.732421875,-0.6103515625,0.30517578125,12.4267578125,57.7880859375,31.55517578125
1.695,-0.0264892578125,0.989990234375,-0.1129150390625,-0.67138671875,-0.67138671875,0.18310546875,12.4267578125,57.7880859375,31.55517578125
1.739,-0.0277099609375,0.9884033203125,-0.1142578125,-0.8544921875,-0.54931640625,0.1220703125,12.4267578125,57.7880859375,31.55517578125
1.74,-0.0267333984375,0.9893798828125,-0.112060546875,-0.8544921875,-0.54931640625,0.1220703125,12.4267578125,57.7880859375,31.55517578125
1.784,-0.0267333984375,0.9893798828125,-0.112060546875,-0.6103515625,-0.732421875,0.3662109375,12.4267578125,57.7880859375,31.55517578125
1.843,-0.0223388671875,0.9888916015625,-0.1064453125,-0.8544921875,-0.48828125,0.1220703125,12.4267578125,57.7880859375,31.55517578125
1.844,-0.022705078125,0.9893798828125,-0.10791015625,-0.8544921875,-0.48828125,0.1220703125,12.4267578125,57.7880859375,31.55517578125
1.874,-0.02294921875,0.990478515625,-0.1064453125,-0.8544921875,-0.732421875,0.3662109375,12.4267578125,57.7880859375,31.55517578125
1.875,-0.02294921875,0.990478515625,-0.1064453125,-1.0986328125,-0.732421875,0.30517578125,12.4267578125,57.7880859375,31.55517578125
1.919,-0.022705078125,0.989501953125,-0.1064453125,-1.0986328125,-0.732421875,0.30517578125,12.4267578125,57.7880859375,31.55517578125
1.92,-0.02587890625,0.9891357421875,-0.111083984375,-0.91552734375,-0.48828125,0.1220703125,12.4267578125,57.7880859375,31.55517578125
1.964,-0.0257568359375,0.9891357421875,-0.1103515625,-0.732421875,-0.732421875,0.06103515625,12.4267578125,57.7880859375,31.55517578125
1.966,-0.0257568359375,0.98828125,-0.11083984375,-0.732421875,-0.732421875,0.06103515625,12.4267578125,57.7880859375,31.55517578125
2.01,-0.025390625,0.989990234375,-0.111083984375,-0.91552734375,-0.54931640625,0.244140625,12.4267578125,57.7880859375,31.55517578125
2.011,-0.023193359375,0.98876953125,-0.10888671875,-0.91552734375,-0.54931640625,0.244140625,12.4267578125,57.7880859375,31.55517578125
2.054,-0.023193359375,0.98876953125,-0.10888671875,-0.732421875,-0.48828125,0.30517578125,12.4267578125,57.7880859375,31.55517578125
2.055,-0.021484375,0.9903564453125,-0.1055908203125,-0.8544921875,-0.48828125,0.244140625,12.4267578125,57.7880859375,31.55517578125
2.1,-0.0218505859375,0.9896240234375,-0.1051025390625,-0.91552734375,-0.54931640625,0.244140625,12.4267578125,57.7880859375,31.55517578125
2.1,-0.021728515625,0.9896240234375,-0.1060791015625,-0.91552734375,-0.54931640625,0.244140625,12.4267578125,57.7880859375,31.55517578125
2.144,-0.021728515625,0.9896240234375,-0.1060791015625,-0.67138671875,-0.6103515625,0.18310546875,12.4267578125,57.7880859375,31.55517578125
2.145,-0.02392578125,0.9884033203125,-0.1083984375,-0.91552734375,-0.3662109375,0.244140625,12.4267578125,57.7880859375,31.55517578125
2.189,-0.0262451171875,0.989501953125,-0.1094970703125,-0.91552734375,-0.3662109375,0.244140625,12.4267578125,57.7880859375,31.55517578125
2.234,-0.024658203125,0.9879150390625,-0.1107177734375,-0.91552734375,-0.42724609375,0.1220703125,12.4267578125,57.7880859375,31.55517578125
2.235,-0.024658203125,0.9879150390625,-0.1107177734375,-0.732421875,-0.3662109375,0.1220703125,12.4267578125,57.7880859375,31.55517578125
2.28,-0.025146484375,0.989501953125,-0.1102294921875,-0.91552734375,-0.6103515625,0.1220703125,12.4267578125,57.7880859375,31.55517578125
2.28,-0.02294921875,0.9901123046875,-0.1077880859375,-0.91552734375,-0.6103515625,0.1220703125,12.4267578125,57.7880859375,31.55517578125
2.324,-0.0233154296875,0.989013671875,-0.106201171875,-0.91552734375,-0.6103515625,0.1220703125,12.4267578125,57.7880859375,31.55517578125
2.325,-0.0233154296875,0.989013671875,-0.106201171875,-0.79345703125,-0.54931640625,0.3662109375,12.4267578125,57.7880859375,31.55517578125
2.326,-0.022216796875,0.9893798828125,-0.1058349609375,-0.79345703125,-0.54931640625,0.3662109375,12.4267578125,57.7880859375,31.55517578125
2.369,-0.0211181640625,0.9888916015625,-0.10595703125,-0.9765625,-0.67138671875,0.244140625,12.4267578125,57.7880859375,31.55517578125
2.37,-0.0230712890625,0.9898681640625,-0.1068115234375,-0.9765625,-0.67138671875,0.244140625,12.4267578125,57.7880859375,31.55517578125
2.414,-0.0262451171875,0.9901123046875,-0.109619140625,-1.0986328125,-0.91552734375,0.244140625,12.4267578125,57.7880859375,31.55517578125
2.415,-0.0262451171875,0.9901123046875,-0.109619140625,-0.8544921875,-0.67138671875,0.244140625,12.4267578125,57.7880859375,31.55517578125
2.465,-0.02587890625,0.988525390625,-0.110107421875,-0.9765625,-0.6103515625,0.06103515625,12.4267578125,57.7880859375,31.55517578125
2.465,-0.026123046875,0.990234375,-0.1112060546875,-0.9765625,-0.6103515625,0.06103515625,12.4267578125,57.7880859375,31.55517578125
2.519,-0.026123046875,0.990234375,-0.1112060546875,-0.79345703125,-0.6103515625,0.30517578125,12.4267578125,57.7880859375,31.55517578125
2.549,-0.0225830078125,0.989013671875,-0.1077880859375,-0.8544921875,-0.42724609375,0.30517578125,12.4267578125,57.7880859375,31.55517578125
2.55,-0.0225830078125,0.989013671875,-0.1077880859375,-0.8544921875,-0.42724609375,0.30517578125,12.5,58.740234375,31.11572265625
2.594,-0.0203857421875,0.989013671875,-0.1068115234375,-0.79345703125,-0.42724609375,0.30517578125,12.5,58.740234375,31.11572265625
2.595,-0.0203857421875,0.989013671875,-0.1068115234375,-0.79345703125,-0.42724609375,0.30517578125,12.17041015625,57.8369140625,30.6640625
2.639,-0.0208740234375,0.988525390625,-0.10693359375,-0.79345703125,-0.42724609375,0.30517578125,12.17041015625,57.8369140625,30.6640625
2.64,-0.0208740234375,0.988525390625,-0.10693359375,-0.91552734375,-0.732421875,0.244140625,11.48681640625,58.1298828125,30.31005859375
2.684,-0.02392578125,0.9901123046875,-0.110107421875,-0.79345703125,-0.42724609375,0.18310546875,11.48681640625,58.1298828125,30.31005859375
2.685,-0.02392578125,0.9901123046875,-0.110107421875,-0.79345703125,-0.42724609375,0.18310546875,12.20703125,57.8369140625,31.1767578125
2.729,-0.02685546875,0.9892578125,-0.1104736328125,-0.9765625,-0.67138671875,0.30517578125,12.20703125,57.8369140625,31.1767578125
2.73,-0.0242919921875,0.9891357421875,-0.1094970703125,-0.9765625,-0.67138671875,0.30517578125,12.20703125,57.8369140625,31.1767578125
2.774,-0.0242919921875,0.9891357421875,-0.1094970703125,-0.91552734375,-0.67138671875,0.18310546875,12.36572265625,58.984375,31.2744140625
2.775,-0.023193359375,0.9886474609375,-0.107177734375,-0.91552734375,-0.67138671875,0.18310546875,12.36572265625,58.984375,31.2744140625
2.819,-0.023193359375,0.9886474609375,-0.107177734375,-0.8544921875,-0.3662109375,0.18310546875,12.19482421875,58.837890625,31.5185546875
2.82,-0.02392578125,0.99072265625,-0.107421875,-0.8544921875,-0.3662109375,0.18310546875,12.19482421875,58.837890625,31.5185546875
2.864,-0.02392578125,0.99072265625,-0.107421875,-0.9765625,-0.67138671875,0.1220703125,12.060546875,58.19091796875,30.72509765625
2.865,-0.0228271484375,0.9891357421875,-0.1080322265625,-0.9765625,-0.67138671875,0.1220703125,12.060546875,58.19091796875,30.72509765625
2.909,-0.0228271484375,0.9891357421875,-0.1080322265625,-0.79345703125,-0.54931640625,0.30517578125,12.060546875,58.19091796875,30.72509765625
2.91,-0.024658203125,0.989501953125,-0.1085205078125,-0.79345703125,-0.54931640625,0.30517578125,12.4267578125,58.4228515625,30.92041015625
2.954,-0.024658203125,0.989501953125,-0.1085205078125,-0.79345703125,-0.54931640625,0.244140625,12.4267578125,58.4228515625,30.92041015625
2.955,-0.0238037109375,0.9884033203125,-0.1083984375,-0.79345703125,-0.54931640625,0.244140625,12.646484375,58.2763671875,31.005859375
2.999,-0.0238037109375,0.9884033203125,-0.1083984375,-0.67138671875,-0.42724609375,0.244140625,12.24365234375,58.1787109375,31.25
3.0,-0.0224609375,0.989990234375,-0.10546875,-0.67138671875,-0.42724609375,0.244140625,12.24365234375,58.1787109375,31.25
3.044,-0.0224609375,0.989990234375,-0.10546875,-0.79345703125,-0.6103515625,0.18310546875,12.7685546875,58.251953125,30.18798828125
3.045,-0.022705078125,0.988037109375,-0.107666015625,-0.79345703125,-0.6103515625,0.18310546875,12.7685546875,58.251953125,30.18798828125
3.089,-0.022705078125,0.988037109375,-0.107666015625,-0.6103515625,-0.48828125,0.42724609375,12.7685546875,58.251953125,30.18798828125
3.09,-0.0235595703125,0.989990234375,-0.1083984375,-0.91552734375,-0.732421875,0.1220703125,12.7685546875,58.251953125,30.18798828125
3.134,-0.0235595703125,0.989990234375,-0.1083984375,-0.91552734375,-0.732421875,0.30517578125,12.7685546875,58.251953125,30.18798828125
3.135,-0.0252685546875,0.989013671875,-0.1099853515625,-0.91552734375,-0.732421875,0.30517578125,12.36572265625,58.1787109375,30.419921875
3.179,-0.0252685546875,0.989013671875,-0.1099853515625,-0.91552734375,-0.6103515625,0.1220703125,11.8896484375,58.38623046875,30.8837890625
3.18,-0.0242919921875,0.98876953125,-0.1094970703125,-0.91552734375,-0.6103515625,0.1220703125,11.8896484375,58.38623046875,30.8837890625
3.224,-0.0242919921875,0.98876953125,-0.1094970703125,-1.0986328125,-0.91552734375,0.06103515625,12.2314453125,57.2998046875,31.4208984375
3.225,-0.023193359375,0.990234375,-0.108642578125,-1.0986328125,-0.91552734375,0.06103515625,12.2314453125,57.2998046875,31.4208984375
3.269,-0.023193359375,0.990234375,-0.108642578125,-0.79345703125,-0.54931640625,0.30517578125,12.19482421875,58.1298828125,30.62744140625
3.27,-0.0245361328125,0.989501953125,-0.1087646484375,-0.79345703125,-0.54931640625,0.30517578125,12.19482421875,58.1298828125,30.62744140625
3.314,-0.0245361328125,0.989501953125,-0.1087646484375,-0.67138671875,-0.67138671875,0.244140625,12.8662109375,58.4228515625,31.67724609375
3.315,-0.0218505859375,0.9879150390625,-0.107177734375,-0.67138671875,-0.67138671875,0.244140625,12.8662109375,58.4228515625,31.67724609375
3.359,-0.0218505859375,0.9879150390625,-0.107177734375,-0.732421875,-0.42724609375,0.18310546875,12.98828125,58.251953125,30.82275390625
3.36,-0.0234375,0.9884033203125,-0.1072998046875,-0.732421875,-0.42724609375,0.18310546875,12.98828125,58.251953125,30.82275390625
3.404,-0.0234375,0.9884033203125,-0.1072998046875,-0.79345703125,-0.54931640625,0.18310546875,12.24365234375,58.19091796875,30.6396484375
3.405,-0.0235595703125,0.9893798828125,-0.1077880859375,-0.79345703125,-0.54931640625,0.18310546875,12.24365234375,58.19091796875,30.6396484375
3.449,-0.0235595703125,0.9893798828125,-0.1077880859375,-0.54931640625,-0.3662109375,0.42724609375,12.24365234375,58.19091796875,30.6396484375
3.45,-0.0247802734375,0.989013671875,-0.108154296875,-0.8544921875,-0.6103515625,-0.06103515625,12.24365234375,58.19091796875,30.6396484375
3.48,-0.0247802734375,0.989013671875,-0.108154296875,-0.8544921875,-0.6103515625,-0.06103515625,12.24365234375,58.19091796875,30.6396484375
3.494,-0.0238037109375,0.98876953125,-0.10888671875,-0.8544921875,-0.6103515625,-0.06103515625,12.24365234375,58.19091796875,30.6396484375
3.495,-0.0238037109375,0.98876953125,-0.10888671875,-0.8544921875,-0.732421875,0.18310546875,12.78076171875,58.53271484375,30.45654296875
3.54,-0.0238037109375,0.98876953125,-0.10888671875,-0.8544921875,-0.732421875,0.18310546875,12.78076171875,58.53271484375,30.45654296875
3.546,-0.0233154296875,0.988525390625,-0.10791015625,-0.91552734375,-0.732421875,0.1220703125,13.0859375,58.31298828125,31.21337890625
3.584,-0.02294921875,0.9886474609375,-0.1090087890625,-1.15966796875,-0.732421875,0.06103515625,13.0859375,58.31298828125,31.21337890625
3.585,-0.02294921875,0.9886474609375,-0.1090087890625,-1.15966796875,-0.732421875,0.06103515625,12.68310546875,58.4228515625,30.9814453125
3.629,-0.02392578125,0.990234375,-0.1068115234375,-1.15966796875,-0.732421875,0.1220703125,12.68310546875,58.4228515625,30.9814453125
3.63,-0.02392578125,0.990234375,-0.1068115234375,-1.15966796875,-0.732421875,0.1220703125,12.9638671875,57.6904296875,31.0302734375
3.666,-0.02392578125,0.990234375,-0.1068115234375,-1.15966796875,-0.732421875,0.1220703125,12.9638671875,57.6904296875,31.0302734375
3.674,-0.024658203125,0.9901123046875,-0.1087646484375,-4.8828125,-0.06103515625,1.28173828125,12.9638671875,57.6904296875,31.0302734375
3.675,-0.024658203125,0.9901123046875,-0.1087646484375,-4.8828125,-0.06103515625,1.28173828125,12.8173828125,58.3984375,31.18896484375
3.72,0.0068359375,1.146240234375,0.1068115234375,-158.447265625,1.40380859375,27.9541015625,12.8173828125,58.3984375,31.18896484375
3.721,0.0068359375,1.146240234375,0.1068115234375,-158.447265625,1.40380859375,27.9541015625,13.61083984375,63.330078125,29.1015625
3.764,-0.069580078125,0.8697509765625,-0.3212890625,-78.2470703125,0.54931640625,14.83154296875,13.61083984375,63.330078125,29.1015625
3.765,-0.069580078125,0.8697509765625,-0.3212890625,-78.2470703125,0.54931640625,14.83154296875,12.3046875,67.85888671875,24.31640625
3.777,-0.069580078125,0.8697509765625,-0.3212890625,-78.2470703125,0.54931640625,14.83154296875,12.3046875,67.85888671875,24.31640625
3.809,-0.0650634765625,0.9217529296875,-0.3443603515625,-78.2470703125,0.54931640625,14.83154296875,12.3046875,67.85888671875,24.31640625
3.81,-0.072021484375,0.92822265625,-0.3594970703125,-59.63134765625,0.244140625,11.3525390625,12.3046875,67.85888671875,24.31640625
3.844,-0.072021484375,0.92822265625,-0.3594970703125,-59.63134765625,0.244140625,11.3525390625,12.3046875,67.85888671875,24.31640625
3.854,-0.072021484375,0.92822265625,-0.3594970703125,-58.837890625,0.3662109375,11.474609375,12.3046875,67.85888671875,24.31640625
3.855,-0.065673828125,0.9266357421875,-0.3692626953125,-58.837890625,0.3662109375,11.474609375,13.12255859375,69.22607421875,23.6328125
3.899,-0.065673828125,0.9266357421875,-0.3692626953125,-82.03125,0.8544921875,15.68603515625,12.109375,71.2158203125,19.34814453125
3.9,-0.1845703125,0.8822021484375,-0.471923828125,-82.03125,0.8544921875,15.68603515625,12.109375,71.2158203125,19.34814453125
3.944,-0.1845703125,0.8822021484375,-0.471923828125,-79.40673828125,-36.07177734375,35.888671875,12.109375,71.2158203125,19.34814453125
3.945,-0.1845703125,0.8822021484375,-0.471923828125,-79.40673828125,-36.07177734375,35.888671875,12.68310546875,71.61865234375,18.15185546875
3.946,0.0494384765625,0.9033203125,-0.585205078125,-79.40673828125,-36.07177734375,35.888671875,12.68310546875,71.61865234375,18.15185546875
3.964,0.0494384765625,0.9033203125,-0.585205078125,-79.40673828125,-36.07177734375,35.888671875,12.68310546875,71.61865234375,18.15185546875
3.99,-0.175048828125,1.3861083984375,-0.7088623046875,-91.796875,-21.66748046875,29.052734375,13.18359375,74.3896484375,12.26806640625
4.034,-0.175048828125,1.3861083984375,-0.7088623046875,-7.01904296875,-54.50439453125,-66.58935546875,6.5673828125,74.21875,8.935546875
4.035,-0.31884765625,1.0665283203125,-1.1204833984375,-7.01904296875,-54.50439453125,-66.58935546875,6.5673828125,74.21875,8.935546875
4.078,-0.31884765625,1.0665283203125,-1.1204833984375,-7.01904296875,-54.50439453125,-66.58935546875,6.5673828125,74.21875,8.935546875
4.079,-0.31884765625,1.0665283203125,-1.1204833984375,102.84423828125,-29.052734375,-68.9697265625,6.5673828125,74.21875,8.935546875
4.08,-0.658935546875,1.196044921875,-0.978271484375,102.84423828125,-29.052734375,-68.9697265625,-1.025390625,69.05517578125,7.03125
4.124,-0.658935546875,1.196044921875,-0.978271484375,104.67529296875,-1.03759765625,-17.27294921875,-1.025390625,69.05517578125,7.03125
4.125,-0.258544921875,0.746826171875,-0.8670654296875,104.67529296875,-1.03759765625,-17.27294921875,-0.15869140625,63.7939453125,7.82470703125
4.147,-0.258544921875,0.746826171875,-0.8670654296875,104.67529296875,-1.03759765625,-17.27294921875,-0.15869140625,63.7939453125,7.82470703125
4.169,-0.463134765625,0.3983154296875,-0.6048583984375,165.771484375,16.05224609375,79.28466796875,-0.15869140625,63.7939453125,7.82470703125
4.17,-0.463134765625,0.3983154296875,-0.6048583984375,117.1875,76.72119140625,95.5810546875,-0.15869140625,63.7939453125,7.82470703125
4.214,-0.3074951171875,0.7066650390625,-0.4581298828125,117.1875,76.72119140625,95.5810546875,2.3681640625,59.38720703125,9.33837890625
4.215,-0.3074951171875,0.7066650390625,-0.4581298828125,106.3232421875,100.341796875,107.7880859375,2.3681640625,59.38720703125,9.33837890625
4.259,-0.7005615234375,0.6241455078125,0.02978515625,106.3232421875,100.341796875,107.7880859375,5.908203125,56.18896484375,10.68115234375
4.26,-0.7005615234375,0.6241455078125,0.02978515625,100.15869140625,107.177734375,134.82666015625,5.908203125,56.18896484375,10.68115234375
4.264,-0.7005615234375,0.6241455078125,0.02978515625,100.15869140625,107.177734375,134.82666015625,5.908203125,56.18896484375,10.68115234375
4.304,-0.7005615234375,0.6241455078125,0.02978515625,111.99951171875,114.07470703125,169.7998046875,8.63037109375,50.6103515625,11.9873046875
4.305,-0.4371337890625,0.55712890625,-0.003662109375,111.99951171875,114.07470703125,169.7998046875,8.63037109375,50.6103515625,11.9873046875
4.349,-0.4371337890625,0.55712890625,-0.003662109375,37.7197265625,85.14404296875,193.90869140625,8.63037109375,50.6103515625,11.9873046875
4.35,-0.430908203125,0.8548583984375,-0.0443115234375,37.7197265625,85.14404296875,193.90869140625,9.28955078125,46.7529296875,13.671875
4.377,-0.430908203125,0.8548583984375,-0.0443115234375,37.7197265625,85.14404296875,193.90869140625,9.28955078125,46.7529296875,13.671875
4.394,-0.430908203125,0.8548583984375,-0.0443115234375,-70.6787109375,57.43408203125,93.68896484375,9.28955078125,46.7529296875,13.671875
4.395,-0.4642333984375,0.9698486328125,-0.030517578125,-70.6787109375,57.43408203125,93.68896484375,8.67919921875,44.8974609375,11.46240234375
4.439,-0.4642333984375,0.9698486328125,-0.030517578125,-38.39111328125,3.41796875,63.04931640625,8.65478515625,44.7509765625,12.158203125
4.44,-0.55712890625,1.200927734375,-0.00537109375,-38.39111328125,3.41796875,63.04931640625,8.65478515625,44.7509765625,12.158203125
4.443,-0.55712890625,1.200927734375,-0.00537109375,-38.39111328125,3.41796875,63.04931640625,8.65478515625,44.7509765625,12.158203125
4.484,-0.55712890625,1.200927734375,-0.00537109375,-59.99755859375,2.99072265625,65.85693359375,8.740234375,44.7265625,11.80419921875
4.486,-0.6455078125,1.037353515625,-0.0023193359375,-59.99755859375,2.99072265625,65.85693359375,8.740234375,44.7265625,11.80419921875
4.529,-0.6455078125,1.037353515625,-0.0023193359375,-30.517578125,7.32421875,61.58447265625,8.740234375,44.7265625,11.80419921875
4.53,-0.451904296875,1.0018310546875,0.024658203125,-30.517578125,7.32421875,61.58447265625,8.740234375,44.7265625,11.80419921875
4.534,-0.451904296875,1.0018310546875,0.024658203125,-43.51806640625,7.75146484375,38.818359375,8.740234375,44.7265625,11.80419921875
4.564,-0.451904296875,1.0018310546875,0.024658203125,-43.51806640625,7.75146484375,38.818359375,8.740234375,44.7265625,11.80419921875
4.576,-0.451904296875,1.0018310546875,0.024658203125,-43.51806640625,7.75146484375,38.818359375,9.11865234375,44.62890625,11.26708984375
4.577,-0.4208984375,0.786376953125,0.099853515625,-23.25439453125,1.40380859375,14.83154296875,9.11865234375,44.62890625,11.26708984375
4.619,-0.4727783203125,0.6715087890625,0.1209716796875,-23.25439453125,1.40380859375,14.83154296875,8.77685546875,44.59228515625,9.8388671875
4.62,-0.4727783203125,0.6715087890625,0.1209716796875,-36.0107421875,9.1552734375,3.96728515625,8.77685546875,44.59228515625,9.8388671875
4.664,-0.4918212890625,0.7054443359375,0.1180419921875,-36.0107421875,9.1552734375,3.96728515625,8.77685546875,44.59228515625,9.8388671875
4.666,-0.4918212890625,0.7054443359375,0.1180419921875,-38.4521484375,10.25390625,4.150390625,8.4716796875,45.4833984375,10.99853515625
4.677,-0.4918212890625,0.7054443359375,0.1180419921875,-38.4521484375,10.25390625,4.150390625,8.4716796875,45.4833984375,10.99853515625
4.709,-0.5894775390625,0.80078125,0.08837890625,-34.97314453125,11.5966796875,9.21630859375,8.4716796875,45.4833984375,10.99853515625
4.71,-0.5894775390625,0.80078125,0.08837890625,-34.97314453125,11.5966796875,9.21630859375,8.60595703125,45.166015625,9.89990234375
4.742,-0.5894775390625,0.80078125,0.08837890625,-34.97314453125,11.5966796875,9.21630859375,8.60595703125,45.166015625,9.89990234375
4.754,-0.73486328125,0.7584228515625,0.16552734375,-46.7529296875,23.681640625,-12.0849609375,8.60595703125,45.166015625,9.89990234375
4.755,-0.73486328125,0.7584228515625,0.16552734375,-46.7529296875,23.681640625,-12.0849609375,8.056640625,45.86181640625,10.498046875
4.799,-0.7669677734375,0.703857421875,0.088134765625,-60.6689453125,20.3857421875,-24.658203125,8.056640625,45.86181640625,10.498046875
4.8,-0.7669677734375,0.703857421875,0.088134765625,-60.6689453125,20.3857421875,-24.658203125,7.50732421875,46.20361328125,8.72802734375
4.844,-0.826416015625,0.7738037109375,0.05126953125,-60.6689453125,20.3857421875,-24.658203125,7.50732421875,46.20361328125,8.72802734375
4.845,-0.826416015625,0.7738037109375,0.05126953125,-31.005859375,31.92138671875,-13.12255859375,7.50732421875,46.20361328125,8.72802734375
4.851,-0.826416015625,0.7738037109375,0.05126953125,-31.005859375,31.92138671875,-13.12255859375,7.43408203125,47.74169921875,9.02099609375
4.865,-0.826416015625,0.7738037109375,0.05126953125,-31.005859375,31.92138671875,-13.12255859375,7.43408203125,47.74169921875,9.02099609375
4.889,-0.839111328125,0.667236328125,-0.0811767578125,-24.23095703125,31.8603515625,-17.88330078125,7.43408203125,47.74169921875,9.02099609375
4.89,-0.839111328125,0.667236328125,-0.0811767578125,-24.23095703125,31.8603515625,-17.88330078125,5.87158203125,48.974609375,8.85009765625
4.934,-0.801513671875,0.5872802734375,-0.1834716796875,-7.75146484375,22.705078125,-10.7421875,5.87158203125,48.974609375,8.85009765625
4.935,-0.801513671875,0.5872802734375,-0.1834716796875,-7.75146484375,22.705078125,-10.7421875,5.89599609375,48.79150390625,9.85107421875
4.977,-0.801513671875,0.5872802734375,-0.1834716796875,-7.75146484375,22.705078125,-10.7421875,5.89599609375,48.79150390625,9.85107421875
4.979,-0.79736328125,0.48291015625,-0.1884765625,-7.75146484375,22.705078125,-10.7421875,5.89599609375,48.79150390625,9.85107421875
5.024,-0.7015380859375,0.3831787109375,-0.20068359375,-0.9765625,21.6064453125,-8.1787109375,5.89599609375,48.79150390625,9.85107421875
5.025,-0.6834716796875,0.3629150390625,-0.1883544921875,-0.9765625,21.6064453125,-8.1787109375,5.89599609375,48.79150390625,9.85107421875
5.043,-0.6834716796875,0.3629150390625,-0.1883544921875,-0.9765625,21.6064453125,-8.1787109375,5.89599609375,48.79150390625,9.85107421875
5.069,-0.6834716796875,0.3629150390625,-0.1883544921875,-10.3759765625,10.7421875,-20.3857421875,5.89599609375,48.79150390625,9.85107421875
5.07,-0.72998046875,0.6470947265625,-0.1995849609375,-10.3759765625,10.7421875,-20.3857421875,5.52978515625,48.57177734375,9.1796875
5.134,-0.72998046875,0.6470947265625,-0.1995849609375,-10.3759765625,10.7421875,-20.3857421875,5.52978515625,48.57177734375,9.1796875
5.151,-0.72998046875,0.6470947265625,-0.1995849609375,-10.3759765625,10.7421875,-20.3857421875,5.52978515625,48.57177734375,9.1796875
5.161,-0.72998046875,0.6470947265625,-0.1995849609375,16.54052734375,2.8076171875,22.5830078125,5.52978515625,48.57177734375,9.1796875
5.204,-0.72998046875,0.6470947265625,-0.1995849609375,16.54052734375,2.8076171875,22.5830078125,5.2001953125,48.095703125,10.72998046875
5.205,-0.7540283203125,0.56884765625,-0.1527099609375,11.474609375,-11.16943359375,18.12744140625,5.2001953125,48.095703125,10.72998046875
5.206,-0.7540283203125,0.56884765625,-0.1527099609375,11.474609375,-11.16943359375,18.12744140625,6.18896484375,48.5595703125,9.3505859375
5.23,-0.7540283203125,0.56884765625,-0.1527099609375,11.474609375,-11.16943359375,18.12744140625,6.18896484375,48.5595703125,9.3505859375
5.274,-0.7540283203125,0.56884765625,-0.1527099609375,11.474609375,-11.16943359375,18.12744140625,6.18896484375,48.5595703125,9.3505859375
5.294,-0.85205078125,0.7755126953125,0.0792236328125,11.474609375,-11.16943359375,18.12744140625,6.18896484375,48.5595703125,9.3505859375
5.295,-0.85205078125,0.7755126953125,0.0792236328125,-11.1083984375,5.18798828125,-12.39013671875,6.31103515625,49.03564453125,9.41162109375
5.297,-0.7672119140625,0.7928466796875,0.073486328125,-11.1083984375,5.18798828125,-12.39013671875,6.31103515625,49.03564453125,9.41162109375
5.339,-0.7672119140625,0.7928466796875,0.073486328125,-14.7705078125,21.78955078125,-35.15625,6.31103515625,49.03564453125,9.41162109375
5.34,-0.6805419921875,0.8642578125,-0.11328125,-14.7705078125,21.78955078125,-35.15625,4.96826171875,48.681640625,8.7646484375
5.343,-0.6805419921875,0.8642578125,-0.11328125,-14.7705078125,21.78955078125,-35.15625,4.96826171875,48.681640625,8.7646484375
5.357,-0.6805419921875,0.8642578125,-0.11328125,-14.7705078125,21.78955078125,-35.15625,4.96826171875,48.681640625,8.7646484375
5.384,-0.6805419921875,0.8642578125,-0.11328125,-2.685546875,28.62548828125,-33.203125,4.4677734375,49.81689453125,10.2294921875
5.385,-0.6585693359375,0.855712890625,-0.2088623046875,-2.685546875,28.62548828125,-33.203125,4.4677734375,49.81689453125,10.2294921875
5.429,-0.6585693359375,0.855712890625,-0.2088623046875,-17.9443359375,33.8134765625,-35.82763671875,4.4677734375,49.81689453125,10.2294921875
5.43,-0.6007080078125,0.919189453125,-0.301025390625,-17.9443359375,33.8134765625,-35.82763671875,3.2470703125,49.853515625,9.6435546875
5.432,-0.6007080078125,0.919189453125,-0.301025390625,-17.9443359375,33.8134765625,-35.82763671875,3.2470703125,49.853515625,9.6435546875
5.465,-0.6007080078125,0.919189453125,-0.301025390625,-17.9443359375,33.8134765625,-35.82763671875,3.2470703125,49.853515625,9.6435546875
5.474,-0.6007080078125,0.919189453125,-0.301025390625,-17.63916015625,24.7802734375,-49.62158203125,2.63671875,50.6591796875,9.5703125
5.475,-0.5340576171875,0.7386474609375,-0.2977294921875,-17.63916015625,24.7802734375,-49.62158203125,2.63671875,50.6591796875,9.5703125
5.519,-0.5340576171875,0.7386474609375,-0.2977294921875,-8.1787109375,28.74755859375,-26.4892578125,2.63671875,50.6591796875,9.5703125
5.542,-0.5340576171875,0.7386474609375,-0.2977294921875,-8.1787109375,28.74755859375,-26.4892578125,2.63671875,50.6591796875,9.5703125
5.564,-0.3607177734375,0.6531982421875,-0.2451171875,-8.1787109375,28.74755859375,-26.4892578125,1.7822265625,50.8056640625,9.7412109375
5.565,-0.3607177734375,0.6531982421875,-0.2451171875,-10.92529296875,26.18408203125,-13.12255859375,1.7822265625,50.8056640625,9.7412109375
5.578,-0.3607177734375,0.6531982421875,-0.2451171875,-10.92529296875,26.18408203125,-13.12255859375,1.7822265625,50.8056640625,9.7412109375
5.614,-0.4974365234375,0.6966552734375,-0.071533203125,-54.6875,21.30126953125,-12.0849609375,1.57470703125,50.86669921875,8.0322265625
5.639,-0.4974365234375,0.6966552734375,-0.071533203125,-54.6875,21.30126953125,-12.0849609375,1.57470703125,50.86669921875,8.0322265625
5.655,-0.4981689453125,0.685546875,-0.0355224609375,-54.6875,21.30126953125,-12.0849609375,1.6357421875,51.62353515625,8.0322265625
5.656,-0.4981689453125,0.685546875,-0.0355224609375,-61.95068359375,47.54638671875,-17.76123046875,1.6357421875,51.62353515625,8.0322265625
5.657,-0.4981689453125,0.685546875,-0.0355224609375,-61.95068359375,47.54638671875,-17.76123046875,1.6357421875,51.62353515625,8.0322265625
5.699,-0.482177734375,0.71142578125,-0.0260009765625,-61.95068359375,47.54638671875,-17.76123046875,0.244140625,51.953125,7.87353515625
5.7,-0.482177734375,0.71142578125,-0.0260009765625,-82.70263671875,60.4248046875,-21.97265625,0.244140625,51.953125,7.87353515625
5.717,-0.482177734375,0.71142578125,-0.0260009765625,-82.70263671875,60.4248046875,-21.97265625,0.244140625,51.953125,7.87353515625
5.744,-0.510498046875,0.76953125,-0.031005859375,-82.70263671875,60.4248046875,-21.97265625,0.244140625,51.953125,7.87353515625
5.745,-0.510498046875,0.76953125,-0.031005859375,-92.041015625,73.6083984375,-56.0302734375,0.244140625,51.953125,7.87353515625
5.746,-0.510498046875,0.76953125,-0.031005859375,-92.041015625,73.6083984375,-56.0302734375,-0.09765625,52.55126953125,6.1279296875
5.751,-0.510498046875,0.76953125,-0.031005859375,-92.041015625,73.6083984375,-56.0302734375,-0.09765625,52.55126953125,6.1279296875
5.79,-0.7322998046875,1.0987548828125,-0.10546875,-88.8671875,99.30419921875,-70.73974609375,-0.09765625,52.55126953125,6.1279296875
5.791,-0.7322998046875,1.0987548828125,-0.10546875,-88.8671875,99.30419921875,-70.73974609375,-2.1484375,52.9052734375,7.06787109375
5.834,-0.7977294921875,1.0628662109375,-0.068115234375,-73.91357421875,115.1123046875,-77.2705078125,-2.1484375,52.9052734375,7.06787109375
5.835,-0.7977294921875,1.0628662109375,-0.068115234375,-73.91357421875,115.1123046875,-77.2705078125,-4.6630859375,54.4189453125,2.9296875
5.842,-0.7977294921875,1.0628662109375,-0.068115234375,-73.91357421875,115.1123046875,-77.2705078125,-4.6630859375,54.4189453125,2.9296875
5.874,-0.7977294921875,1.0628662109375,-0.068115234375,-73.91357421875,115.1123046875,-77.2705078125,-4.6630859375,54.4189453125,2.9296875
5.879,-0.5960693359375,0.9384765625,-0.0919189453125,-73.91357421875,115.1123046875,-77.2705078125,-4.6630859375,54.4189453125,2.9296875
5.88,-0.5960693359375,0.9384765625,-0.0919189453125,-67.626953125,113.83056640625,-75.98876953125,-6.97021484375,54.50439453125,1.953125
5.924,-0.6005859375,0.9510498046875,-0.0150146484375,-42.48046875,121.27685546875,-36.43798828125,-6.97021484375,54.50439453125,1.953125
5.925,-0.6005859375,0.9510498046875,-0.0150146484375,-42.48046875,121.27685546875,-36.43798828125,-7.04345703125,54.0283203125,1.74560546875
5.944,-0.6005859375,0.9510498046875,-0.0150146484375,-42.48046875,121.27685546875,-36.43798828125,-7.04345703125,54.0283203125,1.74560546875
5.956,-0.6005859375,0.9510498046875,-0.0150146484375,-42.48046875,121.27685546875,-36.43798828125,-7.04345703125,54.0283203125,1.74560546875
5.969,-0.676025390625,0.938232421875,0.1451416015625,-42.48046875,121.27685546875,-36.43798828125,-7.04345703125,54.0283203125,1.74560546875
5.97,-0.676025390625,0.938232421875,0.1451416015625,-58.59375,120.9716796875,-59.6923828125,-8.30078125,54.65087890625,0.59814453125
6.014,-0.8642578125,0.9229736328125,0.2750244140625,-111.99951171875,135.31494140625,-155.82275390625,-8.30078125,54.65087890625,0.59814453125
6.015,-0.8642578125,0.9229736328125,0.2750244140625,-111.99951171875,135.31494140625,-155.82275390625,-10.888671875,54.3212890625,-2.6123046875
6.017,-0.8642578125,0.9229736328125,0.2750244140625,-111.99951171875,135.31494140625,-155.82275390625,-10.888671875,54.3212890625,-2.6123046875
6.059,-0.8031005859375,1.13671875,0.035888671875,-111.99951171875,135.31494140625,-155.82275390625,-10.888671875,54.3212890625,-2.6123046875
6.06,-0.596923828125,0.966064453125,-0.0255126953125,-97.900390625,144.47021484375,-166.8701171875,-10.888671875,54.3212890625,-2.6123046875
6.066,-0.596923828125,0.966064453125,-0.0255126953125,-97.900390625,144.47021484375,-166.8701171875,-10.888671875,54.3212890625,-2.6123046875
6.105,-0.5185546875,0.9617919921875,-0.136474609375,-97.900390625,144.47021484375,-166.8701171875,-12.8173828125,52.3681640625,-4.99267578125
6.106,-0.5185546875,0.9617919921875,-0.136474609375,-98.81591796875,144.59228515625,-179.6875,-12.8173828125,52.3681640625,-4.99267578125
6.132,-0.5185546875,0.9617919921875,-0.136474609375,-98.81591796875,144.59228515625,-179.6875,-12.8173828125,52.3681640625,-4.99267578125
6.149,-0.4715576171875,0.9580078125,-0.1768798828125,-98.81591796875,144.59228515625,-179.6875,-12.8173828125,52.3681640625,-4.99267578125
6.15,-0.4715576171875,0.9580078125,-0.1768798828125,-88.7451171875,127.9296875,-192.87109375,-14.78271484375,50.81787109375,-6.3232421875
6.174,-0.4715576171875,0.9580078125,-0.1768798828125,-88.7451171875,127.9296875,-192.87109375,-14.78271484375,50.81787109375,-6.3232421875
6.195,-0.3316650390625,0.8212890625,-0.293701171875,-88.623046875,95.5810546875,-194.091796875,-16.88232421875,48.25439453125,-9.1064453125
6.24,-0.405517578125,0.7811279296875,-0.36572265625,-120.91064453125,110.2294921875,-154.296875,-16.88232421875,48.25439453125,-9.1064453125
6.241,-0.405517578125,0.7811279296875,-0.36572265625,-120.91064453125,110.2294921875,-154.296875,-18.26171875,45.32470703125,-11.95068359375
6.244,-0.405517578125,0.7811279296875,-0.36572265625,-120.91064453125,110.2294921875,-154.296875,-18.26171875,45.32470703125,-11.95068359375
6.255,-0.405517578125,0.7811279296875,-0.36572265625,-120.91064453125,110.2294921875,-154.296875,-18.26171875,45.32470703125,-11.95068359375
6.284,-0.256103515625,0.6617431640625,-0.597900390625,-120.91064453125,110.2294921875,-154.296875,-18.26171875,45.32470703125,-11.95068359375
6.285,-0.256103515625,0.6617431640625,-0.597900390625,-66.10107421875,67.32177734375,-135.68115234375,-18.15185546875,42.29736328125,-12.6953125
6.322,-0.256103515625,0.6617431640625,-0.597900390625,-66.10107421875,67.32177734375,-135.68115234375,-18.15185546875,42.29736328125,-12.6953125
6.33,-0.1298828125,0.6339111328125,-0.65673828125,-91.61376953125,53.16162109375,-121.88720703125,-18.1884765625,38.87939453125,-13.8427734375
6.365,-0.1298828125,0.6339111328125,-0.65673828125,-91.61376953125,53.16162109375,-121.88720703125,-18.1884765625,38.87939453125,-13.8427734375
6.374,-0.2265625,0.668212890625,-1.030517578125,-74.15771484375,37.9638671875,-105.77392578125,-18.1884765625,38.87939453125,-13.8427734375
6.375,-0.2265625,0.668212890625,-1.030517578125,-74.15771484375,37.9638671875,-105.77392578125,-17.32177734375,34.94873046875,-14.84375
6.419,-0.1092529296875,0.3209228515625,-1.1011962890625,68.66455078125,40.71044921875,-138.3056640625,-17.32177734375,34.94873046875,-14.84375
6.42,-0.42431640625,0.47216796875,-1.049560546875,68.66455078125,40.71044921875,-138.3056640625,-17.32177734375,34.94873046875,-14.84375
6.43,-0.42431640625,0.47216796875,-1.049560546875,68.66455078125,40.71044921875,-138.3056640625,-17.32177734375,34.94873046875,-14.84375
6.464,-0.42431640625,0.47216796875,-1.049560546875,53.03955078125,51.57470703125,-137.20703125,-15.91796875,33.65478515625,-15.72265625
6.465,-0.3817138671875,0.367919921875,-0.966064453125,53.03955078125,51.57470703125,-137.20703125,-15.91796875,33.65478515625,-15.72265625
6.478,-0.3817138671875,0.367919921875,-0.966064453125,53.03955078125,51.57470703125,-137.20703125,-15.91796875,33.65478515625,-15.72265625
6.509,-0.3817138671875,0.367919921875,-0.966064453125,-42.48046875,38.63525390625,-141.05224609375,-15.05126953125,31.94580078125,-15.19775390625
6.51,-0.404052734375,0.515625,-1.0023193359375,-42.48046875,38.63525390625,-141.05224609375,-15.05126953125,31.94580078125,-15.19775390625
6.544,-0.404052734375,0.515625,-1.0023193359375,-42.48046875,38.63525390625,-141.05224609375,-15.05126953125,31.94580078125,-15.19775390625
6.554,-0.404052734375,0.515625,-1.0023193359375,-118.22509765625,24.90234375,-148.01025390625,-15.05126953125,31.94580078125,-15.19775390625
6.555,0.067626953125,-0.1475830078125,-1.02099609375,-118.22509765625,24.90234375,-148.01025390625,-13.6962890625,28.94287109375,-14.9658203125
6.556,0.067626953125,-0.1475830078125,-1.02099609375,-118.22509765625,24.90234375,-148.01025390625,-13.6962890625,28.94287109375,-14.9658203125
6.599,0.067626953125,-0.1475830078125,-1.02099609375,39.6728515625,-55.84716796875,-128.2958984375,-13.6962890625,28.94287109375,-14.9658203125
6.6,-0.0670166015625,0.1041259765625,-0.9234619140625,39.6728515625,-55.84716796875,-128.2958984375,-12.1337890625,27.50244140625,-14.35546875
6.628,-0.0670166015625,0.1041259765625,-0.9234619140625,39.6728515625,-55.84716796875,-128.2958984375,-12.1337890625,27.50244140625,-14.35546875
6.651,0.0313720703125,0.3916015625,-1.0389404296875,60.60791015625,29.4189453125,-136.41357421875,-11.2060546875,28.11279296875,-15.2099609375
6.665,0.0313720703125,0.3916015625,-1.0389404296875,60.60791015625,29.4189453125,-136.41357421875,-11.2060546875,28.11279296875,-15.2099609375
6.689,0.0313720703125,0.3916015625,-1.0389404296875,64.88037109375,0.9765625,-134.521484375,-9.31396484375,28.45458984375,-16.2353515625
6.69,0.19921875,0.3153076171875,-0.8179931640625,64.88037109375,0.9765625,-134.521484375,-9.31396484375,28.45458984375,-16.2353515625
6.734,0.19921875,0.3153076171875,-0.8179931640625,80.9326171875,1.8310546875,-185.97412109375,-7.55615234375,29.6142578125,-17.4072265625
6.735,-0.0257568359375,0.3204345703125,-0.8291015625,80.9326171875,1.8310546875,-185.97412109375,-7.55615234375,29.6142578125,-17.4072265625
6.742,-0.0257568359375,0.3204345703125,-0.8291015625,80.9326171875,1.8310546875,-185.97412109375,-7.55615234375,29.6142578125,-17.4072265625
6.779,0.110107421875,0.3883056640625,-0.7076416015625,81.48193359375,55.0537109375,-172.91259765625,-7.55615234375,29.6142578125,-17.4072265625
6.78,0.110107421875,0.3883056640625,-0.7076416015625,53.89404296875,122.9248046875,-178.1005859375,-7.55615234375,29.6142578125,-17.4072265625
6.812,0.110107421875,0.3883056640625,-0.7076416015625,53.89404296875,122.9248046875,-178.1005859375,-7.55615234375,29.6142578125,-17.4072265625
6.824,-0.4910888671875,0.37158203125,-0.82275390625,53.89404296875,122.9248046875,-178.1005859375,-3.80859375,30.48095703125,-17.76123046875
6.825,-0.4910888671875,0.37158203125,-0.82275390625,95.88623046875,126.15966796875,-183.28857421875,-3.80859375,30.48095703125,-17.76123046875
6.85,-0.4910888671875,0.37158203125,-0.82275390625,95.88623046875,126.15966796875,-183.28857421875,-3.80859375,30.48095703125,-17.76123046875
6.856,-0.4910888671875,0.37158203125,-0.82275390625,95.88623046875,126.15966796875,-183.28857421875,-3.80859375,30.48095703125,-17.76123046875
6.869,-0.510009765625,0.729736328125,-1.45751953125,95.88623046875,126.15966796875,-183.28857421875,-0.20751953125,32.080078125,-18.45703125
6.87,-0.510009765625,0.729736328125,-1.45751953125,30.517578125,157.1044921875,-193.54248046875,-0.20751953125,32.080078125,-18.45703125
6.914,-0.58349609375,0.702880859375,-1.4896240234375,22.4609375,95.703125,-226.6845703125,-0.20751953125,32.080078125,-18.45703125
6.915,-0.58349609375,0.702880859375,-1.4896240234375,22.4609375,95.703125,-226.6845703125,3.5400390625,34.53369140625,-18.02978515625
6.922,-0.58349609375,0.702880859375,-1.4896240234375,22.4609375,95.703125,-226.6845703125,3.5400390625,34.53369140625,-18.02978515625
6.959,-0.4779052734375,0.4510498046875,-1.4923095703125,-2.3193359375,56.0302734375,-200.8056640625,3.5400390625,34.53369140625,-18.02978515625
7.004,-0.4779052734375,0.4510498046875,-1.4923095703125,-2.3193359375,56.0302734375,-200.8056640625,5.1025390625,37.56103515625,-15.66162109375
7.005,-0.274169921875,0.2843017578125,-1.2572021484375,20.69091796875,8.36181640625,-241.88232421875,5.1025390625,37.56103515625,-15.66162109375
7.006,-0.274169921875,0.2843017578125,-1.2572021484375,20.69091796875,8.36181640625,-241.88232421875,5.517578125,39.61181640625,-17.32177734375
7.029,-0.274169921875,0.2843017578125,-1.2572021484375,20.69091796875,8.36181640625,-241.88232421875,5.517578125,39.61181640625,-17.32177734375
7.044,-0.274169921875,0.2843017578125,-1.2572021484375,20.69091796875,8.36181640625,-241.88232421875,5.517578125,39.61181640625,-17.32177734375
7.049,-0.093017578125,0.1165771484375,-0.916259765625,20.69091796875,8.36181640625,-241.88232421875,5.517578125,39.61181640625,-17.32177734375
7.05,-0.093017578125,0.1165771484375,-0.916259765625,70.37353515625,-27.89306640625,-165.34423828125,3.466796875,42.431640625,-16.11328125
7.078,-0.093017578125,0.1165771484375,-0.916259765625,70.37353515625,-27.89306640625,-165.34423828125,3.466796875,42.431640625,-16.11328125
7.094,-0.081787109375,0.310791015625,-0.9996337890625,-67.93212890625,124.93896484375,-108.7646484375,3.466796875,42.431640625,-16.11328125
7.095,-0.081787109375,0.310791015625,-0.9996337890625,-67.93212890625,124.93896484375,-108.7646484375,3.466796875,43.2373046875,-13.61083984375
7.139,-0.3726806640625,0.3692626953125,-1.2569580078125,-67.93212890625,124.93896484375,-108.7646484375,3.466796875,43.2373046875,-13.61083984375
7.14,-0.3726806640625,0.3692626953125,-1.2569580078125,-5.67626953125,-5.9814453125,-108.58154296875,2.9541015625,44.39697265625,-15.8447265625
7.15,-0.3726806640625,0.3692626953125,-1.2569580078125,-5.67626953125,-5.9814453125,-108.58154296875,2.9541015625,44.39697265625,-15.8447265625
7.156,-0.3726806640625,0.3692626953125,-1.2569580078125,-5.67626953125,-5.9814453125,-108.58154296875,2.9541015625,44.39697265625,-15.8447265625
7.184,-0.359130859375,0.3394775390625,-0.9029541015625,7.8125,-3.41796875,-110.41259765625,2.9541015625,44.39697265625,-15.8447265625
7.185,-0.0582275390625,0.14306640625,-0.86865234375,7.8125,-3.41796875,-110.41259765625,2.9541015625,44.39697265625,-15.8447265625
7.222,-0.0582275390625,0.14306640625,-0.86865234375,7.8125,-3.41796875,-110.41259765625,2.9541015625,44.39697265625,-15.8447265625
7.23,-0.0267333984375,0.0723876953125,-0.8150634765625,-19.775390625,-26.3671875,-134.3994140625,1.72119140625,44.86083984375,-16.6748046875
7.266,-0.0267333984375,0.0723876953125,-0.8150634765625,-19.775390625,-26.3671875,-134.3994140625,1.72119140625,44.86083984375,-16.6748046875
7.274,-0.0372314453125,-0.0269775390625,-0.7598876953125,47.54638671875,-4.69970703125,-105.224609375,1.72119140625,44.86083984375,-16.6748046875
7.276,-0.0372314453125,-0.0269775390625,-0.7598876953125,47.54638671875,-4.69970703125,-105.224609375,-0.98876953125,45.947265625,-15.5029296875
7.319,0.2750244140625,-0.1553955078125,-0.956298828125,77.08740234375,-65.97900390625,-130.4931640625,-0.98876953125,45.947265625,-15.5029296875
7.32,0.2750244140625,-0.1553955078125,-0.956298828125,77.08740234375,-65.97900390625,-130.4931640625,-2.197265625,46.77734375,-15.3076171875
7.33,0.2750244140625,-0.1553955078125,-0.956298828125,77.08740234375,-65.97900390625,-130.4931640625,-2.197265625,46.77734375,-15.3076171875
7.364,0.3011474609375,0.02685546875,-1.0704345703125,32.71484375,63.17138671875,-117.67578125,-2.197265625,46.77734375,-15.3076171875
7.365,0.3011474609375,0.02685546875,-1.0704345703125,32.71484375,63.17138671875,-117.67578125,-5.224609375,48.828125,-14.83154296875
7.374,0.3011474609375,0.02685546875,-1.0704345703125,32.71484375,63.17138671875,-117.67578125,-5.224609375,48.828125,-14.83154296875
7.409,0.2763671875,0.1031494140625,-1.08447265625,32.71484375,63.17138671875,-117.67578125,-5.224609375,48.828125,-14.83154296875
7.41,0.2763671875,0.1031494140625,-1.08447265625,-12.51220703125,39.97802734375,-54.8095703125,-5.70068359375,48.7060546875,-14.453125
7.439,0.2763671875,0.1031494140625,-1.08447265625,-12.51220703125,39.97802734375,-54.8095703125,-5.70068359375,48.7060546875,-14.453125
7.454,0.116455078125,-0.093994140625,-1.4207763671875,-62.8662109375,24.71923828125,-23.01025390625,-5.70068359375,48.7060546875,-14.453125
7.455,0.116455078125,-0.093994140625,-1.4207763671875,-62.8662109375,24.71923828125,-23.01025390625,-6.01806640625,48.6572265625,-14.44091796875
7.499,0.1817626953125,-0.4451904296875,-1.1680908203125,-62.8662109375,24.71923828125,-23.01025390625,-6.01806640625,48.6572265625,-14.44091796875
7.5,0.1817626953125,-0.4451904296875,-1.1680908203125,-3.35693359375,26.85546875,-9.27734375,-5.5908203125,48.681640625,-16.00341796875
7.532,0.1817626953125,-0.4451904296875,-1.1680908203125,-3.35693359375,26.85546875,-9.27734375,-5.5908203125,48.681640625,-16.00341796875
7.544,0.126953125,-0.320556640625,-1.09716796875,-21.66748046875,-22.27783203125,-19.4091796875,-5.5908203125,48.681640625,-16.00341796875
7.545,0.126953125,-0.320556640625,-1.09716796875,-21.66748046875,-22.27783203125,-19.4091796875,-5.1513671875,47.39990234375,-15.00244140625
7.562,0.126953125,-0.320556640625,-1.09716796875,-21.66748046875,-22.27783203125,-19.4091796875,-5.1513671875,47.39990234375,-15.00244140625
7.589,0.046142578125,-0.18896484375,-0.9822998046875,-38.26904296875,-59.4482421875,-3.41796875,-5.1513671875,47.39990234375,-15.00244140625
7.59,0.19287109375,-0.27294921875,-0.907470703125,-38.26904296875,-59.4482421875,-3.41796875,-5.1513671875,47.39990234375,-15.00244140625
7.631,0.19287109375,-0.27294921875,-0.907470703125,-38.26904296875,-59.4482421875,-3.41796875,-5.1513671875,47.39990234375,-15.00244140625
7.634,0.19287109375,-0.27294921875,-0.907470703125,-21.78955078125,-56.5185546875,-13.61083984375,-6.6650390625,47.05810546875,-15.966796875
7.635,0.201171875,-0.1771240234375,-0.7821044921875,-21.78955078125,-56.5185546875,-13.61083984375,-6.6650390625,47.05810546875,-15.966796875
7.678,0.201171875,-0.1771240234375,-0.7821044921875,-21.78955078125,-56.5185546875,-13.61083984375,-6.6650390625,47.05810546875,-15.966796875
7.698,0.267333984375,-0.06591796875,-0.7747802734375,5.37109375,-34.60693359375,-34.0576171875,-8.19091796875,46.93603515625,-16.02783203125
7.724,0.267333984375,-0.06591796875,-0.7747802734375,20.93505859375,-45.34912109375,-40.283203125,-9.28955078125,47.6318359375,-14.794921875
7.725,0.271240234375,0.020263671875,-0.807373046875,20.93505859375,-45.34912109375,-40.283203125,-9.28955078125,47.6318359375,-14.794921875
7.743,0.271240234375,0.020263671875,-0.807373046875,20.93505859375,-45.34912109375,-40.283203125,-9.28955078125,47.6318359375,-14.794921875
7.757,0.271240234375,0.020263671875,-0.807373046875,20.93505859375,-45.34912109375,-40.283203125,-9.28955078125,47.6318359375,-14.794921875
7.769,0.271240234375,0.020263671875,-0.807373046875,24.7802734375,-8.11767578125,-68.2373046875,-10.16845703125,47.8271484375,-14.48974609375
7.77,0.197509765625,0.0732421875,-0.8043212890625,24.7802734375,-8.11767578125,-68.2373046875,-10.16845703125,47.8271484375,-14.48974609375
7.814,0.197509765625,0.0732421875,-0.8043212890625,41.56494140625,9.8876953125,-83.43505859375,-11.41357421875,48.1201171875,-14.2578125
7.815,0.1676025390625,0.08740234375,-0.893798828125,41.56494140625,9.8876953125,-83.43505859375,-11.41357421875,48.1201171875,-14.2578125
7.817,0.1676025390625,0.08740234375,-0.893798828125,41.56494140625,9.8876953125,-83.43505859375,-11.41357421875,48.1201171875,-14.2578125
7.859,0.1676025390625,0.08740234375,-0.893798828125,53.3447265625,6.8359375,-74.5849609375,-11.9384765625,48.583984375,-13.671875
7.86,0.1693115234375,0.1195068359375,-0.869384765625,53.3447265625,6.8359375,-74.5849609375,-11.9384765625,48.583984375,-13.671875
7.866,0.1693115234375,0.1195068359375,-0.869384765625,53.3447265625,6.8359375,-74.5849609375,-11.9384765625,48.583984375,-13.671875
7.904,0.1693115234375,0.1195068359375,-0.869384765625,32.3486328125,6.34765625,-59.14306640625,-11.9384765625,48.583984375,-13.671875
7.905,0.257568359375,0.099609375,-0.9267578125,32.3486328125,6.34765625,-59.14306640625,-13.43994140625,49.3408203125,-13.39111328125
7.944,0.257568359375,0.099609375,-0.9267578125,32.3486328125,6.34765625,-59.14306640625,-13.43994140625,49.3408203125,-13.39111328125
7.949,0.2781982421875,0.1864013671875,-1.138427734375,67.81005859375,9.94873046875,-64.27001953125,-13.43994140625,49.3408203125,-13.39111328125
7.95,0.2781982421875,0.1864013671875,-1.138427734375,95.52001953125,63.720703125,-98.44970703125,-13.43994140625,49.3408203125,-13.39111328125
7.974,0.2781982421875,0.1864013671875,-1.138427734375,95.52001953125,63.720703125,-98.44970703125,-13.43994140625,49.3408203125,-13.39111328125
7.994,0.231689453125,0.197021484375,-1.1690673828125,95.52001953125,63.720703125,-98.44970703125,-13.43994140625,49.3408203125,-13.39111328125
7.996,0.231689453125,0.197021484375,-1.1690673828125,53.64990234375,94.66552734375,-106.3232421875,-13.90380859375,49.32861328125,-11.70654296875
8.039,0.024658203125,0.1680908203125,-1.2469482421875,53.64990234375,94.66552734375,-106.3232421875,-13.90380859375,49.32861328125,-11.70654296875
8.04,0.024658203125,0.1680908203125,-1.2469482421875,15.93017578125,85.5712890625,-57.92236328125,-13.90380859375,49.32861328125,-11.70654296875
8.041,0.024658203125,0.1680908203125,-1.2469482421875,15.93017578125,85.5712890625,-57.92236328125,-14.12353515625,49.54833984375,-11.9140625
8.042,0.024658203125,0.1680908203125,-1.2469482421875,15.93017578125,85.5712890625,-57.92236328125,-14.12353515625,49.54833984375,-11.9140625
8.057,0.024658203125,0.1680908203125,-1.2469482421875,15.93017578125,85.5712890625,-57.92236328125,-14.12353515625,49.54833984375,-11.9140625
8.084,-0.08056640625,0.253662109375,-1.225830078125,15.93017578125,85.5712890625,-57.92236328125,-14.12353515625,49.54833984375,-11.9140625
8.085,-0.08056640625,0.253662109375,-1.225830078125,1.8310546875,75.25634765625,-31.79931640625,-14.12353515625,49.54833984375,-11.9140625
8.086,-0.08056640625,0.253662109375,-1.225830078125,1.8310546875,75.25634765625,-31.79931640625,-13.31787109375,48.76708984375,-13.39111328125
8.129,0.0050048828125,0.243408203125,-1.15234375,1.8310546875,75.25634765625,-31.79931640625,-13.31787109375,48.76708984375,-13.39111328125
8.13,0.0050048828125,0.243408203125,-1.15234375,10.986328125,47.66845703125,-23.5595703125,-12.6953125,48.91357421875,-13.427734375
8.132,0.0050048828125,0.243408203125,-1.15234375,10.986328125,47.66845703125,-23.5595703125,-12.6953125,48.91357421875,-13.427734375
8.162,0.0050048828125,0.243408203125,-1.15234375,10.986328125,47.66845703125,-23.5595703125,-12.6953125,48.91357421875,-13.427734375
8.174,0.002197265625,0.2735595703125,-1.1456298828125,6.04248046875,19.287109375,0.8544921875,-12.6953125,48.91357421875,-13.427734375
8.175,0.002197265625,0.2735595703125,-1.1456298828125,6.04248046875,19.287109375,0.8544921875,-12.56103515625,49.69482421875,-13.3544921875
8.219,0.0989990234375,0.371826171875,-1.1358642578125,6.8359375,-0.9765625,-2.8076171875,-12.56103515625,49.69482421875,-13.3544921875
8.22,0.0989990234375,0.371826171875,-1.1358642578125,6.8359375,-0.9765625,-2.8076171875,-12.8662109375,49.27978515625,-12.890625
8.23,0.0989990234375,0.371826171875,-1.1358642578125,6.8359375,-0.9765625,-2.8076171875,-12.8662109375,49.27978515625,-12.890625
8.264,0.0677490234375,0.4307861328125,-1.0885009765625,-9.21630859375,-1.5869140625,-7.2021484375,-12.8662109375,49.27978515625,-12.890625
8.265,0.0677490234375,0.4307861328125,-1.0885009765625,-9.21630859375,-1.5869140625,-7.2021484375,-12.41455078125,49.67041015625,-12.451171875
8.272,0.0677490234375,0.4307861328125,-1.0885009765625,-9.21630859375,-1.5869140625,-7.2021484375,-12.41455078125,49.67041015625,-12.451171875
8.309,0.0294189453125,0.4642333984375,-1.0291748046875,-9.21630859375,-1.5869140625,-7.2021484375,-12.41455078125,49.67041015625,-12.451171875
8.339,0.0294189453125,0.4642333984375,-1.0291748046875,-9.21630859375,-1.5869140625,-7.2021484375,-12.41455078125,49.67041015625,-12.451171875
8.354,0.0294189453125,0.4642333984375,-1.0291748046875,-8.36181640625,-17.15087890625,-13.5498046875,-12.41455078125,49.67041015625,-12.451171875
8.355,0.006103515625,0.4425048828125,-0.9796142578125,-10.92529296875,-17.27294921875,-14.892578125,-12.41455078125,49.67041015625,-12.451171875
8.399,0.0302734375,0.0914306640625,-0.7857666015625,-10.92529296875,-17.27294921875,-14.892578125,-13.037109375,48.44970703125,-13.134765625
8.4,0.0302734375,0.0914306640625,-0.7857666015625,-37.29248046875,16.17431640625,-12.3291015625,-13.037109375,48.44970703125,-13.134765625
8.421,0.0302734375,0.0914306640625,-0.7857666015625,-37.29248046875,16.17431640625,-12.3291015625,-13.037109375,48.44970703125,-13.134765625
8.444,0.0302734375,0.0914306640625,-0.7857666015625,-37.29248046875,16.17431640625,-12.3291015625,-12.53662109375,48.73046875,-13.0615234375
8.466,0.0302734375,0.0914306640625,-0.7857666015625,-37.29248046875,16.17431640625,-12.3291015625,-12.53662109375,48.73046875,-13.0615234375
8.489,0.036376953125,0.0919189453125,-0.9410400390625,-33.75244140625,14.09912109375,-7.50732421875,-12.53662109375,48.73046875,-13.0615234375
8.49,0.036376953125,0.0919189453125,-0.9410400390625,-33.75244140625,14.09912109375,-7.50732421875,-12.97607421875,47.79052734375,-13.6474609375
8.534,0.009033203125,0.0660400390625,-1.012451171875,-33.75244140625,14.09912109375,-7.50732421875,-12.97607421875,47.79052734375,-13.6474609375
8.535,0.009033203125,0.0660400390625,-1.012451171875,-32.65380859375,-1.52587890625,12.02392578125,-12.890625,46.630859375,-14.58740234375
8.541,0.009033203125,0.0660400390625,-1.012451171875,-32.65380859375,-1.52587890625,12.02392578125,-12.890625,46.630859375,-14.58740234375
8.574,0.009033203125,0.0660400390625,-1.012451171875,-32.65380859375,-1.52587890625,12.02392578125,-12.890625,46.630859375,-14.58740234375
8.579,-0.05712890625,0.1153564453125,-1.065673828125,-32.65380859375,-1.52587890625,12.02392578125,-12.890625,46.630859375,-14.58740234375
8.58,-0.05712890625,0.1153564453125,-1.065673828125,-38.9404296875,-8.7890625,25.0244140625,-12.1337890625,46.66748046875,-15.673828125
8.624,-0.115966796875,0.1353759765625,-1.051513671875,-38.9404296875,-8.7890625,25.0244140625,-12.1337890625,46.66748046875,-15.673828125
8.625,-0.115966796875,0.1353759765625,-1.051513671875,-29.541015625,-25.634765625,34.912109375,-13.29345703125,46.5576171875,-15.8203125
8.652,-0.115966796875,0.1353759765625,-1.051513671875,-29.541015625,-25.634765625,34.912109375,-13.29345703125,46.5576171875,-15.8203125
8.657,-0.115966796875,0.1353759765625,-1.051513671875,-29.541015625,-25.634765625,34.912109375,-13.29345703125,46.5576171875,-15.8203125
8.669,-0.0982666015625,0.1373291015625,-0.98291015625,-14.22119140625,-24.10888671875,27.099609375,-13.29345703125,46.5576171875,-15.8203125
8.67,0.00048828125,0.1031494140625,-0.958251953125,-14.22119140625,-24.10888671875,27.099609375,-13.29345703125,46.5576171875,-15.8203125
8.725,0.00048828125,0.1031494140625,-0.958251953125,-14.22119140625,-24.10888671875,27.099609375,-13.29345703125,46.5576171875,-15.8203125
8.733,0.004150390625,0.0963134765625,-0.967041015625,-25.2685546875,-2.01416015625,15.31982421875,-12.841796875,46.30126953125,-14.75830078125
8.759,-0.0028076171875,-0.0225830078125,-0.9932861328125,-18.798828125,-1.03759765625,28.86962890625,-12.841796875,46.30126953125,-14.75830078125
8.76,-0.0028076171875,-0.0225830078125,-0.9932861328125,-18.798828125,-1.03759765625,28.86962890625,-12.75634765625,45.95947265625,-15.00244140625
8.762,-0.0028076171875,-0.0225830078125,-0.9932861328125,-18.798828125,-1.03759765625,28.86962890625,-12.75634765625,45.95947265625,-15.00244140625
8.804,0.0072021484375,-0.0570068359375,-0.974609375,-18.798828125,-1.03759765625,28.86962890625,-12.75634765625,45.95947265625,-15.00244140625
8.805,0.0072021484375,-0.0570068359375,-0.974609375,-2.74658203125,-5.31005859375,16.29638671875,-12.21923828125,45.22705078125,-15.91796875
8.839,0.0072021484375,-0.0570068359375,-0.974609375,-2.74658203125,-5.31005859375,16.29638671875,-12.21923828125,45.22705078125,-15.91796875
8.849,0.0655517578125,-0.0382080078125,-1.091796875,-2.74658203125,-5.31005859375,16.29638671875,-12.21923828125,45.22705078125,-15.91796875
8.871,0.0655517578125,-0.0382080078125,-1.091796875,-2.74658203125,-5.31005859375,16.29638671875,-12.21923828125,45.22705078125,-15.91796875
8.894,0.0655517578125,-0.0382080078125,-1.091796875,-11.16943359375,-2.8076171875,11.8408203125,-12.31689453125,45.95947265625,-15.8935546875
8.895,-0.0277099609375,-0.0177001953125,-1.0567626953125,-11.16943359375,-2.8076171875,11.8408203125,-12.31689453125,45.95947265625,-15.8935546875
8.939,-0.0277099609375,-0.0177001953125,-1.0567626953125,-1.64794921875,-19.95849609375,18.310546875,-12.31689453125,45.95947265625,-15.8935546875
8.94,0.0966796875,-0.0711669921875,-0.9613037109375,-1.64794921875,-19.95849609375,18.310546875,-12.56103515625,45.7763671875,-15.673828125
8.948,0.0966796875,-0.0711669921875,-0.9613037109375,-1.64794921875,-19.95849609375,18.310546875,-12.56103515625,45.7763671875,-15.673828125
8.955,0.0966796875,-0.0711669921875,-0.9613037109375,-1.64794921875,-19.95849609375,18.310546875,-12.56103515625,45.7763671875,-15.673828125
8.984,0.0966796875,-0.0711669921875,-0.9613037109375,8.6669921875,-16.7236328125,2.44140625,-12.56103515625,45.7763671875,-15.673828125
8.985,0.1162109375,-0.094970703125,-0.8929443359375,8.6669921875,-16.7236328125,2.44140625,-12.95166015625,45.21484375,-15.380859375
9.029,0.1407470703125,-0.322265625,-0.8515625,-8.72802734375,-15.869140625,-1.28173828125,-12.95166015625,45.21484375,-15.380859375
9.03,0.1407470703125,-0.322265625,-0.8515625,-11.474609375,4.0283203125,1.03759765625,-12.95166015625,45.21484375,-15.380859375
9.031,0.1407470703125,-0.322265625,-0.8515625,-11.474609375,4.0283203125,1.03759765625,-12.95166015625,45.21484375,-15.380859375
9.066,0.1407470703125,-0.322265625,-0.8515625,-11.474609375,4.0283203125,1.03759765625,-12.95166015625,45.21484375,-15.380859375
9.074,0.12841796875,-0.319580078125,-1.2052001953125,-11.474609375,4.0283203125,1.03759765625,-13.0615234375,45.0439453125,-15.39306640625
9.075,0.12841796875,-0.319580078125,-1.2052001953125,36.4990234375,23.74267578125,-16.4794921875,-13.0615234375,45.0439453125,-15.39306640625
9.119,0.12841796875,-0.319580078125,-1.2052001953125,36.4990234375,23.74267578125,-16.4794921875,-12.75634765625,46.2158203125,-15.05126953125
9.141,0.12841796875,-0.319580078125,-1.2052001953125,36.4990234375,23.74267578125,-16.4794921875,-12.75634765625,46.2158203125,-15.05126953125
9.164,-0.0474853515625,-0.18505859375,-1.392333984375,21.17919921875,9.1552734375,-14.22119140625,-12.75634765625,46.2158203125,-15.05126953125
9.165,-0.041015625,-0.1644287109375,-1.3670654296875,21.17919921875,9.1552734375,-14.22119140625,-12.75634765625,46.2158203125,-15.05126953125
9.166,-0.041015625,-0.1644287109375,-1.3670654296875,-19.10400390625,-11.5966796875,13.671875,-12.75634765625,46.2158203125,-15.05126953125
9.174,-0.041015625,-0.1644287109375,-1.3670654296875,-19.10400390625,-11.5966796875,13.671875,-12.75634765625,46.2158203125,-15.05126953125
9.209,0.10693359375,-0.1424560546875,-0.789306640625,-19.10400390625,-11.5966796875,13.671875,-12.87841796875,45.93505859375,-13.83056640625
9.21,0.10693359375,-0.1424560546875,-0.789306640625,-17.88330078125,-30.76171875,21.6064453125,-12.87841796875,45.93505859375,-13.83056640625
9.248,0.10693359375,-0.1424560546875,-0.789306640625,-17.88330078125,-30.76171875,21.6064453125,-12.87841796875,45.93505859375,-13.83056640625
9.254,0.10693359375,-0.1424560546875,-0.789306640625,-17.88330078125,-30.76171875,21.6064453125,-12.255859375,45.654296875,-15.8447265625
9.255,0.195068359375,-0.1524658203125,-0.8094482421875,3.0517578125,-4.57763671875,0.6103515625,-12.255859375,45.654296875,-15.8447265625
9.257,0.195068359375,-0.1524658203125,-0.8094482421875,3.0517578125,-4.57763671875,0.6103515625,-12.255859375,45.654296875,-15.8447265625
9.299,0.1058349609375,-0.1796875,-0.9683837890625,3.0517578125,-4.57763671875,0.6103515625,-13.4033203125,45.78857421875,-15.85693359375
9.3,0.1058349609375,-0.1796875,-0.9683837890625,4.08935546875,13.48876953125,-5.37109375,-13.4033203125,45.78857421875,-15.85693359375
9.326,0.1058349609375,-0.1796875,-0.9683837890625,4.08935546875,13.48876953125,-5.37109375,-13.4033203125,45.78857421875,-15.85693359375
9.344,0.0826416015625,-0.0806884765625,-1.190185546875,4.08935546875,13.48876953125,-5.37109375,-13.57421875,45.66650390625,-14.599609375
9.345,0.0826416015625,-0.0806884765625,-1.190185546875,8.23974609375,8.72802734375,-3.5400390625,-13.57421875,45.66650390625,-14.599609375
9.366,0.0826416015625,-0.0806884765625,-1.190185546875,8.23974609375,8.72802734375,-3.5400390625,-13.57421875,45.66650390625,-14.599609375
9.389,0.0721435546875,-0.059814453125,-1.0760498046875,8.23974609375,8.72802734375,-3.5400390625,-12.85400390625,46.337890625,-16.0400390625
9.39,0.0721435546875,-0.059814453125,-1.0760498046875,-17.51708984375,-4.45556640625,3.7841796875,-12.85400390625,46.337890625,-16.0400390625
9.434,0.1434326171875,-0.074951171875,-0.9091796875,-17.51708984375,-4.45556640625,3.7841796875,-13.5009765625,45.71533203125,-14.1845703125
9.435,0.1434326171875,-0.074951171875,-0.9091796875,-10.986328125,-10.07080078125,5.0048828125,-13.5009765625,45.71533203125,-14.1845703125
9.438,0.1434326171875,-0.074951171875,-0.9091796875,-10.986328125,-10.07080078125,5.0048828125,-13.5009765625,45.71533203125,-14.1845703125
9.478,0.1434326171875,-0.074951171875,-0.9091796875,-10.986328125,-10.07080078125,5.0048828125,-13.5009765625,45.71533203125,-14.1845703125
9.479,0.1605224609375,-0.0887451171875,-0.928955078125,-10.986328125,-10.07080078125,5.0048828125,-13.29345703125,45.751953125,-14.31884765625
9.48,0.1605224609375,-0.0887451171875,-0.928955078125,-1.0986328125,3.96728515625,-6.9580078125,-13.29345703125,45.751953125,-14.31884765625
9.524,0.1380615234375,-0.09716796875,-0.9427490234375,11.41357421875,13.916015625,-7.4462890625,-13.29345703125,45.751953125,-14.31884765625
9.525,0.1380615234375,-0.09716796875,-0.9427490234375,11.41357421875,13.916015625,-7.4462890625,-13.22021484375,45.2880859375,-14.63623046875
9.54,0.1380615234375,-0.09716796875,-0.9427490234375,11.41357421875,13.916015625,-7.4462890625,-13.22021484375,45.2880859375,-14.63623046875
9.557,0.1380615234375,-0.09716796875,-0.9427490234375,11.41357421875,13.916015625,-7.4462890625,-13.22021484375,45.2880859375,-14.63623046875
9.569,0.1142578125,-0.1280517578125,-1.0172119140625,11.41357421875,13.916015625,-7.4462890625,-13.22021484375,45.2880859375,-14.63623046875
9.57,0.1142578125,-0.1280517578125,-1.0172119140625,21.78955078125,7.14111328125,-4.2724609375,-12.65869140625,45.66650390625,-15.13671875
9.614,0.1500244140625,-0.037353515625,-1.077392578125,4.82177734375,-5.0048828125,-9.09423828125,-12.65869140625,45.66650390625,-15.13671875
9.615,0.1500244140625,-0.037353515625,-1.077392578125,4.82177734375,-5.0048828125,-9.09423828125,-12.890625,45.69091796875,-13.73291015625
9.623,0.1500244140625,-0.037353515625,-1.077392578125,4.82177734375,-5.0048828125,-9.09423828125,-12.890625,45.69091796875,-13.73291015625
9.659,0.0799560546875,0.0599365234375,-1.0419921875,-3.96728515625,-18.4326171875,-14.58740234375,-12.890625,45.69091796875,-13.73291015625
9.66,0.0799560546875,0.0599365234375,-1.0419921875,-3.96728515625,-18.4326171875,-14.58740234375,-13.232421875,46.09375,-15.12451171875
9.666,0.0799560546875,0.0599365234375,-1.0419921875,-3.96728515625,-18.4326171875,-14.58740234375,-13.232421875,46.09375,-15.12451171875
9.704,0.1524658203125,-0.011962890625,-0.861083984375,5.31005859375,10.92529296875,-31.1279296875,-13.232421875,46.09375,-15.12451171875
9.705,0.1524658203125,-0.011962890625,-0.861083984375,5.31005859375,10.92529296875,-31.1279296875,-13.6962890625,45.41015625,-15.36865234375
9.741,0.1524658203125,-0.011962890625,-0.861083984375,5.31005859375,10.92529296875,-31.1279296875,-13.6962890625,45.41015625,-15.36865234375
9.762,0.054931640625,-0.12744140625,-0.9317626953125,5.31005859375,10.92529296875,-31.1279296875,-13.6962890625,45.41015625,-15.36865234375
9.763,0.054931640625,-0.12744140625,-0.9317626953125,15.869140625,11.90185546875,-32.77587890625,-14.27001953125,46.1181640625,-15.61279296875
9.778,0.054931640625,-0.12744140625,-0.9317626953125,15.869140625,11.90185546875,-32.77587890625,-14.27001953125,46.1181640625,-15.61279296875
9.794,0.0093994140625,-0.1728515625,-1.04345703125,16.29638671875,5.37109375,-25.2685546875,-14.27001953125,46.1181640625,-15.61279296875
9.839,0.0205078125,-0.1513671875,-1.060791015625,16.29638671875,5.37109375,-25.2685546875,-14.46533203125,45.47119140625,-13.916015625
9.84,0.0205078125,-0.1513671875,-1.060791015625,14.95361328125,2.8076171875,-20.263671875,-14.46533203125,45.47119140625,-13.916015625
9.841,0.0506591796875,-0.15869140625,-0.9849853515625,14.95361328125,2.8076171875,-20.263671875,-14.46533203125,45.47119140625,-13.916015625
9.844,0.0506591796875,-0.15869140625,-0.9849853515625,14.95361328125,2.8076171875,-20.263671875,-14.46533203125,45.47119140625,-13.916015625
9.855,0.0506591796875,-0.15869140625,-0.9849853515625,14.95361328125,2.8076171875,-20.263671875,-14.46533203125,45.47119140625,-13.916015625
9.884,0.058349609375,-0.1546630859375,-0.9869384765625,14.95361328125,2.8076171875,-20.263671875,-14.46533203125,45.47119140625,-13.916015625
9.885,0.058349609375,-0.1546630859375,-0.9869384765625,20.32470703125,7.4462890625,-17.39501953125,-13.76953125,45.8740234375,-15.8203125
9.917,0.058349609375,-0.1546630859375,-0.9869384765625,20.32470703125,7.4462890625,-17.39501953125,-13.76953125,45.8740234375,-15.8203125
9.929,0.1015625,-0.1334228515625,-1.000244140625,23.92578125,12.0849609375,-20.20263671875,-13.76953125,45.8740234375,-15.8203125
9.93,0.1015625,-0.1334228515625,-1.000244140625,23.92578125,12.0849609375,-20.20263671875,-14.013671875,46.15478515625,-13.83056640625
9.965,0.1015625,-0.1334228515625,-1.000244140625,23.92578125,12.0849609375,-20.20263671875,-14.013671875,46.15478515625,-13.83056640625
9.974,0.032958984375,-0.102294921875,-0.977294921875,38.57421875,4.33349609375,-18.73779296875,-14.013671875,46.15478515625,-13.83056640625
9.975,0.032958984375,-0.102294921875,-0.977294921875,38.57421875,4.33349609375,-18.73779296875,-14.78271484375,46.10595703125,-14.1357421875
10.019,0.03857421875,0.0238037109375,-0.9141845703125,41.50390625,29.84619140625,-30.45654296875,-14.78271484375,46.10595703125,-14.1357421875
10.02,0.03857421875,0.0238037109375,-0.9141845703125,41.50390625,29.84619140625,-30.45654296875,-14.02587890625,47.03369140625,-12.48779296875
10.032,0.03857421875,0.0238037109375,-0.9141845703125,41.50390625,29.84619140625,-30.45654296875,-14.02587890625,47.03369140625,-12.48779296875
10.065,0.0404052734375,0.12060546875,-1.0078125,41.50390625,29.84619140625,-30.45654296875,-14.02587890625,47.03369140625,-12.48779296875
10.066,0.0404052734375,0.12060546875,-1.0078125,25.57373046875,45.2880859375,-41.9921875,-14.5263671875,47.3876953125,-14.2822265625
10.078,0.0404052734375,0.12060546875,-1.0078125,25.57373046875,45.2880859375,-41.9921875,-14.5263671875,47.3876953125,-14.2822265625
10.109,-0.098876953125,0.185791015625,-1.0849609375,13.12255859375,26.79443359375,-26.85546875,-14.5263671875,47.3876953125,-14.2822265625
10.11,-0.098876953125,0.185791015625,-1.0849609375,13.12255859375,26.79443359375,-26.85546875,-14.013671875,47.36328125,-13.97705078125
10.139,-0.098876953125,0.185791015625,-1.0849609375,13.12255859375,26.79443359375,-26.85546875,-14.013671875,47.36328125,-13.97705078125
10.154,-0.1103515625,0.221435546875,-1.0301513671875,13.12255859375,26.79443359375,-26.85546875,-14.013671875,47.36328125,-13.97705078125
10.155,-0.1103515625,0.221435546875,-1.0301513671875,24.7802734375,14.16015625,-19.6533203125,-13.8671875,47.900390625,-14.2822265625
10.157,-0.1103515625,0.221435546875,-1.0301513671875,24.7802734375,14.16015625,-19.6533203125,-13.8671875,47.900390625,-14.2822265625
10.199,-0.0621337890625,0.3641357421875,-1.1070556640625,24.7802734375,14.16015625,-19.6533203125,-13.8671875,47.900390625,-14.2822265625
10.2,-0.055419921875,0.3966064453125,-1.105712890625,14.58740234375,14.83154296875,-25.146484375,-13.8671875,47.900390625,-14.2822265625
10.217,-0.055419921875,0.3966064453125,-1.105712890625,14.58740234375,14.83154296875,-25.146484375,-13.8671875,47.900390625,-14.2822265625
10.244,-0.055419921875,0.3966064453125,-1.105712890625,12.0849609375,15.2587890625,-25.81787109375,-13.8671875,47.900390625,-14.2822265625
10.245,-0.068115234375,0.353515625,-1.087158203125,12.0849609375,15.2587890625,-25.81787109375,-14.24560546875,47.607421875,-13.95263671875
10.266,-0.068115234375,0.353515625,-1.087158203125,12.0849609375,15.2587890625,-25.81787109375,-14.24560546875,47.607421875,-13.95263671875
10.289,-0.068115234375,0.353515625,-1.087158203125,0.30517578125,13.36669921875,-27.587890625,-14.00146484375,47.2900390625,-13.61083984375
10.29,-0.039306640625,0.30908203125,-1.03369140625,0.30517578125,13.36669921875,-27.587890625,-14.00146484375,47.2900390625,-13.61083984375
10.334,-0.039306640625,0.30908203125,-1.03369140625,-0.3662109375,7.26318359375,-25.08544921875,-14.1357421875,46.337890625,-14.5751953125
10.336,0.02587890625,0.3995361328125,-1.0604248046875,-0.3662109375,7.26318359375,-25.08544921875,-14.1357421875,46.337890625,-14.5751953125
10.342,0.02587890625,0.3995361328125,-1.0604248046875,-0.3662109375,7.26318359375,-25.08544921875,-14.1357421875,46.337890625,-14.5751953125
10.378,0.02587890625,0.3995361328125,-1.0604248046875,-0.3662109375,7.26318359375,-25.08544921875,-14.1357421875,46.337890625,-14.5751953125
10.379,0.02587890625,0.3995361328125,-1.0604248046875,9.33837890625,-5.2490234375,-24.658203125,-14.1357421875,46.337890625,-14.5751953125
10.38,-0.0224609375,0.4151611328125,-1.00732421875,9.33837890625,-5.2490234375,-24.658203125,-14.63623046875,47.16796875,-13.8916015625
10.424,-0.0224609375,0.4151611328125,-1.00732421875,-11.474609375,0.0,-25.45166015625,-14.63623046875,47.16796875,-13.8916015625
10.425,-0.02490234375,0.2703857421875,-0.884033203125,-11.474609375,0.0,-25.45166015625,-15.13671875,47.0703125,-13.427734375
10.439,-0.02490234375,0.2703857421875,-0.884033203125,-11.474609375,0.0,-25.45166015625,-15.13671875,47.0703125,-13.427734375
10.455,-0.02490234375,0.2703857421875,-0.884033203125,-11.474609375,0.0,-25.45166015625,-15.13671875,47.0703125,-13.427734375
10.469,-0.02490234375,0.2703857421875,-0.884033203125,-10.92529296875,-7.568359375,-21.728515625,-15.13671875,47.0703125,-13.427734375
10.47,-0.020263671875,0.319580078125,-0.918212890625,-10.92529296875,-7.568359375,-21.728515625,-16.0888671875,46.4599609375,-13.97705078125
10.514,-0.020263671875,0.319580078125,-0.918212890625,5.859375,-16.78466796875,-18.61572265625,-16.259765625,46.19140625,-12.56103515625
10.515,-0.042236328125,0.28173828125,-0.8228759765625,5.859375,-16.78466796875,-18.61572265625,-16.259765625,46.19140625,-12.56103515625
10.527,-0.042236328125,0.28173828125,-0.8228759765625,5.859375,-16.78466796875,-18.61572265625,-16.259765625,46.19140625,-12.56103515625
10.559,-0.0042724609375,0.2337646484375,-0.8212890625,-3.72314453125,-4.7607421875,-16.7236328125,-16.259765625,46.19140625,-12.56103515625
10.56,-0.0042724609375,0.2337646484375,-0.8212890625,5.9814453125,-6.89697265625,-21.17919921875,-16.259765625,46.19140625,-12.56103515625
10.604,-0.0042724609375,0.2337646484375,-0.8212890625,7.01904296875,-4.57763671875,-21.66748046875,-16.22314453125,46.0205078125,-13.73291015625
10.605,-0.0322265625,0.179931640625,-0.9024658203125,7.01904296875,-4.57763671875,-21.66748046875,-16.22314453125,46.0205078125,-13.73291015625
10.639,-0.0322265625,0.179931640625,-0.9024658203125,7.01904296875,-4.57763671875,-21.66748046875,-16.22314453125,46.0205078125,-13.73291015625
10.644,-0.0322265625,0.179931640625,-0.9024658203125,7.01904296875,-4.57763671875,-21.66748046875,-16.22314453125,46.0205078125,-13.73291015625
10.649,-0.0322265625,0.179931640625,-0.9024658203125,3.84521484375,11.962890625,-19.10400390625,-16.22314453125,46.0205078125,-13.73291015625
10.65,-0.0322265625,0.179931640625,-0.9024658203125,3.84521484375,11.962890625,-19.10400390625,-16.46728515625,45.86181640625,-13.53759765625
10.651,-0.01123046875,0.2337646484375,-1.0665283203125,3.84521484375,11.962890625,-19.10400390625,-16.46728515625,45.86181640625,-13.53759765625
10.694,-0.01123046875,0.2337646484375,-1.0665283203125,9.27734375,12.3291015625,-17.822265625,-16.54052734375,45.5322265625,-13.037109375
10.695,-0.0394287109375,0.285888671875,-1.104736328125,9.27734375,12.3291015625,-17.822265625,-16.54052734375,45.5322265625,-13.037109375
10.739,-0.0394287109375,0.285888671875,-1.104736328125,-5.615234375,6.04248046875,-11.474609375,-16.54052734375,45.5322265625,-13.037109375
10.74,0.0037841796875,0.3565673828125,-1.0687255859375,-5.615234375,6.04248046875,-11.474609375,-15.95458984375,45.22705078125,-12.63427734375
10.75,0.0037841796875,0.3565673828125,-1.0687255859375,-5.615234375,6.04248046875,-11.474609375,-15.95458984375,45.22705078125,-12.63427734375
10.757,0.0037841796875,0.3565673828125,-1.0687255859375,-5.615234375,6.04248046875,-11.474609375,-15.95458984375,45.22705078125,-12.63427734375
10.824,0.0,0.259033203125,-0.8798828125,-1.89208984375,-13.5498046875,-12.63427734375,-16.90673828125,44.90966796875,-14.24560546875
10.826,0.0,0.259033203125,-0.8798828125,-1.89208984375,-13.5498046875,-12.63427734375,-16.90673828125,44.90966796875,-14.24560546875
10.829,0.0,0.259033203125,-0.8798828125,-8.60595703125,-3.41796875,-15.56396484375,-16.66259765625,45.05615234375,-13.28125
10.83,0.067138671875,0.3375244140625,-0.8336181640625,-8.60595703125,-3.41796875,-15.56396484375,-16.66259765625,45.05615234375,-13.28125
10.858,0.067138671875,0.3375244140625,-0.8336181640625,-8.60595703125,-3.41796875,-15.56396484375,-16.66259765625,45.05615234375,-13.28125
10.874,0.067138671875,0.3375244140625,-0.8336181640625,-30.57861328125,17.27294921875,-10.07080078125,-16.95556640625,45.1904296875,-14.00146484375
10.875,0.040283203125,0.317626953125,-0.86669921875,-30.57861328125,17.27294921875,-10.07080078125,-16.95556640625,45.1904296875,-14.00146484375
10.919,-0.13134765625,0.6036376953125,-1.0086669921875,21.30126953125,3.5400390625,51.57470703125,-16.95556640625,45.1904296875,-14.00146484375
10.92,-0.13134765625,0.6036376953125,-1.0086669921875,-12.5732421875,4.7607421875,46.44775390625,-16.95556640625,45.1904296875,-14.00146484375
10.94,-0.13134765625,0.6036376953125,-1.0086669921875,-12.5732421875,4.7607421875,46.44775390625,-16.95556640625,45.1904296875,-14.00146484375
10.964,-0.00146484375,0.5892333984375,-0.9261474609375,-12.5732421875,4.7607421875,46.44775390625,-16.12548828125,44.873046875,-13.427734375
10.965,-0.00146484375,0.5892333984375,-0.9261474609375,-26.2451171875,-4.69970703125,-34.48486328125,-16.12548828125,44.873046875,-13.427734375
10.973,-0.00146484375,0.5892333984375,-0.9261474609375,-26.2451171875,-4.69970703125,-34.48486328125,-16.12548828125,44.873046875,-13.427734375
11.009,-0.0576171875,0.4771728515625,-1.0416259765625,-26.2451171875,-4.69970703125,-34.48486328125,-15.51513671875,43.798828125,-14.4775390625
11.01,-0.0576171875,0.4771728515625,-1.0416259765625,-67.32177734375,17.27294921875,-29.11376953125,-15.51513671875,43.798828125,-14.4775390625
11.053,-0.0576171875,0.4771728515625,-1.0416259765625,-67.32177734375,17.27294921875,-29.11376953125,-15.51513671875,43.798828125,-14.4775390625
11.057,-0.0576171875,0.4771728515625,-1.0416259765625,-67.32177734375,17.27294921875,-29.11376953125,-15.51513671875,43.798828125,-14.4775390625
11.099,-0.0302734375,0.451904296875,-0.9810791015625,-72.08251953125,30.82275390625,-19.71435546875,-15.51513671875,43.798828125,-14.4775390625
11.1,-0.0302734375,0.451904296875,-0.9810791015625,-72.08251953125,30.82275390625,-19.71435546875,-15.8447265625,43.2861328125,-14.55078125
11.101,0.07080078125,0.245361328125,-0.7861328125,-72.08251953125,30.82275390625,-19.71435546875,-15.8447265625,43.2861328125,-14.55078125
11.132,0.07080078125,0.245361328125,-0.7861328125,-72.08251953125,30.82275390625,-19.71435546875,-15.8447265625,43.2861328125,-14.55078125
11.144,0.07080078125,0.245361328125,-0.7861328125,15.31982421875,-27.16064453125,-36.56005859375,-16.4306640625,42.71240234375,-14.892578125
11.145,-0.0029296875,0.4920654296875,-1.1014404296875,15.31982421875,-27.16064453125,-36.56005859375,-16.4306640625,42.71240234375,-14.892578125
11.161,-0.0029296875,0.4920654296875,-1.1014404296875,15.31982421875,-27.16064453125,-36.56005859375,-16.4306640625,42.71240234375,-14.892578125
11.189,-0.0029296875,0.4920654296875,-1.1014404296875,44.61669921875,-52.24609375,-58.16650390625,-16.4306640625,42.71240234375,-14.892578125
11.19,0.1351318359375,0.0888671875,-1.197021484375,44.61669921875,-52.24609375,-58.16650390625,-17.87109375,41.32080078125,-14.22119140625
11.234,0.1351318359375,0.0888671875,-1.197021484375,45.8984375,-58.2275390625,-127.9296875,-17.87109375,41.32080078125,-14.22119140625
11.235,-0.42578125,0.6656494140625,-1.5845947265625,45.8984375,-58.2275390625,-127.9296875,-19.4091796875,42.3583984375,-12.3779296875
11.24,-0.42578125,0.6656494140625,-1.5845947265625,45.8984375,-58.2275390625,-127.9296875,-19.4091796875,42.3583984375,-12.3779296875
11.244,-0.42578125,0.6656494140625,-1.5845947265625,45.8984375,-58.2275390625,-127.9296875,-19.4091796875,42.3583984375,-12.3779296875
11.279,-0.42578125,0.6656494140625,-1.5845947265625,81.6650390625,-11.5966796875,-73.8525390625,-19.4091796875,42.3583984375,-12.3779296875
11.28,0.5743408203125,0.1834716796875,-1.0980224609375,28.74755859375,-53.8330078125,-53.3447265625,-19.4091796875,42.3583984375,-12.3779296875
11.324,0.221435546875,0.1788330078125,-1.193115234375,28.74755859375,-53.8330078125,-53.3447265625,-19.9462890625,41.455078125,-10.44921875
11.326,0.221435546875,0.1788330078125,-1.193115234375,-25.57373046875,18.61572265625,-60.302734375,-19.9462890625,41.455078125,-10.44921875
11.353,0.221435546875,0.1788330078125,-1.193115234375,-25.57373046875,18.61572265625,-60.302734375,-19.9462890625,41.455078125,-10.44921875
11.356,0.221435546875,0.1788330078125,-1.193115234375,-25.57373046875,18.61572265625,-60.302734375,-19.9462890625,41.455078125,-10.44921875
11.369,0.1456298828125,0.2340087890625,-1.160400390625,-82.70263671875,-25.390625,-52.734375,-19.9462890625,41.455078125,-10.44921875
11.37,0.1456298828125,0.2340087890625,-1.160400390625,-82.70263671875,-25.390625,-52.734375,-20.47119140625,40.283203125,-11.41357421875
11.414,0.1016845703125,0.3873291015625,-0.897216796875,44.921875,-31.3720703125,-192.9931640625,-20.47119140625,40.283203125,-11.41357421875
11.415,0.1016845703125,0.3873291015625,-0.897216796875,44.921875,-31.3720703125,-192.9931640625,-19.6533203125,37.20703125,-12.12158203125
11.426,0.1016845703125,0.3873291015625,-0.897216796875,44.921875,-31.3720703125,-192.9931640625,-19.6533203125,37.20703125,-12.12158203125
11.45,0.1016845703125,0.3873291015625,-0.897216796875,44.921875,-31.3720703125,-192.9931640625,-19.6533203125,37.20703125,-12.12158203125
11.459,0.3358154296875,-0.1502685546875,-0.34912109375,69.7021484375,22.216796875,-119.07958984375,-19.6533203125,37.20703125,-12.12158203125
11.46,0.3358154296875,-0.1502685546875,-0.34912109375,69.7021484375,22.216796875,-119.07958984375,-20.64208984375,36.9140625,-10.5712890625
11.504,0.219970703125,-0.6263427734375,-0.794677734375,29.296875,-15.625,-33.87451171875,-20.64208984375,36.9140625,-10.5712890625
11.505,0.219970703125,-0.6263427734375,-0.794677734375,29.296875,-15.625,-33.87451171875,-20.5078125,35.70556640625,-11.083984375
11.541,0.219970703125,-0.6263427734375,-0.794677734375,29.296875,-15.625,-33.87451171875,-20.5078125,35.70556640625,-11.083984375
11.549,0.2589111328125,-0.2255859375,-0.75732421875,29.296875,-15.625,-33.87451171875,-20.5078125,35.70556640625,-11.083984375
11.55,0.2589111328125,-0.2255859375,-0.75732421875,2.50244140625,12.939453125,-41.6259765625,-20.59326171875,35.595703125,-11.51123046875
11.574,0.2589111328125,-0.2255859375,-0.75732421875,2.50244140625,12.939453125,-41.6259765625,-20.59326171875,35.595703125,-11.51123046875
11.594,0.2415771484375,-0.1405029296875,-0.8702392578125,-28.74755859375,46.5087890625,-12.939453125,-20.59326171875,35.595703125,-11.51123046875
11.595,0.2415771484375,-0.1405029296875,-0.8702392578125,-28.74755859375,46.5087890625,-12.939453125,-19.4580078125,34.99755859375,-12.04833984375
11.639,0.2305908203125,-0.0751953125,-0.99072265625,-28.74755859375,46.5087890625,-12.939453125,-19.4580078125,34.99755859375,-12.04833984375
11.648,0.2305908203125,-0.0751953125,-0.99072265625,-28.74755859375,46.5087890625,-12.939453125,-19.4580078125,34.99755859375,-12.04833984375
11.656,0.2305908203125,-0.0751953125,-0.99072265625,-28.74755859375,46.5087890625,-12.939453125,-19.4580078125,34.99755859375,-12.04833984375
11.684,0.1505126953125,-0.0765380859375,-0.9525146484375,-44.3115234375,-4.08935546875,-14.892578125,-19.4580078125,34.99755859375,-12.04833984375
11.685,0.1505126953125,-0.0765380859375,-0.9525146484375,-44.3115234375,-4.08935546875,-14.892578125,-19.775390625,34.8388671875,-12.9150390625
11.729,0.182861328125,0.0791015625,-0.8291015625,46.93603515625,8.97216796875,-36.43798828125,-19.775390625,34.8388671875,-12.9150390625
11.73,0.182861328125,0.0791015625,-0.8291015625,46.93603515625,8.97216796875,-36.43798828125,-20.12939453125,33.92333984375,-11.7431640625
11.731,0.182861328125,0.0791015625,-0.8291015625,46.93603515625,8.97216796875,-36.43798828125,-20.12939453125,33.92333984375,-11.7431640625
11.766,0.182861328125,0.0791015625,-0.8291015625,46.93603515625,8.97216796875,-36.43798828125,-20.12939453125,33.92333984375,-11.7431640625
11.774,0.337158203125,0.093017578125,-0.7926025390625,46.93603515625,8.97216796875,-36.43798828125,-20.12939453125,33.92333984375,-11.7431640625
11.819,0.337158203125,0.093017578125,-0.7926025390625,206.54296875,45.41015625,-72.265625,-19.59228515625,35.33935546875,-12.39013671875
11.82,0.149658203125,0.4288330078125,-1.4190673828125,206.54296875,45.41015625,-72.265625,-19.59228515625,35.33935546875,-12.39013671875
11.841,0.149658203125,0.4288330078125,-1.4190673828125,206.54296875,45.41015625,-72.265625,-19.59228515625,35.33935546875,-12.39013671875
11.864,0.149658203125,0.4288330078125,-1.4190673828125,154.1748046875,38.330078125,-33.447265625,-18.20068359375,39.53857421875,-14.14794921875
11.865,0.4447021484375,0.381103515625,-1.7332763671875,154.1748046875,38.330078125,-33.447265625,-18.20068359375,39.53857421875,-14.14794921875
11.878,0.4447021484375,0.381103515625,-1.7332763671875,154.1748046875,38.330078125,-33.447265625,-18.20068359375,39.53857421875,-14.14794921875
11.909,0.4447021484375,0.381103515625,-1.7332763671875,64.63623046875,51.3916015625,-46.56982421875,-18.359375,39.41650390625,-14.697265625
11.91,0.2132568359375,0.264404296875,-1.4329833984375,64.63623046875,51.3916015625,-46.56982421875,-18.359375,39.41650390625,-14.697265625
11.943,0.2132568359375,0.264404296875,-1.4329833984375,64.63623046875,51.3916015625,-46.56982421875,-18.359375,39.41650390625,-14.697265625
11.954,0.2132568359375,0.264404296875,-1.4329833984375,-21.484375,36.68212890625,-48.52294921875,-17.96875,38.5498046875,-14.794921875
11.955,0.160400390625,0.17724609375,-0.911865234375,-21.484375,36.68212890625,-48.52294921875,-17.96875,38.5498046875,-14.794921875
11.957,0.160400390625,0.17724609375,-0.911865234375,-21.484375,36.68212890625,-48.52294921875,-17.96875,38.5498046875,-14.794921875
11.999,0.1458740234375,0.1728515625,-0.7529296875,-40.22216796875,-20.81298828125,-20.01953125,-17.96875,38.5498046875,-14.794921875
12.0,0.1458740234375,0.1728515625,-0.7529296875,-28.13720703125,-45.2880859375,-13.73291015625,-17.96875,38.5498046875,-14.794921875
12.032,0.1458740234375,0.1728515625,-0.7529296875,-28.13720703125,-45.2880859375,-13.73291015625,-17.96875,38.5498046875,-14.794921875
12.044,0.1298828125,0.093505859375,-0.577392578125,-28.13720703125,-45.2880859375,-13.73291015625,-19.27490234375,38.73291015625,-14.02587890625
12.045,0.1298828125,0.093505859375,-0.577392578125,-22.8271484375,-47.54638671875,0.244140625,-19.27490234375,38.73291015625,-14.02587890625
12.066,0.1298828125,0.093505859375,-0.577392578125,-22.8271484375,-47.54638671875,0.244140625,-19.27490234375,38.73291015625,-14.02587890625
12.089,0.178466796875,-0.0096435546875,-0.5445556640625,-22.8271484375,-47.54638671875,0.244140625,-19.68994140625,37.43896484375,-14.24560546875
12.09,0.178466796875,-0.0096435546875,-0.5445556640625,-2.25830078125,-31.6162109375,6.16455078125,-19.68994140625,37.43896484375,-14.24560546875
12.134,0.244384765625,-0.0577392578125,-0.56201171875,38.14697265625,1.89208984375,10.25390625,-19.68994140625,37.43896484375,-14.24560546875
12.135,0.244384765625,-0.0577392578125,-0.56201171875,38.14697265625,1.89208984375,10.25390625,-20.8984375,38.14697265625,-13.1103515625
12.145,0.244384765625,-0.0577392578125,-0.56201171875,38.14697265625,1.89208984375,10.25390625,-20.8984375,38.14697265625,-13.1103515625
12.173,0.244384765625,-0.0577392578125,-0.56201171875,38.14697265625,1.89208984375,10.25390625,-20.8984375,38.14697265625,-13.1103515625
12.179,0.2095947265625,-0.108154296875,-0.858642578125,26.0009765625,-35.94970703125,-9.27734375,-20.8984375,38.14697265625,-13.1103515625
12.224,0.0926513671875,-0.192138671875,-1.1455078125,26.0009765625,-35.94970703125,-9.27734375,-20.41015625,38.9892578125,-14.17236328125
12.225,0.0926513671875,-0.192138671875,-1.1455078125,-3.41796875,-69.64111328125,-8.23974609375,-20.41015625,38.9892578125,-14.17236328125
12.244,0.0926513671875,-0.192138671875,-1.1455078125,-3.41796875,-69.64111328125,-8.23974609375,-20.41015625,38.9892578125,-14.17236328125
12.255,0.0926513671875,-0.192138671875,-1.1455078125,-3.41796875,-69.64111328125,-8.23974609375,-20.41015625,38.9892578125,-14.17236328125
12.269,0.0926513671875,-0.192138671875,-1.1455078125,-3.41796875,-69.64111328125,-8.23974609375,-21.240234375,39.5751953125,-12.40234375
12.27,0.0924072265625,0.3751220703125,-1.300048828125,104.248046875,154.11376953125,-21.8505859375,-21.240234375,39.5751953125,-12.40234375
12.314,0.0924072265625,0.3751220703125,-1.300048828125,104.248046875,154.11376953125,-21.8505859375,-21.533203125,39.35546875,-13.134765625
12.331,0.0924072265625,0.3751220703125,-1.300048828125,104.248046875,154.11376953125,-21.8505859375,-21.533203125,39.35546875,-13.134765625
12.359,0.361328125,-0.1016845703125,-1.174072265625,104.248046875,154.11376953125,-21.8505859375,-21.533203125,39.35546875,-13.134765625
12.36,0.361328125,-0.1016845703125,-1.174072265625,-218.56689453125,-63.29345703125,94.54345703125,-21.86279296875,39.92919921875,-13.41552734375
12.392,0.361328125,-0.1016845703125,-1.174072265625,-218.56689453125,-63.29345703125,94.54345703125,-21.86279296875,39.92919921875,-13.41552734375
12.404,0.402099609375,0.0345458984375,-1.607421875,-77.1484375,-19.59228515625,75.3173828125,-21.86279296875,39.92919921875,-13.41552734375
12.405,0.402099609375,0.0345458984375,-1.607421875,-77.1484375,-19.59228515625,75.3173828125,-22.32666015625,37.68310546875,-14.2333984375
12.433,0.402099609375,0.0345458984375,-1.607421875,-77.1484375,-19.59228515625,75.3173828125,-22.32666015625,37.68310546875,-14.2333984375
12.449,0.4698486328125,0.042236328125,-1.2645263671875,-37.4755859375,-0.3662109375,45.166015625,-22.32666015625,37.68310546875,-14.2333984375
12.45,0.1353759765625,0.2147216796875,-1.0594482421875,-37.4755859375,-0.3662109375,45.166015625,-22.32666015625,37.68310546875,-14.2333984375
12.478,0.1353759765625,0.2147216796875,-1.0594482421875,-37.4755859375,-0.3662109375,45.166015625,-22.32666015625,37.68310546875,-14.2333984375
12.494,0.0887451171875,0.238037109375,-0.989990234375,49.01123046875,-96.19140625,168.64013671875,-22.32666015625,37.68310546875,-14.2333984375
12.495,0.0887451171875,0.238037109375,-0.989990234375,49.01123046875,-96.19140625,168.64013671875,-23.20556640625,38.12255859375,-13.46435546875
12.539,-0.112060546875,0.0804443359375,-0.48974609375,90.087890625,-133.7890625,129.57763671875,-23.20556640625,38.12255859375,-13.46435546875
12.54,-0.112060546875,0.0804443359375,-0.48974609375,90.087890625,-133.7890625,129.57763671875,-23.5595703125,39.9658203125,-12.890625
12.549,-0.112060546875,0.0804443359375,-0.48974609375,90.087890625,-133.7890625,129.57763671875,-23.5595703125,39.9658203125,-12.890625
12.555,-0.112060546875,0.0804443359375,-0.48974609375,90.087890625,-133.7890625,129.57763671875,-23.5595703125,39.9658203125,-12.890625
12.584,0.2071533203125,0.1160888671875,-0.3624267578125,150.146484375,-106.87255859375,77.81982421875,-23.5595703125,39.9658203125,-12.890625
12.585,0.2071533203125,0.1160888671875,-0.3624267578125,150.146484375,-106.87255859375,77.81982421875,-25.0244140625,43.5791015625,-9.82666015625
12.621,0.2071533203125,0.1160888671875,-0.3624267578125,150.146484375,-106.87255859375,77.81982421875,-25.0244140625,43.5791015625,-9.82666015625
12.629,0.2808837890625,0.3878173828125,-0.22412109375,150.146484375,-106.87255859375,77.81982421875,-25.0244140625,43.5791015625,-9.82666015625
12.63,0.2808837890625,0.3878173828125,-0.22412109375,111.14501953125,-62.8662109375,21.484375,-25.40283203125,45.93505859375,-6.2744140625
12.662,0.2808837890625,0.3878173828125,-0.22412109375,111.14501953125,-62.8662109375,21.484375,-25.40283203125,45.93505859375,-6.2744140625
12.674,0.461669921875,0.434814453125,-0.4052734375,25.93994140625,36.80419921875,30.33447265625,-25.40283203125,45.93505859375,-6.2744140625
12.675,0.461669921875,0.434814453125,-0.4052734375,25.93994140625,36.80419921875,30.33447265625,-27.2705078125,47.52197265625,-5.72509765625
12.719,-0.1888427734375,0.713134765625,-1.031494140625,25.93994140625,36.80419921875,30.33447265625,-27.2705078125,47.52197265625,-5.72509765625
12.72,-0.1888427734375,0.713134765625,-1.031494140625,-89.17236328125,-5.37109375,84.228515625,-27.2705078125,47.52197265625,-5.72509765625
12.732,-0.1888427734375,0.713134765625,-1.031494140625,-89.17236328125,-5.37109375,84.228515625,-27.2705078125,47.52197265625,-5.72509765625
12.764,0.3114013671875,0.6796875,-0.9307861328125,-89.17236328125,-5.37109375,84.228515625,-27.1240234375,47.9248046875,-6.40869140625
12.765,0.3114013671875,0.6796875,-0.9307861328125,33.5693359375,-84.3505859375,153.01513671875,-27.1240234375,47.9248046875,-6.40869140625
12.766,0.3114013671875,0.6796875,-0.9307861328125,33.5693359375,-84.3505859375,153.01513671875,-26.220703125,49.9755859375,-5.6396484375
12.775,0.3114013671875,0.6796875,-0.9307861328125,33.5693359375,-84.3505859375,153.01513671875,-26.220703125,49.9755859375,-5.6396484375
12.809,-0.010498046875,0.7576904296875,-0.6395263671875,79.04052734375,-91.552734375,210.3271484375,-26.220703125,49.9755859375,-5.6396484375
12.81,-0.063720703125,0.8148193359375,-0.66650390625,79.04052734375,-91.552734375,210.3271484375,-26.220703125,49.9755859375,-5.6396484375
12.843,-0.063720703125,0.8148193359375,-0.66650390625,79.04052734375,-91.552734375,210.3271484375,-26.220703125,49.9755859375,-5.6396484375
12.854,-0.063720703125,0.8148193359375,-0.66650390625,90.576171875,-80.87158203125,217.1630859375,-23.32763671875,54.443359375,-2.5634765625
12.855,0.10595703125,0.8858642578125,-0.91650390625,90.576171875,-80.87158203125,217.1630859375,-23.32763671875,54.443359375,-2.5634765625
12.9,0.120849609375,0.78076171875,-0.76953125,128.90625,-46.0205078125,149.10888671875,-20.15380859375,57.0556640625,-0.09765625
12.917,0.120849609375,0.78076171875,-0.76953125,128.90625,-46.0205078125,149.10888671875,-20.15380859375,57.0556640625,-0.09765625
12.944,0.120849609375,0.78076171875,-0.76953125,91.9189453125,-65.00244140625,123.35205078125,-20.15380859375,57.0556640625,-0.09765625
12.945,0.33837890625,0.6846923828125,-0.5821533203125,91.9189453125,-65.00244140625,123.35205078125,-17.5048828125,58.30078125,2.40478515625
12.965,0.33837890625,0.6846923828125,-0.5821533203125,91.9189453125,-65.00244140625,123.35205078125,-17.5048828125,58.30078125,2.40478515625
12.989,0.33837890625,0.6846923828125,-0.5821533203125,55.2978515625,-52.42919921875,56.396484375,-17.5048828125,58.30078125,2.40478515625
12.991,0.026123046875,0.3956298828125,-0.6109619140625,55.2978515625,-52.42919921875,56.396484375,-16.00341796875,59.1064453125,5.38330078125
13.034,0.026123046875,0.3956298828125,-0.6109619140625,5.126953125,57.2509765625,-32.2265625,-17.24853515625,58.85009765625,3.08837890625
13.035,-0.391845703125,0.4547119140625,-0.7305908203125,5.126953125,57.2509765625,-32.2265625,-17.24853515625,58.85009765625,3.08837890625
13.042,-0.391845703125,0.4547119140625,-0.7305908203125,5.126953125,57.2509765625,-32.2265625,-17.24853515625,58.85009765625,3.08837890625
13.078,-0.391845703125,0.4547119140625,-0.7305908203125,5.126953125,57.2509765625,-32.2265625,-17.24853515625,58.85009765625,3.08837890625
13.079,-0.391845703125,0.4547119140625,-0.7305908203125,-24.23095703125,96.00830078125,-1.28173828125,-17.24853515625,58.85009765625,3.08837890625
13.08,-0.2406005859375,1.031494140625,-0.575439453125,-24.23095703125,96.00830078125,-1.28173828125,-16.30859375,59.55810546875,2.57568359375
13.124,-0.2406005859375,1.031494140625,-0.575439453125,13.427734375,-51.57470703125,123.59619140625,-12.01171875,61.75537109375,3.86962890625
13.125,0.0362548828125,1.25830078125,0.248046875,13.427734375,-51.57470703125,123.59619140625,-12.01171875,61.75537109375,3.86962890625
13.147,0.0362548828125,1.25830078125,0.248046875,13.427734375,-51.57470703125,123.59619140625,-12.01171875,61.75537109375,3.86962890625
13.169,-0.402099609375,1.57080078125,0.356201171875,45.34912109375,-200.927734375,176.81884765625,-12.01171875,61.75537109375,3.86962890625
13.17,-0.402099609375,1.57080078125,0.356201171875,119.07958984375,-224.609375,157.77587890625,-12.01171875,61.75537109375,3.86962890625
13.183,-0.402099609375,1.57080078125,0.356201171875,119.07958984375,-224.609375,157.77587890625,-12.01171875,61.75537109375,3.86962890625
13.214,-0.402099609375,1.57080078125,0.356201171875,119.07958984375,-224.609375,157.77587890625,-6.0546875,61.07177734375,7.32421875
13.215,0.1456298828125,1.912841796875,1.0855712890625,109.43603515625,-310.9130859375,11.04736328125,-6.0546875,61.07177734375,7.32421875
13.229,0.1456298828125,1.912841796875,1.0855712890625,109.43603515625,-310.9130859375,11.04736328125,-6.0546875,61.07177734375,7.32421875
13.259,0.2344970703125,1.76806640625,1.0692138671875,-89.9658203125,-75.50048828125,34.66796875,-6.0546875,61.07177734375,7.32421875
13.26,0.2344970703125,1.76806640625,1.0692138671875,-89.9658203125,-75.50048828125,34.66796875,-0.8056640625,60.8642578125,9.47265625
13.265,0.2344970703125,1.76806640625,1.0692138671875,-89.9658203125,-75.50048828125,34.66796875,-0.8056640625,60.8642578125,9.47265625
13.304,0.0535888671875,1.276611328125,0.2535400390625,-89.9658203125,-75.50048828125,34.66796875,-0.8056640625,60.8642578125,9.47265625
13.305,0.0535888671875,1.276611328125,0.2535400390625,-127.01416015625,72.81494140625,-18.24951171875,-0.8056640625,60.8642578125,9.47265625
13.306,0.0535888671875,1.276611328125,0.2535400390625,-127.01416015625,72.81494140625,-18.24951171875,1.4404296875,61.58447265625,6.94580078125
13.349,-0.34716796875,1.029052734375,-0.3531494140625,-55.17578125,10.009765625,-25.0244140625,1.4404296875,61.58447265625,6.94580078125
13.35,-0.34716796875,1.029052734375,-0.3531494140625,-55.17578125,10.009765625,-25.0244140625,-0.2197265625,62.7197265625,4.82177734375
13.378,-0.34716796875,1.029052734375,-0.3531494140625,-55.17578125,10.009765625,-25.0244140625,-0.2197265625,62.7197265625,4.82177734375
13.38,-0.34716796875,1.029052734375,-0.3531494140625,-55.17578125,10.009765625,-25.0244140625,-0.2197265625,62.7197265625,4.82177734375
13.394,-0.0780029296875,0.9912109375,-0.5029296875,-55.17578125,10.009765625,-25.0244140625,-0.2197265625,62.7197265625,4.82177734375
13.395,-0.0780029296875,0.9912109375,-0.5029296875,58.349609375,-80.50537109375,-54.443359375,-2.099609375,63.2568359375,4.67529296875
13.439,0.2174072265625,1.2274169921875,-0.4013671875,58.349609375,-80.50537109375,-54.443359375,-2.099609375,63.2568359375,4.67529296875
13.44,0.2174072265625,1.2274169921875,-0.4013671875,91.552734375,-0.18310546875,-14.09912109375,-1.91650390625,61.8408203125,7.5439453125
13.446,0.2174072265625,1.2274169921875,-0.4013671875,91.552734375,-0.18310546875,-14.09912109375,-1.91650390625,61.8408203125,7.5439453125
13.456,0.2174072265625,1.2274169921875,-0.4013671875,91.552734375,-0.18310546875,-14.09912109375,-1.91650390625,61.8408203125,7.5439453125
13.484,0.2171630859375,1.1123046875,-0.5819091796875,79.1015625,-33.935546875,-48.15673828125,-1.91650390625,61.8408203125,7.5439453125
13.485,0.2171630859375,1.1123046875,-0.5819091796875,79.1015625,-33.935546875,-48.15673828125,-2.01416015625,59.6923828125,10.8642578125
13.53,0.1500244140625,1.2508544921875,-0.4136962890625,15.68603515625,44.5556640625,-77.2705078125,-2.01416015625,59.6923828125,10.8642578125
13.53,0.1910400390625,0.9927978515625,-0.16455078125,15.68603515625,44.5556640625,-77.2705078125,-2.01416015625,59.6923828125,10.8642578125
13.531,0.1910400390625,0.9927978515625,-0.16455078125,15.68603515625,44.5556640625,-77.2705078125,-2.01416015625,59.6923828125,10.8642578125
13.566,0.1910400390625,0.9927978515625,-0.16455078125,15.68603515625,44.5556640625,-77.2705078125,-2.01416015625,59.6923828125,10.8642578125
13.574,0.1910400390625,0.9927978515625,-0.16455078125,3.662109375,75.3173828125,-82.8857421875,-2.01416015625,59.6923828125,10.8642578125
13.575,0.0133056640625,0.7530517578125,-0.1900634765625,3.662109375,75.3173828125,-82.8857421875,-4.16259765625,59.06982421875,12.6953125
13.619,0.0133056640625,0.7530517578125,-0.1900634765625,-19.10400390625,156.3720703125,-98.20556640625,-8.69140625,58.53271484375,11.328125
13.62,-0.038818359375,0.6431884765625,-0.2392578125,-19.10400390625,156.3720703125,-98.20556640625,-8.69140625,58.53271484375,11.328125
13.639,-0.038818359375,0.6431884765625,-0.2392578125,-19.10400390625,156.3720703125,-98.20556640625,-8.69140625,58.53271484375,11.328125
13.664,-0.038818359375,0.6431884765625,-0.2392578125,-1.3427734375,126.52587890625,-85.99853515625,-12.548828125,57.8857421875,11.90185546875
13.665,0.0245361328125,0.6597900390625,-0.3697509765625,-1.3427734375,126.52587890625,-85.99853515625,-12.548828125,57.8857421875,11.90185546875
13.709,0.0245361328125,0.6597900390625,-0.3697509765625,14.70947265625,88.37890625,-30.517578125,-13.8916015625,56.99462890625,12.40234375
13.71,0.2305908203125,0.880615234375,-0.40966796875,14.70947265625,88.37890625,-30.517578125,-13.8916015625,56.99462890625,12.40234375
13.751,0.2305908203125,0.880615234375,-0.40966796875,14.70947265625,88.37890625,-30.517578125,-13.8916015625,56.99462890625,12.40234375
13.754,0.2305908203125,0.880615234375,-0.40966796875,23.0712890625,66.162109375,-37.90283203125,-16.5283203125,56.982421875,11.92626953125
13.755,0.30615234375,0.9632568359375,-0.455078125,23.0712890625,66.162109375,-37.90283203125,-16.5283203125,56.982421875,11.92626953125
13.756,0.30615234375,0.9632568359375,-0.455078125,23.0712890625,66.162109375,-37.90283203125,-16.5283203125,56.982421875,11.92626953125
13.799,0.30615234375,0.9632568359375,-0.455078125,-6.4697265625,90.88134765625,-28.50341796875,-17.9443359375,56.28662109375,10.5224609375
13.8,0.4561767578125,0.8870849609375,-0.4617919921875,-6.4697265625,90.88134765625,-28.50341796875,-17.9443359375,56.28662109375,10.5224609375
13.817,0.4561767578125,0.8870849609375,-0.4617919921875,-6.4697265625,90.88134765625,-28.50341796875,-17.9443359375,56.28662109375,10.5224609375
13.844,0.4561767578125,0.8870849609375,-0.4617919921875,-69.4580078125,147.39990234375,-19.8974609375,-20.27587890625,56.8359375,5.8837890625
13.845,0.3533935546875,0.843017578125,-0.5289306640625,-69.4580078125,147.39990234375,-19.8974609375,-20.27587890625,56.8359375,5.8837890625
13.889,0.3533935546875,0.843017578125,-0.5289306640625,-73.1201171875,155.517578125,-65.73486328125,-20.27587890625,56.8359375,5.8837890625
13.89,0.322998046875,0.982421875,-0.59033203125,-60.60791015625,182.55615234375,-74.0966796875,-20.27587890625,56.8359375,5.8837890625
13.892,0.322998046875,0.982421875,-0.59033203125,-60.60791015625,182.55615234375,-74.0966796875,-20.27587890625,56.8359375,5.8837890625
13.933,0.322998046875,0.982421875,-0.59033203125,-60.60791015625,182.55615234375,-74.0966796875,-20.27587890625,56.8359375,5.8837890625
13.934,0.028076171875,0.7691650390625,-0.6451416015625,-60.60791015625,182.55615234375,-74.0966796875,-23.18115234375,55.810546875,2.52685546875
13.935,0.028076171875,0.7691650390625,-0.6451416015625,-47.42431640625,166.50390625,-47.54638671875,-23.18115234375,55.810546875,2.52685546875
13.979,-0.1312255859375,0.6802978515625,-0.6624755859375,-47.42431640625,166.50390625,-47.54638671875,-24.51171875,54.30908203125,-1.904296875
13.98,-0.1312255859375,0.6802978515625,-0.6624755859375,-18.00537109375,33.14208984375,26.79443359375,-24.51171875,54.30908203125,-1.904296875
14.024,-0.0816650390625,0.7216796875,-0.61962890625,-50.84228515625,-29.296875,16.2353515625,-24.51171875,54.30908203125,-1.904296875
14.025,-0.0816650390625,0.7216796875,-0.61962890625,-50.84228515625,-29.296875,16.2353515625,-23.32763671875,53.857421875,-2.62451171875
14.057,-0.0816650390625,0.7216796875,-0.61962890625,-50.84228515625,-29.296875,16.2353515625,-23.32763671875,53.857421875,-2.62451171875
14.069,0.003662109375,0.7344970703125,-0.470703125,-37.78076171875,-27.40478515625,10.92529296875,-23.32763671875,53.857421875,-2.62451171875
14.07,0.003662109375,0.7344970703125,-0.470703125,-37.78076171875,-27.40478515625,10.92529296875,-23.32763671875,54.1748046875,-2.2705078125
14.091,0.003662109375,0.7344970703125,-0.470703125,-37.78076171875,-27.40478515625,10.92529296875,-23.32763671875,54.1748046875,-2.2705078125
14.114,0.0341796875,0.8482666015625,-0.6279296875,-13.427734375,-17.63916015625,9.033203125,-23.32763671875,54.1748046875,-2.2705078125
14.115,0.0341796875,0.8482666015625,-0.6279296875,-13.427734375,-17.63916015625,9.033203125,-23.05908203125,53.82080078125,-2.3681640625
14.12,0.0341796875,0.8482666015625,-0.6279296875,-13.427734375,-17.63916015625,9.033203125,-23.05908203125,53.82080078125,-2.3681640625
14.159,0.01025390625,0.9986572265625,-0.6124267578125,-13.427734375,-17.63916015625,9.033203125,-23.05908203125,53.82080078125,-2.3681640625
14.16,0.01025390625,0.9986572265625,-0.6124267578125,-19.775390625,-17.63916015625,21.54541015625,-22.88818359375,54.19921875,-1.953125
14.204,0.0595703125,0.8656005859375,-0.593505859375,-5.7373046875,-22.39990234375,22.52197265625,-22.88818359375,54.19921875,-1.953125
14.205,0.0595703125,0.8656005859375,-0.593505859375,-5.7373046875,-22.39990234375,22.52197265625,-21.8994140625,53.466796875,-2.197265625
14.249,0.09033203125,0.7047119140625,-0.309814453125,25.08544921875,-26.123046875,25.634765625,-21.8994140625,53.466796875,-2.197265625
14.25,0.09033203125,0.7047119140625,-0.309814453125,25.08544921875,-26.123046875,25.634765625,-22.0703125,54.931640625,-2.392578125
14.294,0.154541015625,0.7293701171875,-0.364501953125,0.54931640625,32.40966796875,30.45654296875,-22.0703125,54.931640625,-2.392578125
14.295,0.154541015625,0.7293701171875,-0.364501953125,0.54931640625,32.40966796875,30.45654296875,-20.8984375,55.810546875,-1.98974609375
14.339,0.1318359375,0.587646484375,-0.4140625,18.06640625,-2.74658203125,2.9296875,-20.8984375,55.810546875,-1.98974609375
14.34,0.07470703125,0.695556640625,-0.7803955078125,18.06640625,-2.74658203125,2.9296875,-20.8984375,55.810546875,-1.98974609375
14.38,0.07470703125,0.695556640625,-0.7803955078125,18.06640625,-2.74658203125,2.9296875,-20.8984375,55.810546875,-1.98974609375
14.384,0.07470703125,0.695556640625,-0.7803955078125,16.7236328125,-25.20751953125,-9.94873046875,-20.8984375,55.810546875,-1.98974609375
14.385,0.07470703125,0.695556640625,-0.7803955078125,16.7236328125,-25.20751953125,-9.94873046875,-20.73974609375,55.3955078125,-0.7568359375
14.386,0.0489501953125,0.7861328125,-0.806396484375,16.7236328125,-25.20751953125,-9.94873046875,-20.73974609375,55.3955078125,-0.7568359375
14.394,0.0489501953125,0.7861328125,-0.806396484375,16.7236328125,-25.20751953125,-9.94873046875,-20.73974609375,55.3955078125,-0.7568359375
14.395,0.0489501953125,0.7861328125,-0.806396484375,16.7236328125,-25.20751953125,-9.94873046875,-20.73974609375,55.3955078125,-0.7568359375
14.423,0.0489501953125,0.7861328125,-0.806396484375,16.7236328125,-25.20751953125,-9.94873046875,-20.73974609375,55.3955078125,-0.7568359375
14.429,0.0489501953125,0.7861328125,-0.806396484375,-10.8642578125,10.6201171875,-29.11376953125,-20.73974609375,55.3955078125,-0.7568359375
14.43,-0.10498046875,0.7659912109375,-0.9752197265625,-10.8642578125,10.6201171875,-29.11376953125,-21.44775390625,54.82177734375,-1.81884765625
14.432,-0.10498046875,0.7659912109375,-0.9752197265625,-10.8642578125,10.6201171875,-29.11376953125,-21.44775390625,54.82177734375,-1.81884765625
14.461,-0.10498046875,0.7659912109375,-0.9752197265625,-10.8642578125,10.6201171875,-29.11376953125,-21.44775390625,54.82177734375,-1.81884765625
14.474,-0.10498046875,0.7659912109375,-0.9752197265625,4.2724609375,36.2548828125,-36.56005859375,-21.8994140625,54.62646484375,-1.5625
14.475,-0.1402587890625,0.67578125,-0.5965576171875,4.2724609375,36.2548828125,-36.56005859375,-21.8994140625,54.62646484375,-1.5625
14.519,-0.1402587890625,0.67578125,-0.5965576171875,-35.7666015625,-46.93603515625,-3.90625,-21.37451171875,54.541015625,-0.52490234375
