elapsed_time,ax,ay,az,gx,gy,gz,mx,my,mz
0.0,0.4420166015625,0.8724365234375,-0.060546875,-1.5869140625,-1.3427734375,0.1220703125,-48.095703125,17.96875,-42.2119140625
0.042,0.4420166015625,0.8724365234375,-0.060546875,-1.5869140625,-1.3427734375,0.1220703125,-47.3876953125,18.2373046875,-42.51708984375
0.043,0.4412841796875,0.87451171875,-0.059326171875,-1.40380859375,-1.220703125,-0.1220703125,-47.3876953125,18.2373046875,-42.51708984375
0.087,0.44091796875,0.8726806640625,-0.0589599609375,-1.40380859375,-1.220703125,-0.1220703125,-48.4619140625,18.0908203125,-41.9921875
0.088,0.44091796875,0.8726806640625,-0.0589599609375,-1.708984375,-1.03759765625,-0.3662109375,-48.4619140625,18.0908203125,-41.9921875
0.116,0.44091796875,0.8726806640625,-0.0589599609375,-1.708984375,-1.03759765625,-0.3662109375,-48.4619140625,18.0908203125,-41.9921875
0.12,0.44091796875,0.8726806640625,-0.0589599609375,-1.708984375,-1.03759765625,-0.3662109375,-48.4619140625,18.0908203125,-41.9921875
0.131,0.44091796875,0.8726806640625,-0.0589599609375,-1.708984375,-1.03759765625,-0.3662109375,-47.57080078125,17.56591796875,-42.0654296875
0.132,0.4410400390625,0.8724365234375,-0.0601806640625,-1.64794921875,-0.9765625,-0.54931640625,-47.57080078125,17.56591796875,-42.0654296875
0.176,0.4410400390625,0.8724365234375,-0.0601806640625,-1.64794921875,-0.9765625,-0.54931640625,-48.42529296875,18.78662109375,-42.34619140625
0.177,0.441162109375,0.872802734375,-0.0609130859375,-1.953125,-1.15966796875,-0.8544921875,-48.42529296875,18.78662109375,-42.34619140625
0.189,0.441162109375,0.872802734375,-0.0609130859375,-1.953125,-1.15966796875,-0.8544921875,-48.42529296875,18.78662109375,-42.34619140625
0.222,0.4423828125,0.8729248046875,-0.06103515625,-1.953125,-1.0986328125,-1.0986328125,-48.4375,17.56591796875,-41.259765625
0.229,0.4423828125,0.8729248046875,-0.06103515625,-1.953125,-1.0986328125,-1.0986328125,-48.4375,17.56591796875,-41.259765625
0.266,0.4427490234375,0.87158203125,-0.0595703125,-1.708984375,-1.220703125,-1.15966796875,-48.4375,17.56591796875,-41.259765625
0.267,0.4427490234375,0.87158203125,-0.0595703125,-1.708984375,-1.220703125,-1.15966796875,-48.681640625,18.5302734375,-40.61279296875
0.27,0.4427490234375,0.87158203125,-0.0595703125,-1.708984375,-1.220703125,-1.15966796875,-48.681640625,18.5302734375,-40.61279296875
0.311,0.442626953125,0.8719482421875,-0.06201171875,-1.708984375,-1.220703125,-1.15966796875,-48.681640625,18.5302734375,-40.61279296875
0.312,0.442626953125,0.8719482421875,-0.06201171875,-1.5869140625,-1.220703125,-1.0986328125,-47.61962890625,18.06640625,-41.6259765625
0.336,0.442626953125,0.8719482421875,-0.06201171875,-1.5869140625,-1.220703125,-1.0986328125,-47.61962890625,18.06640625,-41.6259765625
0.356,0.4432373046875,0.8714599609375,-0.0616455078125,-1.40380859375,-1.220703125,-1.03759765625,-47.61962890625,18.06640625,-41.6259765625
0.357,0.4432373046875,0.8714599609375,-0.0616455078125,-1.40380859375,-1.220703125,-1.03759765625,-48.33984375,16.95556640625,-43.4326171875
0.376,0.4432373046875,0.8714599609375,-0.0616455078125,-1.40380859375,-1.220703125,-1.03759765625,-48.33984375,16.95556640625,-43.4326171875
0.401,0.444580078125,0.8714599609375,-0.0606689453125,-1.40380859375,-1.3427734375,-1.03759765625,-48.33984375,16.95556640625,-43.4326171875
0.402,0.444580078125,0.8714599609375,-0.0606689453125,-1.40380859375,-1.3427734375,-1.03759765625,-47.57080078125,17.90771484375,-42.7490234375
0.491,0.4454345703125,0.8707275390625,-0.0614013671875,-1.0986328125,-1.40380859375,-0.732421875,-47.57080078125,17.90771484375,-42.7490234375
0.492,0.4454345703125,0.8707275390625,-0.0614013671875,-1.0986328125,-1.40380859375,-0.732421875,-47.69287109375,17.88330078125,-42.7490234375
0.493,0.4453125,0.8709716796875,-0.0604248046875,-1.0986328125,-1.40380859375,-0.732421875,-47.69287109375,17.88330078125,-42.7490234375
0.494,0.4453125,0.8709716796875,-0.0604248046875,-1.0986328125,-1.40380859375,-0.732421875,-47.69287109375,17.88330078125,-42.7490234375
0.536,0.4453125,0.8709716796875,-0.0604248046875,-0.8544921875,-1.52587890625,-0.30517578125,-47.69287109375,17.88330078125,-42.7490234375
0.537,0.4449462890625,0.870849609375,-0.05908203125,-0.8544921875,-1.52587890625,-0.30517578125,-47.705078125,17.7734375,-41.9189453125
0.562,0.4449462890625,0.870849609375,-0.05908203125,-0.8544921875,-1.52587890625,-0.30517578125,-47.705078125,17.7734375,-41.9189453125
0.569,0.4449462890625,0.870849609375,-0.05908203125,-0.8544921875,-1.52587890625,-0.30517578125,-47.705078125,17.7734375,-41.9189453125
0.581,0.4449462890625,0.870849609375,-0.05908203125,-0.8544921875,-1.46484375,-0.30517578125,-48.4619140625,17.95654296875,-41.05224609375
0.626,0.446044921875,0.871337890625,-0.0556640625,-1.03759765625,-1.5869140625,-0.244140625,-48.4619140625,17.95654296875,-41.05224609375
0.627,0.446044921875,0.871337890625,-0.0556640625,-1.03759765625,-1.5869140625,-0.244140625,-48.4619140625,18.603515625,-41.41845703125
0.671,0.446533203125,0.871826171875,-0.0545654296875,-1.953125,-1.0986328125,0.30517578125,-48.4619140625,18.603515625,-41.41845703125
0.672,0.446533203125,0.871826171875,-0.0545654296875,-1.953125,-1.0986328125,0.30517578125,-48.47412109375,18.359375,-42.919921875
0.678,0.446533203125,0.871826171875,-0.0545654296875,-1.953125,-1.0986328125,0.30517578125,-48.47412109375,18.359375,-42.919921875
0.716,0.4451904296875,0.8721923828125,-0.0528564453125,-2.62451171875,-0.67138671875,0.30517578125,-48.47412109375,18.359375,-42.919921875
0.717,0.4451904296875,0.8721923828125,-0.0528564453125,-2.62451171875,-0.67138671875,0.30517578125,-48.20556640625,18.15185546875,-42.32177734375
0.761,0.442626953125,0.873291015625,-0.0533447265625,-3.72314453125,-0.18310546875,-0.244140625,-48.20556640625,18.15185546875,-42.32177734375
0.762,0.442626953125,0.873291015625,-0.0533447265625,-3.72314453125,-0.18310546875,-0.244140625,-48.0712890625,17.98095703125,-40.83251953125
0.792,0.442626953125,0.873291015625,-0.0533447265625,-3.72314453125,-0.18310546875,-0.244140625,-48.0712890625,17.98095703125,-40.83251953125
0.807,0.4390869140625,0.873291015625,-0.0565185546875,-3.72314453125,-0.18310546875,-0.244140625,-48.0712890625,17.98095703125,-40.83251953125
0.808,0.4390869140625,0.873291015625,-0.0565185546875,-4.150390625,0.0,-1.28173828125,-47.47314453125,17.822265625,-41.44287109375
0.851,0.439453125,0.873291015625,-0.0615234375,-4.150390625,0.0,-1.28173828125,-47.47314453125,17.822265625,-41.44287109375
0.852,0.439453125,0.873291015625,-0.0615234375,-4.08935546875,-0.18310546875,-2.197265625,-48.01025390625,17.6513671875,-42.431640625
0.87,0.439453125,0.873291015625,-0.0615234375,-4.08935546875,-0.18310546875,-2.197265625,-48.01025390625,17.6513671875,-42.431640625
0.897,0.440185546875,0.873046875,-0.068115234375,-4.08935546875,-0.18310546875,-2.197265625,-48.01025390625,17.6513671875,-42.431640625
0.898,0.440185546875,0.873046875,-0.068115234375,-3.35693359375,-0.67138671875,-3.0517578125,-47.71728515625,18.6767578125,-42.236328125
0.941,0.440185546875,0.873046875,-0.068115234375,-3.35693359375,-0.67138671875,-3.0517578125,-47.71728515625,18.6767578125,-42.236328125
0.942,0.4403076171875,0.8709716796875,-0.0743408203125,-1.52587890625,-1.52587890625,-4.0283203125,-47.71728515625,18.6767578125,-42.236328125
0.943,0.4403076171875,0.8709716796875,-0.0743408203125,-1.52587890625,-1.52587890625,-4.0283203125,-46.47216796875,17.4072265625,-42.71240234375
0.982,0.4403076171875,0.8709716796875,-0.0743408203125,-1.52587890625,-1.52587890625,-4.0283203125,-46.47216796875,17.4072265625,-42.71240234375
0.987,0.4476318359375,0.8681640625,-0.0767822265625,-0.54931640625,-2.25830078125,-4.45556640625,-46.47216796875,17.4072265625,-42.71240234375
0.987,0.4500732421875,0.863037109375,-0.074951171875,-0.54931640625,-2.25830078125,-4.45556640625,-46.47216796875,17.4072265625,-42.71240234375
1.011,0.4500732421875,0.863037109375,-0.074951171875,-0.54931640625,-2.25830078125,-4.45556640625,-46.47216796875,17.4072265625,-42.71240234375
1.051,0.4500732421875,0.863037109375,-0.074951171875,-0.54931640625,-2.25830078125,-4.45556640625,-46.47216796875,17.4072265625,-42.71240234375
1.088,0.4500732421875,0.863037109375,-0.074951171875,-0.54931640625,-2.25830078125,-4.45556640625,-46.47216796875,17.4072265625,-42.71240234375
1.122,0.4500732421875,0.863037109375,-0.074951171875,0.8544921875,-1.708984375,-4.0283203125,-47.802734375,17.67578125,-41.8701171875
1.123,0.4542236328125,0.8607177734375,-0.078369140625,2.3193359375,-3.2958984375,-4.69970703125,-47.802734375,17.67578125,-41.8701171875
1.166,0.4542236328125,0.8607177734375,-0.078369140625,2.3193359375,-3.2958984375,-4.69970703125,-47.7783203125,16.69921875,-42.93212890625
1.204,0.4542236328125,0.8607177734375,-0.078369140625,2.3193359375,-3.2958984375,-4.69970703125,-47.7783203125,16.69921875,-42.93212890625
1.207,0.4542236328125,0.8607177734375,-0.078369140625,2.3193359375,-3.2958984375,-4.69970703125,-47.7783203125,16.69921875,-42.93212890625
1.211,0.4696044921875,0.95849609375,-0.08642578125,9.521484375,-8.30078125,-10.7421875,-47.7783203125,16.69921875,-42.93212890625
1.213,0.4696044921875,0.95849609375,-0.08642578125,9.521484375,-8.30078125,-10.7421875,-46.78955078125,16.97998046875,-41.796875
1.256,0.544677734375,0.90673828125,-0.0274658203125,9.521484375,-8.30078125,-10.7421875,-46.78955078125,16.97998046875,-41.796875
1.257,0.544677734375,0.90673828125,-0.0274658203125,6.04248046875,-3.7841796875,-9.21630859375,-47.75390625,18.2861328125,-42.27294921875
1.282,0.544677734375,0.90673828125,-0.0274658203125,6.04248046875,-3.7841796875,-9.21630859375,-47.75390625,18.2861328125,-42.27294921875
1.39,0.544677734375,0.90673828125,-0.0274658203125,6.04248046875,-3.7841796875,-9.21630859375,-47.75390625,18.2861328125,-42.27294921875
1.391,0.4608154296875,0.838134765625,0.01025390625,6.04248046875,-3.7841796875,-9.21630859375,-47.75390625,18.2861328125,-42.27294921875
1.392,0.4608154296875,0.838134765625,0.01025390625,3.41796875,-4.08935546875,-12.3291015625,-47.75390625,18.2861328125,-42.27294921875
1.393,0.4608154296875,0.838134765625,0.01025390625,3.41796875,-4.08935546875,-12.3291015625,-47.509765625,18.06640625,-41.8212890625
1.395,0.4608154296875,0.838134765625,0.01025390625,3.41796875,-4.08935546875,-12.3291015625,-47.509765625,18.06640625,-41.8212890625
1.437,0.4688720703125,0.7998046875,-0.0059814453125,3.41796875,-4.08935546875,-12.3291015625,-47.509765625,18.06640625,-41.8212890625
1.455,0.4688720703125,0.7998046875,-0.0059814453125,3.41796875,-4.08935546875,-12.3291015625,-47.509765625,18.06640625,-41.8212890625
1.503,0.4688720703125,0.7998046875,-0.0059814453125,3.41796875,-4.08935546875,-12.3291015625,-47.509765625,18.06640625,-41.8212890625
1.534,0.4688720703125,0.7998046875,-0.0059814453125,3.41796875,-4.08935546875,-12.3291015625,-47.509765625,18.06640625,-41.8212890625
1.542,0.4688720703125,0.7998046875,-0.0059814453125,3.41796875,-4.08935546875,-12.3291015625,-47.509765625,18.06640625,-41.8212890625
1.571,0.4688720703125,0.7998046875,-0.0059814453125,3.41796875,-4.08935546875,-12.3291015625,-47.509765625,18.06640625,-41.8212890625
1.572,0.4688720703125,0.7998046875,-0.0059814453125,-3.72314453125,0.79345703125,2.13623046875,-47.94921875,18.06640625,-40.41748046875
1.573,0.51806640625,0.805908203125,0.017822265625,-3.72314453125,0.79345703125,2.13623046875,-47.94921875,18.06640625,-40.41748046875
1.58,0.51806640625,0.805908203125,0.017822265625,-3.72314453125,0.79345703125,2.13623046875,-47.94921875,18.06640625,-40.41748046875
1.61,0.51806640625,0.805908203125,0.017822265625,-3.72314453125,0.79345703125,2.13623046875,-47.94921875,18.06640625,-40.41748046875
1.662,0.4781494140625,0.8485107421875,-0.049072265625,-10.19287109375,3.0517578125,8.48388671875,-47.412109375,17.87109375,-40.83251953125
1.663,0.4781494140625,0.8485107421875,-0.049072265625,-23.193359375,11.3525390625,15.869140625,-47.412109375,17.87109375,-40.83251953125
1.682,0.4781494140625,0.8485107421875,-0.049072265625,-23.193359375,11.3525390625,15.869140625,-47.412109375,17.87109375,-40.83251953125
1.693,0.4781494140625,0.8485107421875,-0.049072265625,-23.193359375,11.3525390625,15.869140625,-47.412109375,17.87109375,-40.83251953125
1.76,0.4781494140625,0.8485107421875,-0.049072265625,-23.193359375,11.3525390625,15.869140625,-47.412109375,17.87109375,-40.83251953125
1.796,0.4781494140625,0.8485107421875,-0.049072265625,-23.193359375,11.3525390625,15.869140625,-46.81396484375,16.95556640625,-41.90673828125
1.872,0.4781494140625,0.8485107421875,-0.049072265625,-23.193359375,11.3525390625,15.869140625,-46.81396484375,16.95556640625,-41.90673828125
1.882,0.4781494140625,0.8485107421875,-0.049072265625,-23.193359375,11.3525390625,15.869140625,-46.81396484375,16.95556640625,-41.90673828125
1.931,0.4478759765625,0.863037109375,-0.133544921875,-21.05712890625,8.85009765625,17.7001953125,-46.81396484375,16.95556640625,-41.90673828125
1.932,0.4478759765625,0.863037109375,-0.133544921875,-21.05712890625,8.85009765625,17.7001953125,-46.74072265625,17.041015625,-41.0888671875
1.933,0.4178466796875,0.871826171875,-0.148681640625,-21.05712890625,8.85009765625,17.7001953125,-46.74072265625,17.041015625,-41.0888671875
1.976,0.4178466796875,0.871826171875,-0.148681640625,13.36669921875,-7.32421875,4.0283203125,-47.39990234375,18.02978515625,-41.19873046875
1.977,0.385009765625,0.9061279296875,-0.15234375,13.36669921875,-7.32421875,4.0283203125,-47.39990234375,18.02978515625,-41.19873046875
1.985,0.385009765625,0.9061279296875,-0.15234375,13.36669921875,-7.32421875,4.0283203125,-47.39990234375,18.02978515625,-41.19873046875
2.068,0.385009765625,0.9061279296875,-0.15234375,13.36669921875,-7.32421875,4.0283203125,-47.39990234375,18.02978515625,-41.19873046875
2.088,0.385009765625,0.9061279296875,-0.15234375,13.36669921875,-7.32421875,4.0283203125,-47.39990234375,18.02978515625,-41.19873046875
2.111,0.385009765625,0.9061279296875,-0.15234375,23.0712890625,-11.8408203125,2.0751953125,-47.39990234375,18.02978515625,-41.19873046875
2.156,-3.99951171875,3.99951171875,-0.644287109375,23.0712890625,-11.8408203125,2.0751953125,-49.4873046875,17.08984375,-40.3564453125
2.157,0.2586669921875,0.119140625,0.1859130859375,-249.08447265625,-337.890625,83.6181640625,-49.4873046875,17.08984375,-40.3564453125
2.163,0.2586669921875,0.119140625,0.1859130859375,-249.08447265625,-337.890625,83.6181640625,-49.4873046875,17.08984375,-40.3564453125
2.179,0.2586669921875,0.119140625,0.1859130859375,-249.08447265625,-337.890625,83.6181640625,-49.4873046875,17.08984375,-40.3564453125
2.182,0.2586669921875,0.119140625,0.1859130859375,-249.08447265625,-337.890625,83.6181640625,-49.4873046875,17.08984375,-40.3564453125
2.215,0.2586669921875,0.119140625,0.1859130859375,-249.08447265625,-337.890625,83.6181640625,-49.4873046875,17.08984375,-40.3564453125
2.246,0.2586669921875,0.119140625,0.1859130859375,246.03271484375,-403.74755859375,-365.78369140625,-53.662109375,6.25,1.25732421875
2.247,0.923583984375,0.3565673828125,0.9510498046875,253.7841796875,-404.541015625,-338.5009765625,-53.662109375,6.25,1.25732421875
2.281,0.923583984375,0.3565673828125,0.9510498046875,253.7841796875,-404.541015625,-338.5009765625,-53.662109375,6.25,1.25732421875
2.291,0.0653076171875,-0.3150634765625,0.9381103515625,253.7841796875,-404.541015625,-338.5009765625,-39.44091796875,-4.7607421875,6.93359375
2.292,0.0653076171875,-0.3150634765625,0.9381103515625,233.70361328125,-393.1884765625,-309.38720703125,-39.44091796875,-4.7607421875,6.93359375
2.294,0.0653076171875,-0.3150634765625,0.9381103515625,233.70361328125,-393.1884765625,-309.38720703125,-39.44091796875,-4.7607421875,6.93359375
2.336,-0.497314453125,-0.576904296875,1.0670166015625,233.70361328125,-393.1884765625,-309.38720703125,-23.2421875,-10.2783203125,3.77197265625
2.337,-0.497314453125,-0.576904296875,1.0670166015625,225.28076171875,-386.5966796875,-300.72021484375,-23.2421875,-10.2783203125,3.77197265625
2.36,-0.497314453125,-0.576904296875,1.0670166015625,225.28076171875,-386.5966796875,-300.72021484375,-23.2421875,-10.2783203125,3.77197265625
2.403,-0.497314453125,-0.576904296875,1.0670166015625,225.28076171875,-386.5966796875,-300.72021484375,-23.2421875,-10.2783203125,3.77197265625
2.426,-0.554931640625,-0.4345703125,0.544921875,225.28076171875,-386.5966796875,-300.72021484375,-8.0078125,-11.962890625,-4.19921875
2.427,-0.554931640625,-0.4345703125,0.544921875,212.58544921875,-392.9443359375,-292.48046875,-8.0078125,-11.962890625,-4.19921875
2.479,-0.554931640625,-0.4345703125,0.544921875,212.58544921875,-392.9443359375,-292.48046875,-8.0078125,-11.962890625,-4.19921875
2.516,-0.554931640625,-0.4345703125,0.544921875,212.58544921875,-392.9443359375,-292.48046875,1.57470703125,-6.494140625,-15.22216796875
2.582,-0.554931640625,-0.4345703125,0.544921875,212.58544921875,-392.9443359375,-292.48046875,1.57470703125,-6.494140625,-15.22216796875
2.593,-0.554931640625,-0.4345703125,0.544921875,212.58544921875,-392.9443359375,-292.48046875,1.57470703125,-6.494140625,-15.22216796875
2.606,-1.6038818359375,0.07373046875,-0.341064453125,212.58544921875,-392.9443359375,-292.48046875,1.57470703125,-6.494140625,-15.22216796875
2.607,-1.6038818359375,0.07373046875,-0.341064453125,178.955078125,-395.99609375,-292.6025390625,1.8798828125,12.43896484375,-35.14404296875
2.609,-0.1263427734375,0.0550537109375,-0.28125,178.955078125,-395.99609375,-292.6025390625,1.8798828125,12.43896484375,-35.14404296875
2.651,-0.1263427734375,0.0550537109375,-0.28125,156.005859375,-371.52099609375,-320.86181640625,1.8798828125,12.43896484375,-35.14404296875
2.652,0.44140625,0.457275390625,-0.145751953125,156.005859375,-371.52099609375,-320.86181640625,-27.47802734375,32.26318359375,-35.99853515625
2.67,0.44140625,0.457275390625,-0.145751953125,156.005859375,-371.52099609375,-320.86181640625,-27.47802734375,32.26318359375,-35.99853515625
2.704,0.44140625,0.457275390625,-0.145751953125,156.005859375,-371.52099609375,-320.86181640625,-27.47802734375,32.26318359375,-35.99853515625
2.742,0.44140625,0.457275390625,-0.145751953125,180.2978515625,-364.56298828125,-347.47314453125,-27.47802734375,32.26318359375,-35.99853515625
2.743,1.25732421875,0.87646484375,-0.0106201171875,180.2978515625,-364.56298828125,-347.47314453125,-37.39013671875,32.11669921875,-27.7099609375
2.744,1.25732421875,0.87646484375,-0.0106201171875,184.99755859375,-360.04638671875,-359.9853515625,-37.39013671875,32.11669921875,-27.7099609375
2.787,1.25732421875,0.87646484375,-0.0106201171875,184.99755859375,-360.04638671875,-359.9853515625,-43.73779296875,27.38037109375,-17.15087890625
2.788,0.7314453125,-0.123779296875,0.4693603515625,192.7490234375,-346.5576171875,-331.4208984375,-43.73779296875,27.38037109375,-17.15087890625
2.815,0.7314453125,-0.123779296875,0.4693603515625,192.7490234375,-346.5576171875,-331.4208984375,-43.73779296875,27.38037109375,-17.15087890625
2.819,0.7314453125,-0.123779296875,0.4693603515625,192.7490234375,-346.5576171875,-331.4208984375,-43.73779296875,27.38037109375,-17.15087890625
2.831,0.7314453125,-0.123779296875,0.4693603515625,192.7490234375,-346.5576171875,-331.4208984375,-43.0419921875,21.44775390625,-8.48388671875
2.832,0.634521484375,-0.5374755859375,1.1165771484375,190.7958984375,-327.69775390625,-329.7119140625,-43.0419921875,21.44775390625,-8.48388671875
2.876,0.634521484375,-0.5374755859375,1.1165771484375,190.7958984375,-327.69775390625,-329.7119140625,-36.7919921875,13.57421875,-1.3427734375
2.877,0.1842041015625,-0.4197998046875,0.631591796875,186.21826171875,-321.47216796875,-322.75390625,-36.7919921875,13.57421875,-1.3427734375
2.88,0.1842041015625,-0.4197998046875,0.631591796875,186.21826171875,-321.47216796875,-322.75390625,-36.7919921875,13.57421875,-1.3427734375
2.895,0.1842041015625,-0.4197998046875,0.631591796875,186.21826171875,-321.47216796875,-322.75390625,-36.7919921875,13.57421875,-1.3427734375
2.921,0.1187744140625,-0.521728515625,0.6474609375,186.21826171875,-321.47216796875,-322.75390625,-36.7919921875,13.57421875,-1.3427734375
2.922,0.1187744140625,-0.521728515625,0.6474609375,185.11962890625,-320.00732421875,-320.12939453125,-27.34375,6.89697265625,1.91650390625
2.967,-0.2205810546875,-0.5980224609375,0.5654296875,187.01171875,-319.88525390625,-316.40625,-15.97900390625,3.7841796875,0.9521484375
3.002,-0.2205810546875,-0.5980224609375,0.5654296875,187.01171875,-319.88525390625,-316.40625,-15.97900390625,3.7841796875,0.9521484375
3.005,-0.2205810546875,-0.5980224609375,0.5654296875,187.01171875,-319.88525390625,-316.40625,-15.97900390625,3.7841796875,0.9521484375
3.012,-0.9476318359375,-1.1446533203125,0.7481689453125,187.01171875,-319.88525390625,-316.40625,-15.97900390625,3.7841796875,0.9521484375
3.057,-0.9476318359375,-1.1446533203125,0.7481689453125,179.13818359375,-316.7724609375,-309.50927734375,-5.859375,4.4921875,-4.638671875
3.058,-0.982177734375,-0.57861328125,0.0701904296875,179.13818359375,-316.7724609375,-309.50927734375,-5.859375,4.4921875,-4.638671875
3.072,-0.982177734375,-0.57861328125,0.0701904296875,179.13818359375,-316.7724609375,-309.50927734375,-5.859375,4.4921875,-4.638671875
3.102,-0.982177734375,-0.57861328125,0.0701904296875,170.2880859375,-317.44384765625,-307.4951171875,-5.859375,4.4921875,-4.638671875
3.103,-0.867431640625,0.0445556640625,-0.5386962890625,170.2880859375,-317.44384765625,-307.4951171875,3.9794921875,14.794921875,-16.73583984375
3.115,-0.867431640625,0.0445556640625,-0.5386962890625,170.2880859375,-317.44384765625,-307.4951171875,3.9794921875,14.794921875,-16.73583984375
3.147,-0.867431640625,0.0445556640625,-0.5386962890625,163.63525390625,-310.60791015625,-310.9130859375,3.9794921875,14.794921875,-16.73583984375
3.148,-0.3941650390625,0.93359375,-0.72216796875,163.63525390625,-310.60791015625,-310.9130859375,3.3935546875,21.42333984375,-23.35205078125
3.181,-0.3941650390625,0.93359375,-0.72216796875,163.63525390625,-310.60791015625,-310.9130859375,3.3935546875,21.42333984375,-23.35205078125
3.193,-0.3941650390625,0.93359375,-0.72216796875,163.63525390625,-310.60791015625,-310.9130859375,3.3935546875,21.42333984375,-23.35205078125
3.237,-0.3941650390625,0.93359375,-0.72216796875,115.234375,-187.255859375,-222.59521484375,-0.72021484375,18.2373046875,-21.6552734375
3.238,-0.1622314453125,-0.061279296875,-0.3194580078125,-192.87109375,-259.33837890625,-126.52587890625,-0.72021484375,18.2373046875,-21.6552734375
3.255,-0.1622314453125,-0.061279296875,-0.3194580078125,-192.87109375,-259.33837890625,-126.52587890625,-0.72021484375,18.2373046875,-21.6552734375
3.282,-0.1971435546875,0.1729736328125,-1.304443359375,-194.7021484375,-282.5927734375,-94.05517578125,-4.26025390625,14.61181640625,-17.28515625
3.303,-0.1971435546875,0.1729736328125,-1.304443359375,-194.7021484375,-282.5927734375,-94.05517578125,-4.26025390625,14.61181640625,-17.28515625
3.327,0.1466064453125,-0.129150390625,-1.324462890625,-194.7021484375,-282.5927734375,-94.05517578125,-4.26025390625,14.61181640625,-17.28515625
3.328,0.1466064453125,-0.129150390625,-1.324462890625,-194.27490234375,-283.447265625,-76.84326171875,-5.517578125,10.53466796875,-12.451171875
3.372,0.1839599609375,-0.1912841796875,-0.5364990234375,-197.6318359375,-286.68212890625,-63.4765625,-5.517578125,10.53466796875,-12.451171875
3.377,0.1839599609375,-0.1912841796875,-0.5364990234375,-197.6318359375,-286.68212890625,-63.4765625,-5.517578125,10.53466796875,-12.451171875
3.415,0.1839599609375,-0.1912841796875,-0.5364990234375,-197.6318359375,-286.68212890625,-63.4765625,-5.517578125,10.53466796875,-12.451171875
3.462,0.1839599609375,-0.1912841796875,-0.5364990234375,-197.6318359375,-286.68212890625,-63.4765625,-6.3232421875,8.33740234375,-6.5185546875
3.463,0.5968017578125,-0.5028076171875,-0.7630615234375,-197.6318359375,-286.68212890625,-63.4765625,-6.3232421875,8.33740234375,-6.5185546875
3.464,0.5968017578125,-0.5028076171875,-0.7630615234375,-200.74462890625,-282.40966796875,-57.18994140625,-6.06689453125,6.94580078125,-0.08544921875
3.482,0.5968017578125,-0.5028076171875,-0.7630615234375,-200.74462890625,-282.40966796875,-57.18994140625,-6.06689453125,6.94580078125,-0.08544921875
3.494,0.5968017578125,-0.5028076171875,-0.7630615234375,-200.74462890625,-282.40966796875,-57.18994140625,-6.06689453125,6.94580078125,-0.08544921875
3.507,0.55126953125,-0.5164794921875,-0.0933837890625,-197.021484375,-265.07568359375,-47.79052734375,-6.06689453125,6.94580078125,-0.08544921875
3.508,0.55126953125,-0.5164794921875,-0.0933837890625,-197.021484375,-265.07568359375,-47.79052734375,-0.5615234375,7.421875,9.48486328125
3.555,0.55126953125,-0.5164794921875,-0.0933837890625,-197.021484375,-265.07568359375,-47.79052734375,-0.5615234375,7.421875,9.48486328125
3.597,0.80859375,-0.7581787109375,0.2257080078125,-197.021484375,-265.07568359375,-47.79052734375,-0.5615234375,7.421875,9.48486328125
3.598,0.80859375,-0.7581787109375,0.2257080078125,-200.37841796875,-261.71875,-47.54638671875,2.94189453125,9.60693359375,11.4501953125
3.603,0.80859375,-0.7581787109375,0.2257080078125,-200.37841796875,-261.71875,-47.54638671875,2.94189453125,9.60693359375,11.4501953125
3.642,0.445556640625,-0.632568359375,0.4775390625,-200.37841796875,-261.71875,-47.54638671875,2.94189453125,9.60693359375,11.4501953125
3.643,0.445556640625,-0.632568359375,0.4775390625,-185.302734375,-241.76025390625,-42.29736328125,7.8857421875,12.21923828125,15.83251953125
3.668,0.445556640625,-0.632568359375,0.4775390625,-185.302734375,-241.76025390625,-42.29736328125,7.8857421875,12.21923828125,15.83251953125
3.687,0.31640625,-0.5565185546875,0.9775390625,-185.302734375,-241.76025390625,-42.29736328125,7.8857421875,12.21923828125,15.83251953125
3.688,0.31640625,-0.5565185546875,0.9775390625,-181.0302734375,-232.72705078125,-40.4052734375,11.70654296875,14.94140625,15.46630859375
3.716,0.31640625,-0.5565185546875,0.9775390625,-181.0302734375,-232.72705078125,-40.4052734375,11.70654296875,14.94140625,15.46630859375
3.732,0.0418701171875,-0.26318359375,0.656982421875,-181.0302734375,-232.72705078125,-40.4052734375,11.70654296875,14.94140625,15.46630859375
3.733,0.0418701171875,-0.26318359375,0.656982421875,-181.94580078125,-223.93798828125,-38.6962890625,15.13671875,17.73681640625,14.75830078125
3.777,-0.1622314453125,-0.1962890625,0.99951171875,-179.26025390625,-215.33203125,-38.75732421875,15.13671875,17.73681640625,14.75830078125
3.778,-0.1622314453125,-0.1962890625,0.99951171875,-179.26025390625,-215.33203125,-38.75732421875,18.59130859375,20.7763671875,12.97607421875
3.793,-0.1622314453125,-0.1962890625,0.99951171875,-179.26025390625,-215.33203125,-38.75732421875,18.59130859375,20.7763671875,12.97607421875
3.822,-0.39404296875,-0.020263671875,1.05029296875,-177.001953125,-207.33642578125,-41.93115234375,18.59130859375,20.7763671875,12.97607421875
3.823,-0.39404296875,-0.020263671875,1.05029296875,-177.001953125,-207.33642578125,-41.93115234375,21.142578125,23.57177734375,10.55908203125
3.828,-0.39404296875,-0.020263671875,1.05029296875,-177.001953125,-207.33642578125,-41.93115234375,21.142578125,23.57177734375,10.55908203125
3.862,-0.39404296875,-0.020263671875,1.05029296875,-177.001953125,-207.33642578125,-41.93115234375,21.142578125,23.57177734375,10.55908203125
3.877,-0.4588623046875,0.1427001953125,0.7177734375,-177.001953125,-207.33642578125,-41.93115234375,21.142578125,23.57177734375,10.55908203125
3.903,-0.4588623046875,0.1427001953125,0.7177734375,-177.001953125,-207.33642578125,-41.93115234375,21.142578125,23.57177734375,10.55908203125
3.911,-0.4588623046875,0.1427001953125,0.7177734375,-173.9501953125,-203.369140625,-44.43359375,22.2412109375,25.28076171875,7.43408203125
3.982,-0.4588623046875,0.1427001953125,0.7177734375,-173.9501953125,-203.369140625,-44.43359375,22.2412109375,25.28076171875,7.43408203125
4.002,-0.57958984375,0.268310546875,0.605224609375,-173.9501953125,-203.369140625,-44.43359375,22.2412109375,25.28076171875,7.43408203125
4.053,-0.57958984375,0.268310546875,0.605224609375,-173.9501953125,-203.369140625,-44.43359375,22.2412109375,25.28076171875,7.43408203125
4.083,-0.57958984375,0.268310546875,0.605224609375,-173.9501953125,-203.369140625,-44.43359375,22.2412109375,25.28076171875,7.43408203125
4.092,-0.57958984375,0.268310546875,0.605224609375,-169.189453125,-197.998046875,-45.59326171875,22.2412109375,25.28076171875,7.43408203125
4.093,-0.7833251953125,0.4879150390625,0.304443359375,-169.189453125,-197.998046875,-45.59326171875,23.1689453125,27.0751953125,2.84423828125
4.094,-0.7833251953125,0.4879150390625,0.304443359375,-165.8935546875,-196.59423828125,-47.42431640625,23.1689453125,27.0751953125,2.84423828125
4.119,-0.7833251953125,0.4879150390625,0.304443359375,-165.8935546875,-196.59423828125,-47.42431640625,23.1689453125,27.0751953125,2.84423828125
4.137,-0.6964111328125,0.2447509765625,-1.3560791015625,-165.8935546875,-196.59423828125,-47.42431640625,22.74169921875,30.1025390625,-6.70166015625
4.138,-0.6964111328125,0.2447509765625,-1.3560791015625,-67.68798828125,-529.6630859375,298.40087890625,22.74169921875,30.1025390625,-6.70166015625
4.165,-0.6964111328125,0.2447509765625,-1.3560791015625,-67.68798828125,-529.6630859375,298.40087890625,22.74169921875,30.1025390625,-6.70166015625
4.182,0.192626953125,-0.0108642578125,-1.634765625,-67.68798828125,-529.6630859375,298.40087890625,-5.029296875,20.54443359375,-23.779296875
4.183,0.192626953125,-0.0108642578125,-1.634765625,-52.734375,-538.75732421875,278.38134765625,-5.029296875,20.54443359375,-23.779296875
4.204,0.192626953125,-0.0108642578125,-1.634765625,-52.734375,-538.75732421875,278.38134765625,-5.029296875,20.54443359375,-23.779296875
4.227,0.192626953125,-0.0108642578125,-1.634765625,-52.734375,-538.75732421875,278.38134765625,-25.42724609375,19.62890625,-19.15283203125
4.228,0.3031005859375,0.073974609375,-0.3026123046875,-65.4296875,-536.56005859375,238.6474609375,-25.42724609375,19.62890625,-19.15283203125
4.272,1.498291015625,0.1768798828125,-0.9613037109375,-65.4296875,-536.56005859375,238.6474609375,-39.990234375,22.88818359375,-5.45654296875
4.28,1.498291015625,0.1768798828125,-0.9613037109375,-65.4296875,-536.56005859375,238.6474609375,-39.990234375,22.88818359375,-5.45654296875
4.316,1.498291015625,0.1768798828125,-0.9613037109375,-65.4296875,-536.56005859375,238.6474609375,-39.990234375,22.88818359375,-5.45654296875
4.317,1.498291015625,0.1768798828125,-0.9613037109375,-45.83740234375,-573.974609375,231.4453125,-44.287109375,29.74853515625,15.9423828125
4.318,0.4320068359375,0.1390380859375,0.1282958984375,-45.83740234375,-573.974609375,231.4453125,-44.287109375,29.74853515625,15.9423828125
4.387,0.4320068359375,0.1390380859375,0.1282958984375,-45.83740234375,-573.974609375,231.4453125,-44.287109375,29.74853515625,15.9423828125
4.395,0.4320068359375,0.1390380859375,0.1282958984375,-45.83740234375,-573.974609375,231.4453125,-44.287109375,29.74853515625,15.9423828125
4.407,0.4320068359375,0.1390380859375,0.1282958984375,-34.11865234375,-543.27392578125,215.8203125,-33.60595703125,36.19384765625,33.06884765625
4.408,1.3067626953125,0.977783203125,1.0693359375,9.21630859375,-540.8935546875,209.65576171875,-33.60595703125,36.19384765625,33.06884765625
4.452,-0.0516357421875,1.0264892578125,1.384033203125,25.20751953125,-502.8076171875,234.0087890625,-12.40234375,39.90478515625,44.12841796875
4.47,-0.0516357421875,1.0264892578125,1.384033203125,25.20751953125,-502.8076171875,234.0087890625,-12.40234375,39.90478515625,44.12841796875
4.497,-0.0516357421875,1.0264892578125,1.384033203125,25.20751953125,-502.8076171875,234.0087890625,12.0361328125,38.2080078125,43.84765625
4.499,-0.3770751953125,0.49853515625,0.6148681640625,20.93505859375,-467.10205078125,217.1630859375,12.0361328125,38.2080078125,43.84765625
4.54,-0.3770751953125,0.49853515625,0.6148681640625,20.93505859375,-467.10205078125,217.1630859375,12.0361328125,38.2080078125,43.84765625
4.542,-0.40673828125,0.27587890625,0.2391357421875,20.93505859375,-467.10205078125,217.1630859375,31.04248046875,32.373046875,32.71484375
4.543,-0.40673828125,0.27587890625,0.2391357421875,16.17431640625,-453.369140625,218.994140625,31.04248046875,32.373046875,32.71484375
4.582,-0.40673828125,0.27587890625,0.2391357421875,16.17431640625,-453.369140625,218.994140625,31.04248046875,32.373046875,32.71484375
4.587,-1.290283203125,0.369140625,0.231689453125,16.17431640625,-453.369140625,218.994140625,43.408203125,24.072265625,16.24755859375
4.588,-1.290283203125,0.369140625,0.231689453125,12.39013671875,-449.462890625,221.37451171875,43.408203125,24.072265625,16.24755859375
4.612,-1.290283203125,0.369140625,0.231689453125,12.39013671875,-449.462890625,221.37451171875,43.408203125,24.072265625,16.24755859375
4.632,-1.18212890625,0.0543212890625,-0.4075927734375,4.08935546875,-442.87109375,222.47314453125,44.68994140625,15.51513671875,-1.06201171875
4.678,-0.3997802734375,-0.0517578125,-0.3079833984375,4.08935546875,-442.87109375,222.47314453125,35.09521484375,6.5185546875,-17.2119140625
4.679,-0.3997802734375,-0.0517578125,-0.3079833984375,-3.90625,-436.34033203125,218.75,35.09521484375,6.5185546875,-17.2119140625
4.691,-0.3997802734375,-0.0517578125,-0.3079833984375,-3.90625,-436.34033203125,218.75,35.09521484375,6.5185546875,-17.2119140625
4.694,-0.3997802734375,-0.0517578125,-0.3079833984375,-3.90625,-436.34033203125,218.75,35.09521484375,6.5185546875,-17.2119140625
4.722,-0.190673828125,-0.195068359375,-0.59375,-3.90625,-436.34033203125,218.75,17.93212890625,2.7587890625,-27.13623046875
4.723,-0.190673828125,-0.195068359375,-0.59375,-11.23046875,-439.63623046875,212.890625,17.93212890625,2.7587890625,-27.13623046875
4.767,-0.190673828125,-0.195068359375,-0.59375,-11.23046875,-439.63623046875,212.890625,-4.23583984375,0.5126953125,-28.5400390625
4.768,-0.016845703125,-0.3883056640625,-1.299072265625,-11.23046875,-439.63623046875,212.890625,-4.23583984375,0.5126953125,-28.5400390625
4.769,-0.016845703125,-0.3883056640625,-1.299072265625,-15.44189453125,-452.392578125,212.58544921875,-4.23583984375,0.5126953125,-28.5400390625
4.812,0.078125,-0.4132080078125,-1.3404541015625,-17.51708984375,-459.47265625,203.55224609375,-4.23583984375,0.5126953125,-28.5400390625
4.813,0.078125,-0.4132080078125,-1.3404541015625,-17.51708984375,-459.47265625,203.55224609375,-25.06103515625,2.099609375,-23.76708984375
4.874,0.078125,-0.4132080078125,-1.3404541015625,-17.51708984375,-459.47265625,203.55224609375,-25.06103515625,2.099609375,-23.76708984375
4.882,0.078125,-0.4132080078125,-1.3404541015625,-17.51708984375,-459.47265625,203.55224609375,-25.06103515625,2.099609375,-23.76708984375
4.912,0.5494384765625,-0.2513427734375,-0.7257080078125,-17.51708984375,-459.47265625,203.55224609375,-25.06103515625,2.099609375,-23.76708984375
4.913,0.760009765625,-0.11279296875,-0.4285888671875,-15.19775390625,-466.552734375,196.1669921875,-40.6982421875,6.8603515625,-9.3505859375
4.916,0.760009765625,-0.11279296875,-0.4285888671875,-15.19775390625,-466.552734375,196.1669921875,-40.6982421875,6.8603515625,-9.3505859375
4.946,0.760009765625,-0.11279296875,-0.4285888671875,-10.7421875,-477.294921875,195.37353515625,-40.6982421875,6.8603515625,-9.3505859375
4.947,1.4508056640625,0.1138916015625,0.5068359375,-10.7421875,-477.294921875,195.37353515625,-42.51708984375,19.39697265625,22.4853515625
4.986,1.4508056640625,0.1138916015625,0.5068359375,-10.7421875,-477.294921875,195.37353515625,-42.51708984375,19.39697265625,22.4853515625
4.992,-0.12646484375,3.99951171875,-1.3634033203125,-3.7841796875,-452.2705078125,200.3173828125,-30.2978515625,24.25537109375,36.12060546875
5.032,-0.12646484375,3.99951171875,-1.3634033203125,-3.7841796875,-452.2705078125,200.3173828125,-30.2978515625,24.25537109375,36.12060546875
5.082,-0.12646484375,3.99951171875,-1.3634033203125,-61.46240234375,-450.50048828125,102.5390625,-30.2978515625,24.25537109375,36.12060546875
5.083,-0.0069580078125,0.2056884765625,0.1663818359375,-175.59814453125,-274.2919921875,-26.67236328125,-16.39404296875,31.5185546875,43.4326171875
5.101,-0.0069580078125,0.2056884765625,0.1663818359375,-175.59814453125,-274.2919921875,-26.67236328125,-16.39404296875,31.5185546875,43.4326171875
5.105,-0.0069580078125,0.2056884765625,0.1663818359375,-175.59814453125,-274.2919921875,-26.67236328125,-16.39404296875,31.5185546875,43.4326171875
5.127,-0.0069580078125,0.2056884765625,0.1663818359375,-175.59814453125,-274.2919921875,-26.67236328125,2.38037109375,29.98046875,45.1171875
5.128,-0.039306640625,0.1126708984375,0.08349609375,155.33447265625,-401.0009765625,-102.96630859375,2.38037109375,29.98046875,45.1171875
5.172,0.0408935546875,-0.10546875,0.143798828125,155.33447265625,-401.0009765625,-102.96630859375,2.38037109375,29.98046875,45.1171875
5.173,0.0408935546875,-0.10546875,0.143798828125,161.2548828125,-406.06689453125,-70.9228515625,21.6796875,25.390625,36.4013671875
5.183,0.0408935546875,-0.10546875,0.143798828125,161.2548828125,-406.06689453125,-70.9228515625,21.6796875,25.390625,36.4013671875
5.21,0.0408935546875,-0.10546875,0.143798828125,161.2548828125,-406.06689453125,-70.9228515625,21.6796875,25.390625,36.4013671875
5.217,-0.3399658203125,-0.0030517578125,1.1241455078125,159.5458984375,-391.7236328125,-63.41552734375,21.6796875,25.390625,36.4013671875
5.218,-0.3399658203125,-0.0030517578125,1.1241455078125,159.5458984375,-391.7236328125,-63.41552734375,36.68212890625,24.64599609375,20.8251953125
5.289,-0.3399658203125,-0.0030517578125,1.1241455078125,159.5458984375,-391.7236328125,-63.41552734375,36.68212890625,24.64599609375,20.8251953125
5.295,-0.3399658203125,-0.0030517578125,1.1241455078125,159.5458984375,-391.7236328125,-63.41552734375,36.68212890625,24.64599609375,20.8251953125
5.307,-0.0126953125,-0.015869140625,0.052978515625,159.5458984375,-391.7236328125,-63.41552734375,36.68212890625,24.64599609375,20.8251953125
5.308,-0.0126953125,-0.015869140625,0.052978515625,129.45556640625,-392.51708984375,-47.05810546875,43.7255859375,26.806640625,1.4404296875
5.309,-0.021484375,-0.007568359375,0.0545654296875,129.45556640625,-392.51708984375,-47.05810546875,43.7255859375,26.806640625,1.4404296875
5.352,-0.021484375,-0.007568359375,0.0545654296875,122.61962890625,-379.82177734375,-52.24609375,43.7255859375,26.806640625,1.4404296875
5.353,-0.143310546875,-0.009765625,0.0103759765625,122.61962890625,-379.82177734375,-52.24609375,34.912109375,37.8173828125,-36.90185546875
5.36,-0.143310546875,-0.009765625,0.0103759765625,122.61962890625,-379.82177734375,-52.24609375,34.912109375,37.8173828125,-36.90185546875
5.398,-0.143310546875,-0.009765625,0.0103759765625,96.435546875,-386.8408203125,-50.96435546875,19.287109375,45.56884765625,-52.42919921875
5.399,-0.6964111328125,-0.00048828125,-0.4249267578125,96.435546875,-386.8408203125,-50.96435546875,19.287109375,45.56884765625,-52.42919921875
5.403,-0.6964111328125,-0.00048828125,-0.4249267578125,96.435546875,-386.8408203125,-50.96435546875,19.287109375,45.56884765625,-52.42919921875
5.442,-0.6964111328125,-0.00048828125,-0.4249267578125,84.41162109375,-381.4697265625,-59.326171875,19.287109375,45.56884765625,-52.42919921875
5.443,-1.026123046875,0.2218017578125,-1.313232421875,84.41162109375,-381.4697265625,-59.326171875,-1.03759765625,53.3935546875,-59.9609375
5.475,-1.026123046875,0.2218017578125,-1.313232421875,84.41162109375,-381.4697265625,-59.326171875,-1.03759765625,53.3935546875,-59.9609375
5.486,-1.026123046875,0.2218017578125,-1.313232421875,83.1298828125,-387.51220703125,-70.37353515625,-1.03759765625,53.3935546875,-59.9609375
5.487,-0.1044921875,0.046875,-0.1783447265625,78.2470703125,-384.82666015625,-80.87158203125,-1.03759765625,53.3935546875,-59.9609375
5.516,-0.1044921875,0.046875,-0.1783447265625,78.2470703125,-384.82666015625,-80.87158203125,-1.03759765625,53.3935546875,-59.9609375
5.531,0.09716796875,0.3505859375,-0.8121337890625,78.2470703125,-384.82666015625,-80.87158203125,-23.96240234375,57.958984375,-60.11962890625
5.532,0.09716796875,0.3505859375,-0.8121337890625,74.951171875,-388.12255859375,-95.88623046875,-23.96240234375,57.958984375,-60.11962890625
5.58,0.3131103515625,0.252685546875,-0.6142578125,74.951171875,-388.12255859375,-95.88623046875,-47.2412109375,60.986328125,-53.79638671875
5.581,0.3131103515625,0.252685546875,-0.6142578125,83.19091796875,-392.578125,-100.830078125,-47.2412109375,60.986328125,-53.79638671875
5.584,0.3131103515625,0.252685546875,-0.6142578125,83.19091796875,-392.578125,-100.830078125,-47.2412109375,60.986328125,-53.79638671875
5.595,0.3131103515625,0.252685546875,-0.6142578125,83.19091796875,-392.578125,-100.830078125,-47.2412109375,60.986328125,-53.79638671875
5.622,0.6094970703125,0.5084228515625,-1.0787353515625,83.740234375,-394.34814453125,-109.06982421875,-67.333984375,60.72998046875,-39.29443359375
5.664,0.6094970703125,0.5084228515625,-1.0787353515625,83.740234375,-394.34814453125,-109.06982421875,-67.333984375,60.72998046875,-39.29443359375
5.667,0.4368896484375,0.1966552734375,-0.269775390625,83.740234375,-394.34814453125,-109.06982421875,-67.333984375,60.72998046875,-39.29443359375
5.704,0.4368896484375,0.1966552734375,-0.269775390625,83.740234375,-394.34814453125,-109.06982421875,-67.333984375,60.72998046875,-39.29443359375
5.712,0.4368896484375,0.1966552734375,-0.269775390625,97.2900390625,-418.76220703125,-112.060546875,-81.396484375,56.2255859375,-18.8232421875
5.713,0.9951171875,0.349609375,-0.3629150390625,92.8955078125,-396.42333984375,-112.60986328125,-81.396484375,56.2255859375,-18.8232421875
5.757,0.8505859375,0.068603515625,0.2972412109375,97.96142578125,-399.0478515625,-104.736328125,-85.02197265625,48.583984375,6.65283203125
5.778,0.8505859375,0.068603515625,0.2972412109375,97.96142578125,-399.0478515625,-104.736328125,-85.02197265625,48.583984375,6.65283203125
5.809,0.8505859375,0.068603515625,0.2972412109375,97.96142578125,-399.0478515625,-104.736328125,-85.02197265625,48.583984375,6.65283203125
5.89,0.8505859375,0.068603515625,0.2972412109375,97.96142578125,-399.0478515625,-104.736328125,-85.02197265625,48.583984375,6.65283203125
5.892,0.8505859375,0.068603515625,0.2972412109375,97.96142578125,-399.0478515625,-104.736328125,-76.66015625,38.31787109375,30.95703125
5.893,1.1044921875,2.3677978515625,1.649658203125,85.205078125,-380.31005859375,-111.63330078125,-59.19189453125,28.515625,48.486328125
5.895,1.1044921875,2.3677978515625,1.649658203125,85.205078125,-380.31005859375,-111.63330078125,-59.19189453125,28.515625,48.486328125
5.945,0.0709228515625,-0.2503662109375,0.0020751953125,85.205078125,-380.31005859375,-111.63330078125,-59.19189453125,28.515625,48.486328125
5.946,0.0709228515625,-0.2503662109375,0.0020751953125,547.7294921875,-228.69873046875,-161.07177734375,-23.291015625,40.8203125,72.44873046875
5.981,0.225341796875,-0.3875732421875,0.08349609375,470.3369140625,-212.58544921875,-156.6162109375,-23.291015625,40.8203125,72.44873046875
5.982,0.225341796875,-0.3875732421875,0.08349609375,470.3369140625,-212.58544921875,-156.6162109375,-4.87060546875,11.87744140625,70.91064453125
6.003,0.225341796875,-0.3875732421875,0.08349609375,470.3369140625,-212.58544921875,-156.6162109375,-4.87060546875,11.87744140625,70.91064453125
6.008,0.225341796875,-0.3875732421875,0.08349609375,470.3369140625,-212.58544921875,-156.6162109375,-4.87060546875,11.87744140625,70.91064453125
6.027,0.1502685546875,-0.1737060546875,0.14892578125,450.0732421875,-222.71728515625,-158.5693359375,-4.87060546875,11.87744140625,70.91064453125
6.028,0.1502685546875,-0.1737060546875,0.14892578125,450.0732421875,-222.71728515625,-158.5693359375,16.58935546875,-15.00244140625,53.69873046875
6.072,-1.3936767578125,-2.59033203125,1.6397705078125,443.29833984375,-230.52978515625,-132.50732421875,16.58935546875,-15.00244140625,53.69873046875
6.073,-1.3936767578125,-2.59033203125,1.6397705078125,443.29833984375,-230.52978515625,-132.50732421875,32.28759765625,-25.91552734375,19.76318359375
6.109,-1.3936767578125,-2.59033203125,1.6397705078125,443.29833984375,-230.52978515625,-132.50732421875,32.28759765625,-25.91552734375,19.76318359375
6.117,-0.042724609375,-0.0615234375,0.0621337890625,443.29833984375,-230.52978515625,-132.50732421875,32.28759765625,-25.91552734375,19.76318359375
6.118,-0.042724609375,-0.0615234375,0.0621337890625,428.03955078125,-237.1826171875,-134.1552734375,32.28759765625,-25.91552734375,19.76318359375
6.119,-0.042724609375,-0.0615234375,0.0621337890625,428.03955078125,-237.1826171875,-134.1552734375,40.3564453125,-19.8486328125,-17.5537109375
6.162,-0.397216796875,-0.3751220703125,-0.165771484375,412.109375,-238.70849609375,-139.22119140625,37.46337890625,2.18505859375,-47.05810546875
6.186,-0.397216796875,-0.3751220703125,-0.165771484375,412.109375,-238.70849609375,-139.22119140625,37.46337890625,2.18505859375,-47.05810546875
6.195,-0.397216796875,-0.3751220703125,-0.165771484375,412.109375,-238.70849609375,-139.22119140625,37.46337890625,2.18505859375,-47.05810546875
6.207,-0.249267578125,-0.1845703125,-0.2412109375,393.98193359375,-239.2578125,-151.3671875,37.46337890625,2.18505859375,-47.05810546875
6.208,-0.249267578125,-0.1845703125,-0.2412109375,393.98193359375,-239.2578125,-151.3671875,24.6337890625,31.16455078125,-65.966796875
6.252,-0.0794677734375,0.0108642578125,-0.015869140625,396.3623046875,-245.361328125,-159.912109375,24.6337890625,31.16455078125,-65.966796875
6.253,-0.0794677734375,0.0108642578125,-0.015869140625,396.3623046875,-245.361328125,-159.912109375,4.77294921875,62.56103515625,-69.39697265625
6.303,-0.0794677734375,0.0108642578125,-0.015869140625,396.3623046875,-245.361328125,-159.912109375,4.77294921875,62.56103515625,-69.39697265625
6.339,-0.0794677734375,0.0108642578125,-0.015869140625,396.3623046875,-245.361328125,-159.912109375,4.77294921875,62.56103515625,-69.39697265625
6.342,-0.38916015625,1.1185302734375,-1.993896484375,396.3623046875,-245.361328125,-159.912109375,4.77294921875,62.56103515625,-69.39697265625
6.372,-0.38916015625,1.1185302734375,-1.993896484375,396.3623046875,-245.361328125,-159.912109375,4.77294921875,62.56103515625,-69.39697265625
6.387,-0.38916015625,1.1185302734375,-1.993896484375,398.86474609375,-240.234375,-174.49951171875,4.77294921875,62.56103515625,-69.39697265625
6.388,0.0257568359375,0.01611328125,0.0479736328125,398.86474609375,-240.234375,-174.49951171875,4.77294921875,62.56103515625,-69.39697265625
6.388,0.0172119140625,0.01513671875,0.0628662109375,398.86474609375,-240.234375,-174.49951171875,4.77294921875,62.56103515625,-69.39697265625
6.415,0.0172119140625,0.01513671875,0.0628662109375,398.86474609375,-240.234375,-174.49951171875,4.77294921875,62.56103515625,-69.39697265625
6.432,0.0172119140625,0.01513671875,0.0628662109375,413.9404296875,-240.41748046875,-186.279296875,-59.9365234375,101.5625,12.90283203125
6.433,0.04150390625,0.060302734375,0.115966796875,413.9404296875,-240.41748046875,-186.279296875,-59.9365234375,101.5625,12.90283203125
6.477,0.04150390625,0.060302734375,0.115966796875,406.25,-229.248046875,-175.96435546875,-59.9365234375,101.5625,12.90283203125
6.478,0.8863525390625,0.279052734375,1.7293701171875,406.25,-229.248046875,-175.96435546875,-61.77978515625,80.40771484375,48.828125
6.522,0.8863525390625,0.279052734375,1.7293701171875,392.39501953125,-223.14453125,-174.74365234375,-50.72021484375,49.86572265625,73.6572265625
6.523,0.0662841796875,-0.0177001953125,0.1800537109375,392.39501953125,-223.14453125,-174.74365234375,-50.72021484375,49.86572265625,73.6572265625
6.528,0.0662841796875,-0.0177001953125,0.1800537109375,392.39501953125,-223.14453125,-174.74365234375,-50.72021484375,49.86572265625,73.6572265625
6.531,0.0662841796875,-0.0177001953125,0.1800537109375,392.39501953125,-223.14453125,-174.74365234375,-50.72021484375,49.86572265625,73.6572265625
6.567,0.0662841796875,-0.0177001953125,0.1800537109375,373.9013671875,-219.17724609375,-168.51806640625,-31.7138671875,16.3818359375,80.4443359375
6.568,0.072021484375,-0.607666015625,1.0452880859375,373.9013671875,-219.17724609375,-168.51806640625,-31.7138671875,16.3818359375,80.4443359375
6.591,0.072021484375,-0.607666015625,1.0452880859375,373.9013671875,-219.17724609375,-168.51806640625,-31.7138671875,16.3818359375,80.4443359375
6.605,0.072021484375,-0.607666015625,1.0452880859375,373.9013671875,-219.17724609375,-168.51806640625,-31.7138671875,16.3818359375,80.4443359375
6.611,0.072021484375,-0.607666015625,1.0452880859375,372.1923828125,-219.8486328125,-173.03466796875,-31.7138671875,16.3818359375,80.4443359375
6.612,-0.38623046875,-1.2567138671875,0.984130859375,372.1923828125,-219.8486328125,-173.03466796875,-8.7646484375,-11.58447265625,71.98486328125
6.658,-0.38623046875,-1.2567138671875,0.984130859375,378.0517578125,-213.2568359375,-171.20361328125,-8.7646484375,-11.58447265625,71.98486328125
6.659,-0.2967529296875,-0.6849365234375,0.26806640625,377.25830078125,-213.2568359375,-169.0673828125,-8.7646484375,-11.58447265625,71.98486328125
6.702,-0.3726806640625,-0.7833251953125,0.2261962890625,377.25830078125,-213.2568359375,-169.0673828125,-8.7646484375,-11.58447265625,71.98486328125
6.703,-0.3726806640625,-0.7833251953125,0.2261962890625,377.25830078125,-213.2568359375,-169.0673828125,-8.7646484375,-11.58447265625,71.98486328125
6.746,-0.3726806640625,-0.7833251953125,0.2261962890625,377.25830078125,-213.2568359375,-169.0673828125,-8.7646484375,-11.58447265625,71.98486328125
6.747,-0.3726806640625,-0.7833251953125,0.2261962890625,373.35205078125,-212.40234375,-163.330078125,-8.7646484375,-11.58447265625,71.98486328125
6.748,-0.596435546875,-0.833251953125,-0.135009765625,373.35205078125,-212.40234375,-163.330078125,13.8427734375,-29.21142578125,50.537109375
6.776,-0.596435546875,-0.833251953125,-0.135009765625,373.35205078125,-212.40234375,-163.330078125,13.8427734375,-29.21142578125,50.537109375
6.792,-0.596435546875,-0.833251953125,-0.135009765625,366.27197265625,-212.21923828125,-158.14208984375,13.8427734375,-29.21142578125,50.537109375
6.793,0.052734375,0.4765625,-2.7911376953125,366.27197265625,-212.21923828125,-158.14208984375,40.8935546875,-25.5126953125,-11.572265625
6.837,0.052734375,0.4765625,-2.7911376953125,156.005859375,-12.51220703125,-168.76220703125,40.8935546875,-25.5126953125,-11.572265625
6.838,-1.0950927734375,-0.15966796875,-0.0107421875,156.005859375,-12.51220703125,-168.76220703125,51.0986328125,-9.66796875,-22.13134765625
6.855,-1.0950927734375,-0.15966796875,-0.0107421875,156.005859375,-12.51220703125,-168.76220703125,51.0986328125,-9.66796875,-22.13134765625
6.881,-1.0950927734375,-0.15966796875,-0.0107421875,260.25390625,170.7763671875,-302.30712890625,51.0986328125,-9.66796875,-22.13134765625
6.882,0.1065673828125,-0.015625,-0.0574951171875,260.25390625,170.7763671875,-302.30712890625,59.1064453125,12.3779296875,-18.27392578125
6.903,0.1065673828125,-0.015625,-0.0574951171875,260.25390625,170.7763671875,-302.30712890625,59.1064453125,12.3779296875,-18.27392578125
6.927,0.1065673828125,-0.015625,-0.0574951171875,263.427734375,167.96875,-296.9970703125,59.1064453125,12.3779296875,-18.27392578125
6.928,0.0579833984375,0.00439453125,-0.0350341796875,263.427734375,167.96875,-296.9970703125,60.63232421875,32.31201171875,-10.41259765625
6.941,0.0579833984375,0.00439453125,-0.0350341796875,263.427734375,167.96875,-296.9970703125,60.63232421875,32.31201171875,-10.41259765625
6.974,0.0579833984375,0.00439453125,-0.0350341796875,263.427734375,167.96875,-296.9970703125,60.63232421875,32.31201171875,-10.41259765625
6.994,0.0579833984375,0.00439453125,-0.0350341796875,297.30224609375,208.0078125,-301.20849609375,55.4931640625,49.69482421875,3.23486328125
6.995,0.01904296875,0.0343017578125,0.0673828125,297.30224609375,208.0078125,-301.20849609375,55.4931640625,49.69482421875,3.23486328125
7.016,0.01904296875,0.0343017578125,0.0673828125,297.30224609375,208.0078125,-301.20849609375,55.4931640625,49.69482421875,3.23486328125
7.062,0.01904296875,0.0343017578125,0.0673828125,297.66845703125,210.14404296875,-310.791015625,55.4931640625,49.69482421875,3.23486328125
7.082,0.01904296875,0.0343017578125,0.0673828125,297.66845703125,210.14404296875,-310.791015625,55.4931640625,49.69482421875,3.23486328125
7.155,0.01904296875,0.0343017578125,0.0673828125,297.66845703125,210.14404296875,-310.791015625,55.4931640625,49.69482421875,3.23486328125
7.198,0.0623779296875,0.1156005859375,0.098876953125,298.15673828125,209.65576171875,-324.76806640625,43.1884765625,58.0322265625,19.73876953125
7.199,0.6741943359375,1.9522705078125,1.860107421875,298.15673828125,209.65576171875,-324.76806640625,43.1884765625,58.0322265625,19.73876953125
7.207,0.6741943359375,1.9522705078125,1.860107421875,298.15673828125,209.65576171875,-324.76806640625,43.1884765625,58.0322265625,19.73876953125
7.267,0.6741943359375,1.9522705078125,1.860107421875,298.15673828125,209.65576171875,-324.76806640625,43.1884765625,58.0322265625,19.73876953125
7.287,0.6741943359375,1.9522705078125,1.860107421875,293.45703125,215.02685546875,-331.54296875,43.1884765625,58.0322265625,19.73876953125
7.288,0.8818359375,-0.7786865234375,0.034912109375,269.53125,216.61376953125,-323.3642578125,-9.3994140625,23.96240234375,47.216796875
7.312,0.8818359375,-0.7786865234375,0.034912109375,269.53125,216.61376953125,-323.3642578125,-9.3994140625,23.96240234375,47.216796875
7.332,0.1807861328125,-0.32958984375,-0.113037109375,269.53125,216.61376953125,-323.3642578125,-10.3271484375,12.21923828125,38.46435546875
7.333,0.1807861328125,-0.32958984375,-0.113037109375,276.611328125,236.99951171875,-316.10107421875,-10.3271484375,12.21923828125,38.46435546875
7.376,0.1807861328125,-0.32958984375,-0.113037109375,276.611328125,236.99951171875,-316.10107421875,-4.296875,3.90625,29.47998046875
7.377,-0.1942138671875,-1.0928955078125,-1.0606689453125,263.97705078125,232.48291015625,-301.6357421875,-4.296875,3.90625,29.47998046875
7.389,-0.1942138671875,-1.0928955078125,-1.0606689453125,263.97705078125,232.48291015625,-301.6357421875,-4.296875,3.90625,29.47998046875
7.395,-0.1942138671875,-1.0928955078125,-1.0606689453125,263.97705078125,232.48291015625,-301.6357421875,-4.296875,3.90625,29.47998046875
7.421,-0.1942138671875,-1.0928955078125,-1.0606689453125,263.97705078125,232.48291015625,-301.6357421875,2.86865234375,1.46484375,20.703125
7.422,-0.617919921875,-0.535400390625,-0.945068359375,255.4931640625,226.62353515625,-285.15625,2.86865234375,1.46484375,20.703125
7.456,-0.617919921875,-0.535400390625,-0.945068359375,255.4931640625,226.62353515625,-285.15625,2.86865234375,1.46484375,20.703125
7.466,-0.617919921875,-0.535400390625,-0.945068359375,255.4931640625,226.62353515625,-285.15625,11.474609375,3.69873046875,14.73388671875
7.503,-0.617919921875,-0.535400390625,-0.945068359375,255.4931640625,226.62353515625,-285.15625,11.474609375,3.69873046875,14.73388671875
7.512,-0.4359130859375,-0.1383056640625,-0.5091552734375,255.4931640625,226.62353515625,-285.15625,11.474609375,3.69873046875,14.73388671875
7.513,-0.4359130859375,-0.1383056640625,-0.5091552734375,253.23486328125,226.50146484375,-279.72412109375,11.474609375,3.69873046875,14.73388671875
7.514,-0.3687744140625,-0.0748291015625,-0.391845703125,255.06591796875,223.44970703125,-276.4892578125,11.474609375,3.69873046875,14.73388671875
7.556,-0.3687744140625,-0.0748291015625,-0.391845703125,255.06591796875,223.44970703125,-276.4892578125,18.10302734375,9.09423828125,11.70654296875
7.557,-0.614501953125,0.396728515625,-0.214111328125,257.568359375,223.5107421875,-279.84619140625,18.10302734375,9.09423828125,11.70654296875
7.568,-0.614501953125,0.396728515625,-0.214111328125,257.568359375,223.5107421875,-279.84619140625,18.10302734375,9.09423828125,11.70654296875
7.602,-0.8494873046875,1.0350341796875,0.1451416015625,259.27734375,225.52490234375,-289.36767578125,21.97265625,15.4541015625,12.21923828125
7.642,-0.8494873046875,1.0350341796875,0.1451416015625,259.27734375,225.52490234375,-289.36767578125,21.97265625,15.4541015625,12.21923828125
7.647,-0.8494873046875,1.0350341796875,0.1451416015625,259.27734375,225.52490234375,-289.36767578125,24.10888671875,21.30126953125,14.39208984375
7.648,-0.2413330078125,0.559814453125,0.27294921875,258.1787109375,225.9521484375,-289.1845703125,24.10888671875,21.30126953125,14.39208984375
7.687,-0.2413330078125,0.559814453125,0.27294921875,258.1787109375,225.9521484375,-289.1845703125,24.10888671875,21.30126953125,14.39208984375
7.692,-0.2413330078125,0.559814453125,0.27294921875,258.1787109375,225.9521484375,-289.1845703125,22.607421875,25.5126953125,18.00537109375
7.693,0.1666259765625,0.6439208984375,0.47802734375,257.14111328125,238.037109375,-304.19921875,22.607421875,25.5126953125,18.00537109375
7.695,0.1666259765625,0.6439208984375,0.47802734375,257.14111328125,238.037109375,-304.19921875,22.607421875,25.5126953125,18.00537109375
7.737,0.1666259765625,0.6439208984375,0.47802734375,257.14111328125,238.037109375,-304.19921875,20.08056640625,28.076171875,22.1923828125
7.738,0.1064453125,0.14306640625,1.3519287109375,75.50048828125,-41.44287109375,-365.53955078125,20.08056640625,28.076171875,22.1923828125
7.755,0.1064453125,0.14306640625,1.3519287109375,75.50048828125,-41.44287109375,-365.53955078125,20.08056640625,28.076171875,22.1923828125
7.782,-0.4801025390625,0.44287109375,0.8486328125,186.70654296875,-450.927734375,-196.4111328125,17.7734375,37.31689453125,21.142578125
7.799,-0.4801025390625,0.44287109375,0.8486328125,186.70654296875,-450.927734375,-196.4111328125,17.7734375,37.31689453125,21.142578125
7.827,-0.4801025390625,0.44287109375,0.8486328125,186.70654296875,-450.927734375,-196.4111328125,19.873046875,43.06640625,13.65966796875
7.828,-0.5579833984375,0.69970703125,3.1531982421875,138.73291015625,-810.4248046875,-37.353515625,19.873046875,43.06640625,13.65966796875
7.868,-0.5579833984375,0.69970703125,3.1531982421875,138.73291015625,-810.4248046875,-37.353515625,19.873046875,43.06640625,13.65966796875
7.872,0.5472412109375,0.5455322265625,1.603515625,150.390625,-751.28173828125,-32.71484375,19.873046875,43.06640625,13.65966796875
7.873,0.5472412109375,0.5455322265625,1.603515625,150.390625,-751.28173828125,-32.71484375,20.61767578125,45.32470703125,-4.4921875
7.916,0.5472412109375,0.5455322265625,1.603515625,150.390625,-751.28173828125,-32.71484375,20.61767578125,45.32470703125,-4.4921875
7.917,0.083740234375,0.001708984375,0.0965576171875,109.86328125,-773.98681640625,-47.36328125,9.14306640625,48.6328125,-17.236328125
7.962,-2.1612548828125,0.612060546875,0.1334228515625,90.9423828125,-764.58740234375,-56.5185546875,9.14306640625,48.6328125,-17.236328125
7.963,-2.1612548828125,0.612060546875,0.1334228515625,90.9423828125,-764.58740234375,-56.5185546875,-8.59375,52.47802734375,-21.08154296875
7.985,-2.1612548828125,0.612060546875,0.1334228515625,90.9423828125,-764.58740234375,-56.5185546875,-8.59375,52.47802734375,-21.08154296875
7.994,-2.1612548828125,0.612060546875,0.1334228515625,90.9423828125,-764.58740234375,-56.5185546875,-8.59375,52.47802734375,-21.08154296875
8.051,-0.82861328125,0.512939453125,-0.8524169921875,90.9423828125,-764.58740234375,-56.5185546875,-8.59375,52.47802734375,-21.08154296875
8.052,-0.82861328125,0.512939453125,-0.8524169921875,72.08251953125,-746.7041015625,-81.9091796875,-23.05908203125,53.60107421875,-11.99951171875
8.053,0.0850830078125,0.1256103515625,-0.082275390625,72.08251953125,-746.7041015625,-81.9091796875,-23.05908203125,53.60107421875,-11.99951171875
8.055,0.0850830078125,0.1256103515625,-0.082275390625,72.08251953125,-746.7041015625,-81.9091796875,-23.05908203125,53.60107421875,-11.99951171875
8.103,0.0850830078125,0.1256103515625,-0.082275390625,72.08251953125,-746.7041015625,-81.9091796875,-23.05908203125,53.60107421875,-11.99951171875
8.142,0.0850830078125,0.1256103515625,-0.082275390625,95.21484375,-765.9912109375,-111.51123046875,-23.05908203125,53.60107421875,-11.99951171875
8.143,0.0850830078125,0.1256103515625,-0.082275390625,95.21484375,-765.9912109375,-111.51123046875,-23.2177734375,49.84130859375,16.4306640625
8.144,0.4371337890625,0.147705078125,0.2127685546875,102.60009765625,-745.42236328125,-118.83544921875,-23.2177734375,49.84130859375,16.4306640625
8.187,0.1309814453125,-0.0645751953125,0.23828125,147.15576171875,-745.30029296875,-113.95263671875,-8.85009765625,46.61865234375,22.13134765625
8.209,0.1309814453125,-0.0645751953125,0.23828125,147.15576171875,-745.30029296875,-113.95263671875,-8.85009765625,46.61865234375,22.13134765625
8.22,0.1309814453125,-0.0645751953125,0.23828125,147.15576171875,-745.30029296875,-113.95263671875,-8.85009765625,46.61865234375,22.13134765625
8.232,-0.374755859375,0.0960693359375,2.1324462890625,146.3623046875,-743.7744140625,-114.990234375,5.40771484375,43.310546875,19.6044921875
8.277,0.039794921875,0.009765625,0.182373046875,137.939453125,-694.88525390625,-99.9755859375,13.330078125,43.59130859375,7.26318359375
8.28,0.039794921875,0.009765625,0.182373046875,137.939453125,-694.88525390625,-99.9755859375,13.330078125,43.59130859375,7.26318359375
8.294,0.039794921875,0.009765625,0.182373046875,137.939453125,-694.88525390625,-99.9755859375,13.330078125,43.59130859375,7.26318359375
8.322,0.039794921875,0.009765625,0.182373046875,127.99072265625,-682.06787109375,-97.7783203125,12.8662109375,44.9951171875,-6.01806640625
8.323,-1.1649169921875,-0.0396728515625,0.36767578125,127.99072265625,-682.06787109375,-97.7783203125,12.8662109375,44.9951171875,-6.01806640625
8.367,-1.248291015625,0.1207275390625,-0.62646484375,107.11669921875,-674.98779296875,-89.111328125,2.83203125,47.49755859375,-15.34423828125
8.37,-1.248291015625,0.1207275390625,-0.62646484375,107.11669921875,-674.98779296875,-89.111328125,2.83203125,47.49755859375,-15.34423828125
8.404,-1.248291015625,0.1207275390625,-0.62646484375,107.11669921875,-674.98779296875,-89.111328125,2.83203125,47.49755859375,-15.34423828125
8.412,-1.248291015625,0.1207275390625,-0.62646484375,104.30908203125,-670.95947265625,-93.20068359375,-10.33935546875,49.03564453125,-15.6005859375
8.413,-0.0341796875,0.0706787109375,-0.203857421875,104.30908203125,-670.95947265625,-93.20068359375,-10.33935546875,49.03564453125,-15.6005859375
8.457,-0.0341796875,0.0706787109375,-0.203857421875,94.7265625,-666.748046875,-108.94775390625,-10.33935546875,49.03564453125,-15.6005859375
8.458,0.3223876953125,0.269775390625,-0.76708984375,94.7265625,-666.748046875,-108.94775390625,-21.59423828125,49.01123046875,-7.48291015625
8.478,0.3223876953125,0.269775390625,-0.76708984375,94.7265625,-666.748046875,-108.94775390625,-21.59423828125,49.01123046875,-7.48291015625
8.512,0.3223876953125,0.269775390625,-0.76708984375,94.7265625,-666.748046875,-108.94775390625,-21.59423828125,49.01123046875,-7.48291015625
8.547,0.3223876953125,0.269775390625,-0.76708984375,94.23828125,-679.74853515625,-125.79345703125,-25.69580078125,47.265625,6.60400390625
8.548,0.9937744140625,0.375732421875,-0.540283203125,105.3466796875,-703.43017578125,-138.7939453125,-25.69580078125,47.265625,6.60400390625
8.591,1.0948486328125,0.1832275390625,-0.0194091796875,105.3466796875,-703.43017578125,-138.7939453125,-25.69580078125,47.265625,6.60400390625
8.592,1.0948486328125,0.1832275390625,-0.0194091796875,119.5068359375,-710.51025390625,-134.8876953125,-19.03076171875,43.88427734375,17.1142578125
8.594,1.0948486328125,0.1832275390625,-0.0194091796875,119.5068359375,-710.51025390625,-134.8876953125,-19.03076171875,43.88427734375,17.1142578125
8.664,1.0948486328125,0.1832275390625,-0.0194091796875,119.5068359375,-710.51025390625,-134.8876953125,-19.03076171875,43.88427734375,17.1142578125
8.682,0.8140869140625,0.03466796875,0.2574462890625,113.95263671875,-672.05810546875,-139.70947265625,-5.6640625,41.73583984375,21.826171875
8.684,0.3148193359375,-0.0130615234375,0.4410400390625,113.95263671875,-672.05810546875,-139.70947265625,-5.6640625,41.73583984375,21.826171875
8.699,0.3148193359375,-0.0130615234375,0.4410400390625,113.95263671875,-672.05810546875,-139.70947265625,-5.6640625,41.73583984375,21.826171875
8.727,-0.58740234375,-0.2181396484375,0.6943359375,106.14013671875,-649.2919921875,-127.3193359375,16.0400390625,40.39306640625,4.69970703125
8.771,-0.58740234375,-0.2181396484375,0.6943359375,104.248046875,-627.13623046875,-127.62451171875,16.0400390625,40.39306640625,4.69970703125
8.772,-0.0426025390625,-0.0430908203125,0.1533203125,104.248046875,-627.13623046875,-127.62451171875,14.12353515625,42.529296875,-8.5205078125
8.781,-0.0426025390625,-0.0430908203125,0.1533203125,104.248046875,-627.13623046875,-127.62451171875,14.12353515625,42.529296875,-8.5205078125
8.809,-0.0426025390625,-0.0430908203125,0.1533203125,104.248046875,-627.13623046875,-127.62451171875,14.12353515625,42.529296875,-8.5205078125
8.816,-0.0426025390625,-0.0430908203125,0.1533203125,97.900390625,-626.708984375,-118.46923828125,14.12353515625,42.529296875,-8.5205078125
8.817,-1.4381103515625,-0.04833984375,-0.5714111328125,97.900390625,-626.708984375,-118.46923828125,3.6865234375,45.5322265625,-19.43359375
8.862,-1.4381103515625,-0.04833984375,-0.5714111328125,91.9189453125,-628.662109375,-121.337890625,-12.87841796875,46.826171875,-22.37548828125
8.863,-0.431640625,0.1317138671875,-0.922119140625,91.9189453125,-628.662109375,-121.337890625,-12.87841796875,46.826171875,-22.37548828125
8.891,-0.431640625,0.1317138671875,-0.922119140625,91.9189453125,-628.662109375,-121.337890625,-12.87841796875,46.826171875,-22.37548828125
8.895,-0.431640625,0.1317138671875,-0.922119140625,91.9189453125,-628.662109375,-121.337890625,-12.87841796875,46.826171875,-22.37548828125
8.907,-0.431640625,0.1317138671875,-0.922119140625,88.5009765625,-627.62451171875,-125.732421875,-12.87841796875,46.826171875,-22.37548828125
8.908,0.148681640625,0.12109375,-0.3443603515625,84.77783203125,-637.02392578125,-134.70458984375,-12.87841796875,46.826171875,-22.37548828125
8.97,0.148681640625,0.12109375,-0.3443603515625,84.77783203125,-637.02392578125,-134.70458984375,-12.87841796875,46.826171875,-22.37548828125
8.999,0.148681640625,0.12109375,-0.3443603515625,84.77783203125,-637.02392578125,-134.70458984375,-12.87841796875,46.826171875,-22.37548828125
9.08,0.148681640625,0.12109375,-0.3443603515625,84.77783203125,-637.02392578125,-134.70458984375,-12.87841796875,46.826171875,-22.37548828125
9.092,0.9007568359375,0.2899169921875,-0.61767578125,84.77783203125,-637.02392578125,-134.70458984375,-28.86962890625,46.10595703125,-16.11328125
9.093,0.9007568359375,0.2899169921875,-0.61767578125,90.576171875,-656.3720703125,-143.61572265625,-38.37890625,42.24853515625,-1.91650390625
9.109,0.9007568359375,0.2899169921875,-0.61767578125,90.576171875,-656.3720703125,-143.61572265625,-38.37890625,42.24853515625,-1.91650390625
9.191,0.9007568359375,0.2899169921875,-0.61767578125,90.576171875,-656.3720703125,-143.61572265625,-38.37890625,42.24853515625,-1.91650390625
9.193,0.9007568359375,0.2899169921875,-0.61767578125,90.576171875,-656.3720703125,-143.61572265625,-38.37890625,42.24853515625,-1.91650390625
9.222,0.7147216796875,0.0980224609375,0.04833984375,90.576171875,-656.3720703125,-143.61572265625,-38.37890625,42.24853515625,-1.91650390625
9.223,0.7147216796875,0.0980224609375,0.04833984375,86.97509765625,-634.3994140625,-137.26806640625,-3.1982421875,23.44970703125,27.4658203125
9.224,0.1385498046875,-0.033447265625,0.4913330078125,86.97509765625,-634.3994140625,-137.26806640625,-3.1982421875,23.44970703125,27.4658203125
9.264,0.1385498046875,-0.033447265625,0.4913330078125,86.97509765625,-634.3994140625,-137.26806640625,-3.1982421875,23.44970703125,27.4658203125
9.267,-1.3541259765625,1.28564453125,-0.6865234375,59.08203125,-622.74169921875,-158.50830078125,14.6728515625,38.76953125,-8.23974609375
9.297,-1.3541259765625,1.28564453125,-0.6865234375,59.08203125,-622.74169921875,-158.50830078125,14.6728515625,38.76953125,-8.23974609375
9.312,-1.01123046875,-0.230712890625,-1.0679931640625,-145.3857421875,-470.0927734375,-215.9423828125,14.6728515625,38.76953125,-8.23974609375
9.313,-1.01123046875,-0.230712890625,-1.0679931640625,-46.81396484375,-433.2275390625,-119.81201171875,14.6728515625,38.76953125,-8.23974609375
9.357,-1.01123046875,-0.230712890625,-1.0679931640625,-46.81396484375,-433.2275390625,-119.81201171875,5.4443359375,39.88037109375,-16.24755859375
9.358,-0.1568603515625,0.395751953125,-0.4716796875,9.27734375,-370.78857421875,-215.51513671875,5.4443359375,39.88037109375,-16.24755859375
9.378,-0.1568603515625,0.395751953125,-0.4716796875,9.27734375,-370.78857421875,-215.51513671875,5.4443359375,39.88037109375,-16.24755859375
9.402,-0.16748046875,-0.08642578125,0.1337890625,24.23095703125,-371.39892578125,-228.759765625,-3.857421875,40.41748046875,-17.9931640625
9.415,-0.16748046875,-0.08642578125,0.1337890625,24.23095703125,-371.39892578125,-228.759765625,-3.857421875,40.41748046875,-17.9931640625
9.446,-0.0423583984375,1.2034912109375,-1.5562744140625,24.23095703125,-371.39892578125,-228.759765625,-3.857421875,40.41748046875,-17.9931640625
9.447,-0.0423583984375,1.2034912109375,-1.5562744140625,22.15576171875,-361.083984375,-230.52978515625,-12.21923828125,40.72265625,-17.10205078125
9.481,-0.0423583984375,1.2034912109375,-1.5562744140625,22.15576171875,-361.083984375,-230.52978515625,-12.21923828125,40.72265625,-17.10205078125
9.491,0.2291259765625,0.2613525390625,-0.297607421875,22.15576171875,-361.083984375,-230.52978515625,-12.21923828125,40.72265625,-17.10205078125
9.492,0.2291259765625,0.2613525390625,-0.297607421875,28.564453125,-359.68017578125,-238.34228515625,-20.49560546875,39.4287109375,-13.61083984375
9.494,0.2291259765625,0.2613525390625,-0.297607421875,28.564453125,-359.68017578125,-238.34228515625,-20.49560546875,39.4287109375,-13.61083984375
9.536,0.6790771484375,0.1221923828125,-0.1484375,151.67236328125,-320.25146484375,-250.3662109375,-20.49560546875,39.4287109375,-13.61083984375
9.537,0.6790771484375,0.1221923828125,-0.1484375,151.67236328125,-320.25146484375,-250.3662109375,-24.8779296875,35.9130859375,-8.31298828125
9.555,0.6790771484375,0.1221923828125,-0.1484375,151.67236328125,-320.25146484375,-250.3662109375,-24.8779296875,35.9130859375,-8.31298828125
9.582,0.9825439453125,0.2427978515625,-0.51123046875,279.23583984375,-289.00146484375,-79.65087890625,-24.8779296875,35.9130859375,-8.31298828125
9.583,0.9825439453125,0.2427978515625,-0.51123046875,279.23583984375,-289.00146484375,-79.65087890625,-26.37939453125,34.27734375,-3.43017578125
9.604,0.9825439453125,0.2427978515625,-0.51123046875,279.23583984375,-289.00146484375,-79.65087890625,-26.37939453125,34.27734375,-3.43017578125
9.627,-0.03271484375,0.1107177734375,1.310546875,221.61865234375,-15.19775390625,-312.1337890625,-25.57373046875,31.45751953125,-2.3193359375
9.672,0.574462890625,0.080322265625,-0.211181640625,221.61865234375,-15.19775390625,-312.1337890625,-25.57373046875,31.45751953125,-2.3193359375
9.673,0.574462890625,0.080322265625,-0.211181640625,221.98486328125,-45.0439453125,-300.23193359375,-22.2900390625,27.001953125,-3.1494140625
9.679,0.574462890625,0.080322265625,-0.211181640625,221.98486328125,-45.0439453125,-300.23193359375,-22.2900390625,27.001953125,-3.1494140625
9.716,1.6229248046875,-0.26171875,0.203125,221.98486328125,-45.0439453125,-300.23193359375,-22.2900390625,27.001953125,-3.1494140625
9.762,1.34716796875,-0.8580322265625,0.448974609375,155.21240234375,-66.10107421875,-295.5322265625,-22.2900390625,27.001953125,-3.1494140625
9.763,0.760498046875,-0.5206298828125,-0.0787353515625,163.39111328125,-38.57421875,-274.96337890625,-22.2900390625,27.001953125,-3.1494140625
9.782,0.760498046875,-0.5206298828125,-0.0787353515625,163.39111328125,-38.57421875,-274.96337890625,-22.2900390625,27.001953125,-3.1494140625
9.793,0.760498046875,-0.5206298828125,-0.0787353515625,163.39111328125,-38.57421875,-274.96337890625,-22.2900390625,27.001953125,-3.1494140625
9.807,0.760498046875,-0.5206298828125,-0.0787353515625,163.39111328125,-38.57421875,-274.96337890625,-19.2626953125,24.20654296875,-5.23681640625
9.808,0.65087890625,-1.484619140625,-0.306640625,167.54150390625,6.2255859375,-274.47509765625,-19.2626953125,24.20654296875,-5.23681640625
9.87,0.65087890625,-1.484619140625,-0.306640625,167.54150390625,6.2255859375,-274.47509765625,-19.2626953125,24.20654296875,-5.23681640625
9.897,0.185302734375,-2.006103515625,-0.5369873046875,167.54150390625,6.2255859375,-274.47509765625,-15.3076171875,23.33984375,-6.89697265625
9.903,0.185302734375,-2.006103515625,-0.5369873046875,167.54150390625,6.2255859375,-274.47509765625,-15.3076171875,23.33984375,-6.89697265625
9.942,0.185302734375,-2.006103515625,-0.5369873046875,162.59765625,6.8359375,-249.6337890625,-10.75439453125,24.49951171875,-10.400390625
9.943,-0.154052734375,-0.37255859375,-0.2244873046875,162.59765625,6.8359375,-249.6337890625,-10.75439453125,24.49951171875,-10.400390625
9.97,-0.154052734375,-0.37255859375,-0.2244873046875,162.59765625,6.8359375,-249.6337890625,-10.75439453125,24.49951171875,-10.400390625
9.987,-0.154052734375,-0.37255859375,-0.2244873046875,160.46142578125,31.06689453125,-219.482421875,-3.28369140625,34.06982421875,-16.3330078125
9.988,-0.6947021484375,-1.0440673828125,-0.9510498046875,160.46142578125,31.06689453125,-219.482421875,-3.28369140625,34.06982421875,-16.3330078125
10.012,-0.6947021484375,-1.0440673828125,-0.9510498046875,160.46142578125,31.06689453125,-219.482421875,-3.28369140625,34.06982421875,-16.3330078125
10.032,-0.4664306640625,-0.39794921875,-0.5361328125,161.07177734375,27.2216796875,-206.11572265625,-2.5634765625,38.6474609375,-17.28515625
10.077,-0.47412109375,-0.2373046875,-0.4923095703125,156.55517578125,27.89306640625,-191.7724609375,-2.5634765625,38.6474609375,-17.28515625
10.078,-0.47412109375,-0.2373046875,-0.4923095703125,156.8603515625,31.1279296875,-184.99755859375,-2.5634765625,38.6474609375,-17.28515625
10.086,-0.47412109375,-0.2373046875,-0.4923095703125,156.8603515625,31.1279296875,-184.99755859375,-2.5634765625,38.6474609375,-17.28515625
10.093,-0.47412109375,-0.2373046875,-0.4923095703125,156.8603515625,31.1279296875,-184.99755859375,-2.5634765625,38.6474609375,-17.28515625
10.137,-0.4349365234375,-0.1905517578125,-0.459716796875,156.55517578125,27.587890625,-178.1005859375,-2.5634765625,38.6474609375,-17.28515625
10.138,-0.4349365234375,-0.1905517578125,-0.459716796875,156.55517578125,27.587890625,-178.1005859375,-3.4912109375,42.28515625,-16.11328125
10.155,-0.4349365234375,-0.1905517578125,-0.459716796875,156.55517578125,27.587890625,-178.1005859375,-3.4912109375,42.28515625,-16.11328125
10.166,-0.790771484375,-0.0804443359375,-0.7742919921875,156.55517578125,27.587890625,-178.1005859375,-3.4912109375,42.28515625,-16.11328125
10.167,-0.790771484375,-0.0804443359375,-0.7742919921875,157.04345703125,24.23095703125,-176.08642578125,-4.1748046875,46.42333984375,-15.9912109375
10.203,-0.790771484375,-0.0804443359375,-0.7742919921875,157.04345703125,24.23095703125,-176.08642578125,-4.1748046875,46.42333984375,-15.9912109375
10.212,-0.7734375,0.129638671875,-0.71728515625,157.04345703125,24.23095703125,-176.08642578125,-4.1748046875,46.42333984375,-15.9912109375
10.213,-0.7734375,0.129638671875,-0.71728515625,209.16748046875,19.287109375,-124.20654296875,-6.5185546875,49.365234375,-13.330078125
10.257,-3.99951171875,-1.786376953125,3.9627685546875,209.16748046875,19.287109375,-124.20654296875,-6.5185546875,49.365234375,-13.330078125
10.258,-3.99951171875,-1.786376953125,3.9627685546875,268.12744140625,-104.4921875,219.78759765625,-5.4443359375,53.662109375,-8.06884765625
10.268,-3.99951171875,-1.786376953125,3.9627685546875,268.12744140625,-104.4921875,219.78759765625,-5.4443359375,53.662109375,-8.06884765625
10.312,-3.99951171875,-1.786376953125,3.9627685546875,268.12744140625,-104.4921875,219.78759765625,-5.4443359375,53.662109375,-8.06884765625
10.347,-0.820556640625,-0.0833740234375,0.06201171875,268.12744140625,-104.4921875,219.78759765625,-5.4443359375,53.662109375,-8.06884765625
10.348,-0.764404296875,2.2392578125,-2.261474609375,286.7431640625,-415.283203125,-91.12548828125,-0.30517578125,53.8330078125,-3.55224609375
10.391,-0.764404296875,2.2392578125,-2.261474609375,286.7431640625,-415.283203125,-91.12548828125,-0.30517578125,53.8330078125,-3.55224609375
10.392,-0.764404296875,2.2392578125,-2.261474609375,357.97119140625,-659.85107421875,-351.5625,-11.2060546875,55.17578125,7.89794921875
10.393,1.1455078125,2.6585693359375,-0.4473876953125,357.97119140625,-659.85107421875,-351.5625,-11.2060546875,55.17578125,7.89794921875
10.394,1.1455078125,2.6585693359375,-0.4473876953125,357.97119140625,-659.85107421875,-351.5625,-11.2060546875,55.17578125,7.89794921875
10.437,1.1455078125,2.6585693359375,-0.4473876953125,365.05126953125,-642.51708984375,-344.29931640625,-11.2060546875,55.17578125,7.89794921875
10.438,0.52099609375,0.18408203125,-0.22119140625,395.263671875,-534.36279296875,-362.73193359375,-11.2060546875,55.17578125,7.89794921875
10.469,0.52099609375,0.18408203125,-0.22119140625,395.263671875,-534.36279296875,-362.73193359375,-11.2060546875,55.17578125,7.89794921875
10.482,0.52099609375,0.18408203125,-0.22119140625,395.263671875,-534.36279296875,-362.73193359375,-9.89990234375,49.49951171875,15.49072265625
10.504,0.52099609375,0.18408203125,-0.22119140625,395.263671875,-534.36279296875,-362.73193359375,-9.89990234375,49.49951171875,15.49072265625
10.527,0.7752685546875,0.91650390625,1.3343505859375,395.263671875,-534.36279296875,-362.73193359375,-9.89990234375,49.49951171875,15.49072265625
10.573,1.2601318359375,0.0592041015625,1.9359130859375,340.02685546875,-523.25439453125,-337.158203125,-9.89990234375,49.49951171875,15.49072265625
10.574,1.2601318359375,0.0592041015625,1.9359130859375,344.17724609375,-521.240234375,-314.208984375,-3.61328125,43.3349609375,19.7265625
10.578,1.2601318359375,0.0592041015625,1.9359130859375,344.17724609375,-521.240234375,-314.208984375,-3.61328125,43.3349609375,19.7265625
10.609,1.2601318359375,0.0592041015625,1.9359130859375,344.17724609375,-521.240234375,-314.208984375,-3.61328125,43.3349609375,19.7265625
10.617,-1.078369140625,-0.92041015625,2.2244873046875,344.17724609375,-521.240234375,-314.208984375,-3.61328125,43.3349609375,19.7265625
10.662,-1.078369140625,-0.92041015625,2.2244873046875,324.64599609375,-512.451171875,-305.7861328125,-3.61328125,43.3349609375,19.7265625
10.69,-1.078369140625,-0.92041015625,2.2244873046875,324.64599609375,-512.451171875,-305.7861328125,-3.61328125,43.3349609375,19.7265625
10.695,-1.078369140625,-0.92041015625,2.2244873046875,324.64599609375,-512.451171875,-305.7861328125,-3.61328125,43.3349609375,19.7265625
10.707,-1.078369140625,-0.92041015625,2.2244873046875,324.64599609375,-512.451171875,-305.7861328125,11.0595703125,40.2587890625,9.24072265625
10.708,0.0604248046875,-0.059814453125,0.1671142578125,301.6357421875,-519.34814453125,-295.2880859375,7.6171875,51.03759765625,-4.736328125
10.752,-1.050537109375,0.0640869140625,-0.602294921875,273.3154296875,-500.8544921875,-324.5849609375,7.6171875,51.03759765625,-4.736328125
10.753,-1.050537109375,0.0640869140625,-0.602294921875,273.3154296875,-500.8544921875,-324.5849609375,-1.40380859375,54.6875,-6.57958984375
10.797,-0.048583984375,0.13330078125,-0.1451416015625,278.564453125,-505.9814453125,-352.96630859375,-1.40380859375,54.6875,-6.57958984375
10.798,0.2137451171875,0.6534423828125,-0.481201171875,278.564453125,-505.9814453125,-352.96630859375,-1.40380859375,54.6875,-6.57958984375
10.802,0.2137451171875,0.6534423828125,-0.481201171875,278.564453125,-505.9814453125,-352.96630859375,-1.40380859375,54.6875,-6.57958984375
10.842,0.7618408203125,0.7005615234375,-0.038330078125,278.564453125,-505.9814453125,-352.96630859375,-10.5712890625,57.71484375,1.3427734375
10.843,0.7618408203125,0.7005615234375,-0.038330078125,299.13330078125,-509.09423828125,-373.6572265625,-10.5712890625,57.71484375,1.3427734375
10.88,0.7618408203125,0.7005615234375,-0.038330078125,299.13330078125,-509.09423828125,-373.6572265625,-10.5712890625,57.71484375,1.3427734375
10.884,0.7618408203125,0.7005615234375,-0.038330078125,299.13330078125,-509.09423828125,-373.6572265625,-10.5712890625,57.71484375,1.3427734375
10.887,0.82421875,0.7218017578125,-0.0289306640625,299.1943359375,-487.6708984375,-386.962890625,-15.869140625,54.296875,8.8623046875
10.916,0.82421875,0.7218017578125,-0.0289306640625,299.1943359375,-487.6708984375,-386.962890625,-15.869140625,54.296875,8.8623046875
10.931,1.0625,0.4886474609375,0.5439453125,299.31640625,-471.98486328125,-365.41748046875,-15.869140625,54.296875,8.8623046875
10.932,1.0625,0.4886474609375,0.5439453125,299.31640625,-471.98486328125,-365.41748046875,-15.05126953125,47.61962890625,17.9931640625
10.976,0.3328857421875,-0.03759765625,0.28564453125,295.71533203125,-467.041015625,-368.408203125,-15.05126953125,47.61962890625,17.9931640625
10.985,0.3328857421875,-0.03759765625,0.28564453125,295.71533203125,-467.041015625,-368.408203125,-15.05126953125,47.61962890625,17.9931640625
11.067,0.3328857421875,-0.03759765625,0.28564453125,295.71533203125,-467.041015625,-368.408203125,-7.275390625,39.4775390625,24.18212890625
11.068,0.50537109375,-0.629150390625,1.4627685546875,289.9169921875,-448.18115234375,-360.41259765625,3.662109375,35.107421875,20.54443359375
11.099,0.50537109375,-0.629150390625,1.4627685546875,289.9169921875,-448.18115234375,-360.41259765625,3.662109375,35.107421875,20.54443359375
11.112,-0.1832275390625,-0.3404541015625,0.35595703125,282.5927734375,-450.25634765625,-351.25732421875,3.662109375,35.107421875,20.54443359375
11.113,-0.1832275390625,-0.3404541015625,0.35595703125,282.5927734375,-450.25634765625,-351.25732421875,14.94140625,41.19873046875,4.7607421875
11.133,-0.1832275390625,-0.3404541015625,0.35595703125,282.5927734375,-450.25634765625,-351.25732421875,14.94140625,41.19873046875,4.7607421875
11.146,-0.1832275390625,-0.3404541015625,0.35595703125,282.5927734375,-450.25634765625,-351.25732421875,14.94140625,41.19873046875,4.7607421875
11.179,-0.1832275390625,-0.3404541015625,0.35595703125,282.5927734375,-450.25634765625,-351.25732421875,14.94140625,41.19873046875,4.7607421875
11.198,-1.0491943359375,-0.5072021484375,-0.0650634765625,272.27783203125,-443.05419921875,-349.853515625,14.94140625,41.19873046875,4.7607421875
11.198,-0.9637451171875,-0.0704345703125,-0.5484619140625,272.27783203125,-443.05419921875,-349.853515625,14.94140625,41.19873046875,4.7607421875
11.201,-0.9637451171875,-0.0704345703125,-0.5484619140625,271.54541015625,-446.044921875,-352.05078125,14.94140625,41.19873046875,4.7607421875
11.215,-0.9637451171875,-0.0704345703125,-0.5484619140625,271.54541015625,-446.044921875,-352.05078125,14.94140625,41.19873046875,4.7607421875
11.246,-0.9637451171875,-0.0704345703125,-0.5484619140625,271.54541015625,-446.044921875,-352.05078125,11.7431640625,48.6328125,-2.5390625
11.247,2.0562744140625,3.99951171875,0.3616943359375,271.54541015625,-446.044921875,-352.05078125,11.7431640625,48.6328125,-2.5390625
11.277,2.0562744140625,3.99951171875,0.3616943359375,271.54541015625,-446.044921875,-352.05078125,11.7431640625,48.6328125,-2.5390625
11.292,2.0562744140625,3.99951171875,0.3616943359375,263.73291015625,-208.06884765625,-7.080078125,8.77685546875,52.30712890625,-4.541015625
11.293,-0.218505859375,-0.0118408203125,-2.3099365234375,263.73291015625,-208.06884765625,-7.080078125,8.77685546875,52.30712890625,-4.541015625
11.294,-0.218505859375,-0.0118408203125,-2.3099365234375,-260.68115234375,-579.58984375,-15.80810546875,8.77685546875,52.30712890625,-4.541015625
11.337,0.49072265625,-0.1259765625,-0.880615234375,-249.51171875,-557.92236328125,-24.59716796875,5.9326171875,52.3193359375,-11.48681640625
11.369,0.49072265625,-0.1259765625,-0.880615234375,-249.51171875,-557.92236328125,-24.59716796875,5.9326171875,52.3193359375,-11.48681640625
11.382,1.521484375,-0.4293212890625,-0.391357421875,-249.51171875,-557.92236328125,-24.59716796875,-3.0029296875,47.64404296875,-19.580078125
11.383,1.521484375,-0.4293212890625,-0.391357421875,-252.13623046875,-603.08837890625,-12.0849609375,-3.0029296875,47.64404296875,-19.580078125
11.399,1.521484375,-0.4293212890625,-0.391357421875,-252.13623046875,-603.08837890625,-12.0849609375,-3.0029296875,47.64404296875,-19.580078125
11.472,1.521484375,-0.4293212890625,-0.391357421875,-252.13623046875,-603.08837890625,-12.0849609375,-15.91796875,42.85888671875,-20.22705078125
11.473,1.0045166015625,-0.4393310546875,0.751708984375,-227.60009765625,-570.068359375,-12.939453125,-26.42822265625,37.255859375,-14.12353515625
11.479,1.0045166015625,-0.4393310546875,0.751708984375,-227.60009765625,-570.068359375,-12.939453125,-26.42822265625,37.255859375,-14.12353515625
11.509,1.0045166015625,-0.4393310546875,0.751708984375,-227.60009765625,-570.068359375,-12.939453125,-26.42822265625,37.255859375,-14.12353515625
11.586,1.0045166015625,-0.4393310546875,0.751708984375,-227.60009765625,-570.068359375,-12.939453125,-26.42822265625,37.255859375,-14.12353515625
11.593,1.0045166015625,-0.4393310546875,0.751708984375,-227.60009765625,-570.068359375,-12.939453125,-26.42822265625,37.255859375,-14.12353515625
11.607,0.35546875,-0.136474609375,0.364501953125,-227.60009765625,-570.068359375,-12.939453125,-26.42822265625,37.255859375,-14.12353515625
11.608,0.337890625,-0.1083984375,1.40576171875,-220.52001953125,-556.5185546875,0.3662109375,-28.02734375,37.6953125,11.03515625
11.652,-0.8416748046875,0.396728515625,0.285400390625,-218.26171875,-533.8134765625,13.916015625,-9.0087890625,45.34912109375,18.3349609375
11.697,-0.9158935546875,0.4039306640625,-0.16845703125,-227.96630859375,-519.59228515625,18.37158203125,0.341796875,48.35205078125,14.53857421875
11.704,-0.9158935546875,0.4039306640625,-0.16845703125,-227.96630859375,-519.59228515625,18.37158203125,0.341796875,48.35205078125,14.53857421875
11.734,-0.9158935546875,0.4039306640625,-0.16845703125,-227.96630859375,-519.59228515625,18.37158203125,0.341796875,48.35205078125,14.53857421875
11.742,-0.9158935546875,0.4039306640625,-0.16845703125,-229.1259765625,-517.39501953125,16.9677734375,4.6630859375,50.64697265625,3.86962890625
11.743,-0.6142578125,0.2923583984375,-0.7161865234375,-229.1259765625,-517.39501953125,16.9677734375,4.6630859375,50.64697265625,3.86962890625
11.776,-0.6142578125,0.2923583984375,-0.7161865234375,-229.1259765625,-517.39501953125,16.9677734375,4.6630859375,50.64697265625,3.86962890625
11.787,-0.6142578125,0.2923583984375,-0.7161865234375,-225.5859375,-513.427734375,15.0146484375,3.79638671875,50.732421875,-5.40771484375
11.788,-0.084228515625,0.01611328125,-0.618896484375,-225.5859375,-513.427734375,15.0146484375,3.79638671875,50.732421875,-5.40771484375
11.811,-0.084228515625,0.01611328125,-0.618896484375,-225.5859375,-513.427734375,15.0146484375,3.79638671875,50.732421875,-5.40771484375
11.832,-0.084228515625,0.01611328125,-0.618896484375,-219.482421875,-513.97705078125,16.05224609375,-2.24609375,49.072265625,-14.6728515625
11.833,0.33740234375,-0.1422119140625,-0.7320556640625,-219.482421875,-513.97705078125,16.05224609375,-2.24609375,49.072265625,-14.6728515625
11.877,0.33740234375,-0.1422119140625,-0.7320556640625,-229.00390625,-526.4892578125,16.29638671875,-12.09716796875,45.6298828125,-18.15185546875
11.878,0.77978515625,-0.340087890625,-0.67919921875,-229.00390625,-526.4892578125,16.29638671875,-12.09716796875,45.6298828125,-18.15185546875
11.89,0.77978515625,-0.340087890625,-0.67919921875,-229.00390625,-526.4892578125,16.29638671875,-12.09716796875,45.6298828125,-18.15185546875
11.895,0.77978515625,-0.340087890625,-0.67919921875,-229.00390625,-526.4892578125,16.29638671875,-12.09716796875,45.6298828125,-18.15185546875
11.963,0.77978515625,-0.340087890625,-0.67919921875,-229.00390625,-526.4892578125,16.29638671875,-12.09716796875,45.6298828125,-18.15185546875
11.967,0.77978515625,-0.340087890625,-0.67919921875,-229.98046875,-532.28759765625,20.99609375,-22.36328125,41.02783203125,-13.28125
11.968,0.619873046875,-0.261962890625,-0.064453125,-230.89599609375,-540.4052734375,20.8740234375,-22.36328125,41.02783203125,-13.28125
11.998,0.619873046875,-0.261962890625,-0.064453125,-230.89599609375,-540.4052734375,20.8740234375,-22.36328125,41.02783203125,-13.28125
12.011,1.337158203125,-0.6331787109375,1.17578125,-230.89599609375,-540.4052734375,20.8740234375,-22.36328125,41.02783203125,-13.28125
12.012,1.337158203125,-0.6331787109375,1.17578125,-212.46337890625,-518.12744140625,24.0478515625,-29.3212890625,39.2333984375,-4.72412109375
12.057,0.0479736328125,-0.0521240234375,0.1363525390625,-212.46337890625,-518.12744140625,24.0478515625,-29.3212890625,39.2333984375,-4.72412109375
12.058,0.0479736328125,-0.0521240234375,0.1363525390625,-215.087890625,-517.7001953125,31.79931640625,-29.541015625,39.2578125,5.078125
12.078,0.0479736328125,-0.0521240234375,0.1363525390625,-215.087890625,-517.7001953125,31.79931640625,-29.541015625,39.2578125,5.078125
12.102,0.48876953125,-0.2030029296875,1.9267578125,-134.70458984375,-107.72705078125,-332.763671875,-29.541015625,39.2578125,5.078125
12.103,0.48876953125,-0.2030029296875,1.9267578125,-134.70458984375,-107.72705078125,-332.763671875,-26.35498046875,37.07275390625,13.75732421875
12.116,0.48876953125,-0.2030029296875,1.9267578125,-134.70458984375,-107.72705078125,-332.763671875,-26.35498046875,37.07275390625,13.75732421875
12.147,-0.283447265625,-0.471923828125,0.325927734375,-131.28662109375,-113.28125,-333.80126953125,-26.35498046875,37.07275390625,13.75732421875
12.191,-0.283447265625,-0.471923828125,0.325927734375,-131.28662109375,-113.28125,-333.80126953125,-26.35498046875,37.07275390625,13.75732421875
12.192,0.0216064453125,-0.2249755859375,0.0216064453125,-131.28662109375,-113.28125,-333.80126953125,-24.0234375,33.70361328125,15.49072265625
12.194,0.0216064453125,-0.2249755859375,0.0216064453125,-131.28662109375,-113.28125,-333.80126953125,-24.0234375,33.70361328125,15.49072265625
12.242,0.0216064453125,-0.2249755859375,0.0216064453125,-131.9580078125,-120.54443359375,-329.28466796875,-19.4580078125,31.396484375,18.310546875
12.243,-3.99951171875,1.365234375,3.99951171875,-33.02001953125,-470.03173828125,-85.02197265625,-19.4580078125,31.396484375,18.310546875
12.263,-3.99951171875,1.365234375,3.99951171875,-33.02001953125,-470.03173828125,-85.02197265625,-19.4580078125,31.396484375,18.310546875
12.281,-3.99951171875,1.365234375,3.99951171875,-33.02001953125,-470.03173828125,-85.02197265625,-8.7890625,30.078125,21.22802734375
12.282,0.084228515625,-0.0118408203125,0.0478515625,-33.3251953125,-470.5810546875,-85.02197265625,-8.7890625,30.078125,21.22802734375
12.327,-0.0347900390625,-0.0328369140625,0.060546875,-33.3251953125,-470.5810546875,-85.02197265625,1.52587890625,30.55419921875,18.64013671875
12.328,-0.0347900390625,-0.0328369140625,0.060546875,-33.0810546875,-471.49658203125,-84.77783203125,1.52587890625,30.55419921875,18.64013671875
12.336,-0.0347900390625,-0.0328369140625,0.060546875,-33.0810546875,-471.49658203125,-84.77783203125,1.52587890625,30.55419921875,18.64013671875
12.372,0.05419921875,-0.0142822265625,0.073486328125,-162.4755859375,-430.908203125,-83.55712890625,1.52587890625,30.55419921875,18.64013671875
12.373,0.05419921875,-0.0142822265625,0.073486328125,-162.4755859375,-430.908203125,-83.55712890625,9.46044921875,32.14111328125,11.58447265625
12.382,0.05419921875,-0.0142822265625,0.073486328125,-162.4755859375,-430.908203125,-83.55712890625,9.46044921875,32.14111328125,11.58447265625
12.416,0.05419921875,-0.0142822265625,0.073486328125,-162.4755859375,-430.908203125,-83.55712890625,9.46044921875,32.14111328125,11.58447265625
12.417,-0.1192626953125,0.077392578125,-0.0882568359375,-162.4755859375,-430.908203125,-83.55712890625,9.46044921875,32.14111328125,11.58447265625
12.419,-0.1192626953125,0.077392578125,-0.0882568359375,-168.15185546875,-431.57958984375,-102.72216796875,12.41455078125,35.65673828125,3.74755859375
12.464,0.0399169921875,-0.0692138671875,-0.0413818359375,-142.333984375,-446.47216796875,-116.51611328125,12.41455078125,35.65673828125,3.74755859375
12.465,0.0399169921875,-0.0692138671875,-0.0413818359375,-142.333984375,-446.47216796875,-116.51611328125,12.1337890625,36.5478515625,-5.67626953125
12.486,0.0399169921875,-0.0692138671875,-0.0413818359375,-142.333984375,-446.47216796875,-116.51611328125,12.1337890625,36.5478515625,-5.67626953125
12.493,0.0399169921875,-0.0692138671875,-0.0413818359375,-142.333984375,-446.47216796875,-116.51611328125,12.1337890625,36.5478515625,-5.67626953125
12.506,-0.6185302734375,2.5906982421875,-3.2261962890625,-142.333984375,-446.47216796875,-116.51611328125,12.1337890625,36.5478515625,-5.67626953125
12.507,-0.6185302734375,2.5906982421875,-3.2261962890625,-142.4560546875,-411.62109375,-158.935546875,6.591796875,37.6708984375,-12.31689453125
12.551,-0.005615234375,-0.1610107421875,0.17236328125,-140.44189453125,-414.73388671875,-157.3486328125,6.591796875,37.6708984375,-12.31689453125
12.552,-0.005615234375,-0.1610107421875,0.17236328125,-140.44189453125,-414.73388671875,-157.3486328125,-0.74462890625,36.46240234375,-17.17529296875
12.562,-0.005615234375,-0.1610107421875,0.17236328125,-140.44189453125,-414.73388671875,-157.3486328125,-0.74462890625,36.46240234375,-17.17529296875
12.604,-0.005615234375,-0.1610107421875,0.17236328125,-140.44189453125,-414.73388671875,-157.3486328125,-0.74462890625,36.46240234375,-17.17529296875
12.642,1.1982421875,0.4666748046875,-0.9190673828125,-140.44189453125,-414.73388671875,-157.3486328125,-0.74462890625,36.46240234375,-17.17529296875
12.644,1.1982421875,0.4666748046875,-0.9190673828125,-138.48876953125,-400.5126953125,-184.326171875,-10.205078125,33.89892578125,-17.22412109375
12.645,0.6826171875,0.0440673828125,-0.30859375,-138.48876953125,-400.5126953125,-184.326171875,-10.205078125,33.89892578125,-17.22412109375
12.681,0.6826171875,0.0440673828125,-0.30859375,-138.48876953125,-400.5126953125,-184.326171875,-10.205078125,33.89892578125,-17.22412109375
12.687,0.6826171875,0.0440673828125,-0.30859375,-133.544921875,-424.9267578125,-169.73876953125,-17.822265625,31.1279296875,-14.208984375
12.688,0.6754150390625,-0.2359619140625,0.8953857421875,-133.544921875,-424.9267578125,-169.73876953125,-17.822265625,31.1279296875,-14.208984375
12.712,0.6754150390625,-0.2359619140625,0.8953857421875,-133.544921875,-424.9267578125,-169.73876953125,-17.822265625,31.1279296875,-14.208984375
12.732,0.5076904296875,-0.3582763671875,0.6124267578125,-122.4365234375,-445.61767578125,-171.44775390625,-22.75390625,27.490234375,-7.861328125
12.777,0.5076904296875,-0.3582763671875,0.6124267578125,-114.1357421875,-438.65966796875,-162.9638671875,-22.4853515625,24.25537109375,1.08642578125
12.778,0.3822021484375,-0.3021240234375,0.6298828125,-114.1357421875,-438.65966796875,-162.9638671875,-22.4853515625,24.25537109375,1.08642578125
12.791,0.3822021484375,-0.3021240234375,0.6298828125,-114.1357421875,-438.65966796875,-162.9638671875,-22.4853515625,24.25537109375,1.08642578125
12.793,0.3822021484375,-0.3021240234375,0.6298828125,-114.1357421875,-438.65966796875,-162.9638671875,-22.4853515625,24.25537109375,1.08642578125
12.822,0.3822021484375,-0.3021240234375,0.6298828125,-114.68505859375,-437.80517578125,-157.53173828125,-18.12744140625,21.71630859375,8.056640625
12.823,-0.0849609375,-0.4339599609375,1.4150390625,-114.68505859375,-437.80517578125,-157.53173828125,-18.12744140625,21.71630859375,8.056640625
12.859,-0.0849609375,-0.4339599609375,1.4150390625,-114.68505859375,-437.80517578125,-157.53173828125,-18.12744140625,21.71630859375,8.056640625
12.867,-0.0849609375,-0.4339599609375,1.4150390625,-112.73193359375,-421.20361328125,-144.71435546875,-11.9140625,21.35009765625,13.63525390625
12.868,-0.138916015625,-0.142578125,0.543212890625,-112.73193359375,-421.20361328125,-144.71435546875,-11.9140625,21.35009765625,13.63525390625
12.892,-0.138916015625,-0.142578125,0.543212890625,-112.73193359375,-421.20361328125,-144.71435546875,-11.9140625,21.35009765625,13.63525390625
12.957,-0.138916015625,-0.142578125,0.543212890625,-116.5771484375,-410.46142578125,-136.16943359375,-11.9140625,21.35009765625,13.63525390625
12.958,-0.2828369140625,-0.025146484375,0.3704833984375,-120.7275390625,-406.43310546875,-129.39453125,-4.6142578125,21.83837890625,15.6982421875
12.974,-0.2828369140625,-0.025146484375,0.3704833984375,-120.7275390625,-406.43310546875,-129.39453125,-4.6142578125,21.83837890625,15.6982421875
13.002,-1.0179443359375,0.3135986328125,0.044677734375,-132.01904296875,-408.5693359375,-133.30078125,3.0029296875,25.08544921875,13.68408203125
13.012,-1.0179443359375,0.3135986328125,0.044677734375,-132.01904296875,-408.5693359375,-133.30078125,3.0029296875,25.08544921875,13.68408203125
13.047,-1.0179443359375,0.3135986328125,0.044677734375,-132.01904296875,-408.5693359375,-133.30078125,8.642578125,28.50341796875,7.89794921875
13.048,1.93994140625,3.99951171875,-1.337646484375,412.7197265625,-512.939453125,-50.96435546875,8.642578125,28.50341796875,7.89794921875
13.091,1.93994140625,3.99951171875,-1.337646484375,412.7197265625,-512.939453125,-50.96435546875,8.642578125,28.50341796875,7.89794921875
13.092,0.0760498046875,2.417236328125,-0.5909423828125,412.7197265625,-512.939453125,-50.96435546875,8.642578125,28.50341796875,7.89794921875
13.093,0.0760498046875,2.417236328125,-0.5909423828125,151.18408203125,-296.7529296875,-87.2802734375,11.5966796875,29.6142578125,-0.4638671875
13.094,0.0760498046875,2.417236328125,-0.5909423828125,151.18408203125,-296.7529296875,-87.2802734375,11.5966796875,29.6142578125,-0.4638671875
13.138,0.2242431640625,1.955078125,-1.605712890625,-281.55517578125,-181.0302734375,-92.95654296875,11.5966796875,29.6142578125,-0.4638671875
13.139,0.2242431640625,1.955078125,-1.605712890625,-281.55517578125,-181.0302734375,-92.95654296875,9.94873046875,32.38525390625,-6.1279296875
13.155,0.2242431640625,1.955078125,-1.605712890625,-281.55517578125,-181.0302734375,-92.95654296875,9.94873046875,32.38525390625,-6.1279296875
13.182,-0.5753173828125,-0.0732421875,-0.5103759765625,-604.55322265625,-161.68212890625,133.85009765625,7.75146484375,29.91943359375,-8.1298828125
13.203,-0.5753173828125,-0.0732421875,-0.5103759765625,-604.55322265625,-161.68212890625,133.85009765625,7.75146484375,29.91943359375,-8.1298828125
13.227,-0.35595703125,-0.3426513671875,-0.3514404296875,-604.55322265625,-161.68212890625,133.85009765625,7.75146484375,29.91943359375,-8.1298828125
13.228,-0.35595703125,-0.3426513671875,-0.3514404296875,-553.1005859375,-168.5791015625,145.99609375,4.52880859375,23.66943359375,-3.466796875
13.28,-0.35595703125,-0.3426513671875,-0.3514404296875,-553.1005859375,-168.5791015625,145.99609375,4.52880859375,23.66943359375,-3.466796875
13.291,-0.2413330078125,-1.030517578125,-1.2891845703125,-553.1005859375,-168.5791015625,145.99609375,4.52880859375,23.66943359375,-3.466796875
13.292,-0.2413330078125,-1.030517578125,-1.2891845703125,-538.2080078125,-147.03369140625,164.55078125,2.44140625,21.6064453125,4.60205078125
13.315,-0.2413330078125,-1.030517578125,-1.2891845703125,-538.2080078125,-147.03369140625,164.55078125,2.44140625,21.6064453125,4.60205078125
13.316,0.0938720703125,-0.3133544921875,0.1124267578125,-538.2080078125,-147.03369140625,164.55078125,2.44140625,21.6064453125,4.60205078125
13.317,0.0938720703125,-0.3133544921875,0.1124267578125,-529.23583984375,-137.939453125,187.8662109375,-0.732421875,24.0966796875,10.9619140625
13.361,0.09228515625,-2.094482421875,-0.0704345703125,-529.23583984375,-137.939453125,187.8662109375,-0.732421875,24.0966796875,10.9619140625
13.362,0.09228515625,-2.094482421875,-0.0704345703125,-506.591796875,-125.30517578125,201.904296875,-0.830078125,30.13916015625,14.6728515625
13.389,0.09228515625,-2.094482421875,-0.0704345703125,-506.591796875,-125.30517578125,201.904296875,-0.830078125,30.13916015625,14.6728515625
13.395,0.09228515625,-2.094482421875,-0.0704345703125,-506.591796875,-125.30517578125,201.904296875,-0.830078125,30.13916015625,14.6728515625
13.406,0.4879150390625,-1.576171875,1.1329345703125,-506.591796875,-125.30517578125,201.904296875,-0.830078125,30.13916015625,14.6728515625
13.407,0.037353515625,-0.1781005859375,0.3619384765625,-484.92431640625,-101.1962890625,208.49609375,-0.830078125,30.13916015625,14.6728515625
13.451,0.037353515625,-0.1781005859375,0.3619384765625,-484.92431640625,-101.1962890625,208.49609375,-1.47705078125,38.22021484375,14.92919921875
13.452,0.466552734375,-0.191162109375,1.5960693359375,-475.03662109375,-81.298828125,209.9609375,-1.47705078125,38.22021484375,14.92919921875
13.464,0.466552734375,-0.191162109375,1.5960693359375,-475.03662109375,-81.298828125,209.9609375,-1.47705078125,38.22021484375,14.92919921875
13.496,0.466552734375,-0.191162109375,1.5960693359375,-475.03662109375,-81.298828125,209.9609375,0.8544921875,43.9208984375,12.07275390625
13.497,0.2413330078125,0.3260498046875,0.7381591796875,-460.205078125,-71.59423828125,197.44873046875,0.8544921875,43.9208984375,12.07275390625
13.536,0.2413330078125,0.3260498046875,0.7381591796875,-460.205078125,-71.59423828125,197.44873046875,0.8544921875,43.9208984375,12.07275390625
13.579,0.2413330078125,0.3260498046875,0.7381591796875,-460.205078125,-71.59423828125,197.44873046875,0.8544921875,43.9208984375,12.07275390625
13.587,0.317626953125,0.73828125,1.3634033203125,-463.9892578125,-63.04931640625,187.43896484375,0.8544921875,43.9208984375,12.07275390625
13.588,0.317626953125,0.73828125,1.3634033203125,-463.9892578125,-63.04931640625,187.43896484375,3.96728515625,48.64501953125,5.419921875
13.59,-0.0194091796875,0.248779296875,0.3359375,-463.9892578125,-63.04931640625,187.43896484375,3.96728515625,48.64501953125,5.419921875
13.609,-0.0194091796875,0.248779296875,0.3359375,-463.9892578125,-63.04931640625,187.43896484375,3.96728515625,48.64501953125,5.419921875
13.632,-0.115966796875,0.140625,-0.01123046875,-477.05078125,-43.64013671875,158.8134765625,8.33740234375,46.52099609375,-5.8349609375
13.678,-0.5462646484375,1.4228515625,-0.9547119140625,-449.3408203125,-40.52734375,118.71337890625,9.58251953125,41.5771484375,-11.23046875
13.691,-0.5462646484375,1.4228515625,-0.9547119140625,-449.3408203125,-40.52734375,118.71337890625,9.58251953125,41.5771484375,-11.23046875
13.694,-0.5462646484375,1.4228515625,-0.9547119140625,-449.3408203125,-40.52734375,118.71337890625,9.58251953125,41.5771484375,-11.23046875
13.722,-0.2420654296875,0.323486328125,-1.181884765625,-439.3310546875,-48.2177734375,95.0927734375,9.72900390625,34.9609375,-14.74609375
13.767,-0.204833984375,-0.00146484375,-0.4150390625,-402.03857421875,-66.7724609375,72.8759765625,7.6904296875,27.40478515625,-15.34423828125
13.769,-0.204833984375,-0.00146484375,-0.4150390625,-402.03857421875,-66.7724609375,72.8759765625,7.6904296875,27.40478515625,-15.34423828125
13.797,-0.204833984375,-0.00146484375,-0.4150390625,-402.03857421875,-66.7724609375,72.8759765625,7.6904296875,27.40478515625,-15.34423828125
13.812,-0.28125,-0.3958740234375,-1.1717529296875,-391.05224609375,-71.35009765625,70.4345703125,7.6904296875,27.40478515625,-15.34423828125
13.812,-0.28125,-0.3958740234375,-1.1717529296875,-373.1689453125,-82.82470703125,71.59423828125,7.6904296875,27.40478515625,-15.34423828125
13.878,-0.28125,-0.3958740234375,-1.1717529296875,-373.1689453125,-82.82470703125,71.59423828125,7.6904296875,27.40478515625,-15.34423828125
13.902,-0.28125,-0.3958740234375,-1.1717529296875,-373.1689453125,-82.82470703125,71.59423828125,5.7861328125,21.37451171875,-11.85302734375
13.903,-0.112548828125,-0.4459228515625,-0.527099609375,-352.72216796875,-99.2431640625,80.26123046875,5.7861328125,21.37451171875,-11.85302734375
13.903,-0.1324462890625,-0.5859375,-0.75341796875,-352.72216796875,-99.2431640625,80.26123046875,5.7861328125,21.37451171875,-11.85302734375
13.917,-0.1324462890625,-0.5859375,-0.75341796875,-352.72216796875,-99.2431640625,80.26123046875,5.7861328125,21.37451171875,-11.85302734375
13.946,-0.1324462890625,-0.5859375,-0.75341796875,-326.23291015625,-100.830078125,103.02734375,5.7861328125,21.37451171875,-11.85302734375
13.947,-0.17431640625,-0.008544921875,0.2325439453125,-326.23291015625,-100.830078125,103.02734375,-3.7841796875,13.0126953125,-4.052734375
13.991,-0.17431640625,-0.008544921875,0.2325439453125,-326.23291015625,-100.830078125,103.02734375,-3.7841796875,13.0126953125,-4.052734375
13.992,-0.035400390625,-0.22802734375,0.1092529296875,10.68115234375,186.6455078125,282.3486328125,-10.07080078125,14.8681640625,-7.28759765625
14.025,-0.035400390625,-0.22802734375,0.1092529296875,10.68115234375,186.6455078125,282.3486328125,-10.07080078125,14.8681640625,-7.28759765625
14.037,-0.035400390625,-0.22802734375,0.1092529296875,12.451171875,189.453125,276.79443359375,-10.07080078125,14.8681640625,-7.28759765625
14.039,2.355712890625,-3.6025390625,-0.4217529296875,12.451171875,189.453125,276.79443359375,-14.1357421875,17.87109375,-12.9638671875
14.066,2.355712890625,-3.6025390625,-0.4217529296875,12.451171875,189.453125,276.79443359375,-14.1357421875,17.87109375,-12.9638671875
14.081,2.355712890625,-3.6025390625,-0.4217529296875,-17.27294921875,174.072265625,284.1796875,-14.1357421875,17.87109375,-12.9638671875
14.082,-0.708740234375,-0.5025634765625,0.3155517578125,-17.27294921875,174.072265625,284.1796875,-20.73974609375,18.56689453125,-2.5390625
14.1,-0.708740234375,-0.5025634765625,0.3155517578125,-17.27294921875,174.072265625,284.1796875,-20.73974609375,18.56689453125,-2.5390625
14.126,-0.708740234375,-0.5025634765625,0.3155517578125,-567.07763671875,-287.17041015625,349.42626953125,-27.001953125,25.1953125,9.8388671875
14.127,0.273193359375,-0.194091796875,0.225341796875,-567.07763671875,-287.17041015625,349.42626953125,-27.001953125,25.1953125,9.8388671875
14.171,0.273193359375,-0.194091796875,0.225341796875,-578.06396484375,-287.29248046875,358.88671875,-27.001953125,25.1953125,9.8388671875
14.179,0.273193359375,-0.194091796875,0.225341796875,-578.06396484375,-287.29248046875,358.88671875,-27.001953125,25.1953125,9.8388671875
14.249,0.273193359375,-0.194091796875,0.225341796875,-578.06396484375,-287.29248046875,358.88671875,-27.001953125,25.1953125,9.8388671875
14.287,0.273193359375,-0.194091796875,0.225341796875,-578.06396484375,-287.29248046875,358.88671875,-27.001953125,25.1953125,9.8388671875
14.293,0.273193359375,-0.194091796875,0.225341796875,-578.06396484375,-287.29248046875,358.88671875,-27.001953125,25.1953125,9.8388671875
14.345,0.273193359375,-0.194091796875,0.225341796875,-578.06396484375,-287.29248046875,358.88671875,-26.0009765625,36.56005859375,16.30859375
14.346,1.083984375,0.2762451171875,2.3328857421875,-578.06396484375,-287.29248046875,358.88671875,-26.0009765625,36.56005859375,16.30859375
14.351,1.083984375,0.2762451171875,2.3328857421875,-459.9609375,-184.38720703125,299.31640625,-26.0009765625,36.56005859375,16.30859375
14.352,0.470458984375,0.097900390625,0.1978759765625,-456.4208984375,-262.0849609375,325.927734375,-6.40869140625,56.7138671875,2.3193359375
14.368,0.470458984375,0.097900390625,0.1978759765625,-456.4208984375,-262.0849609375,325.927734375,-6.40869140625,56.7138671875,2.3193359375
14.398,-0.383056640625,2.193115234375,-1.0850830078125,-420.83740234375,-104.3701171875,209.228515625,-6.40869140625,56.7138671875,2.3193359375
14.399,-0.383056640625,2.193115234375,-1.0850830078125,-420.83740234375,-104.3701171875,209.228515625,-2.38037109375,53.8818359375,-6.55517578125
14.404,-0.383056640625,2.193115234375,-1.0850830078125,-420.83740234375,-104.3701171875,209.228515625,-2.38037109375,53.8818359375,-6.55517578125
14.442,-0.0345458984375,-0.0701904296875,-0.0081787109375,-407.5927734375,-125.48828125,180.84716796875,0.5126953125,47.7294921875,-13.53759765625
14.48,-0.0345458984375,-0.0701904296875,-0.0081787109375,-407.5927734375,-125.48828125,180.84716796875,0.5126953125,47.7294921875,-13.53759765625
14.487,-0.67822265625,0.567138671875,-1.8363037109375,-400.5126953125,-127.5634765625,166.748046875,0.5126953125,47.7294921875,-13.53759765625
14.488,-0.67822265625,0.567138671875,-1.8363037109375,-400.5126953125,-127.5634765625,166.748046875,-0.08544921875,40.8203125,-16.1865234375
14.516,-0.67822265625,0.567138671875,-1.8363037109375,-400.5126953125,-127.5634765625,166.748046875,-0.08544921875,40.8203125,-16.1865234375
14.576,-0.0726318359375,-0.08203125,-0.41845703125,-400.5126953125,-127.5634765625,166.748046875,-0.08544921875,40.8203125,-16.1865234375
14.577,-0.0726318359375,-0.08203125,-0.41845703125,-394.22607421875,-146.54541015625,157.958984375,-0.08544921875,40.8203125,-16.1865234375
14.592,-0.0726318359375,-0.08203125,-0.41845703125,-394.22607421875,-146.54541015625,157.958984375,-0.08544921875,40.8203125,-16.1865234375
14.594,-0.0726318359375,-0.08203125,-0.41845703125,-394.22607421875,-146.54541015625,157.958984375,-0.08544921875,40.8203125,-16.1865234375
14.622,-0.0726318359375,-0.08203125,-0.41845703125,-394.22607421875,-146.54541015625,157.958984375,-3.03955078125,33.06884765625,-15.1611328125
14.623,-0.0244140625,-0.1922607421875,-0.1666259765625,-390.0146484375,-169.73876953125,167.1142578125,-3.03955078125,33.06884765625,-15.1611328125
14.667,-0.0244140625,-0.1922607421875,-0.1666259765625,-390.0146484375,-169.73876953125,167.1142578125,-5.419921875,27.05078125,-12.7197265625
14.668,0.160888671875,-0.3507080078125,-0.096435546875,-361.26708984375,-187.5,176.81884765625,-5.419921875,27.05078125,-12.7197265625
14.669,0.160888671875,-0.3507080078125,-0.096435546875,-361.26708984375,-187.5,176.81884765625,-9.4970703125,23.486328125,-6.62841796875
14.703,0.160888671875,-0.3507080078125,-0.096435546875,-361.26708984375,-187.5,176.81884765625,-9.4970703125,23.486328125,-6.62841796875
14.712,0.828369140625,-1.3089599609375,0.2271728515625,-365.1123046875,-192.138671875,179.3212890625,-9.4970703125,23.486328125,-6.62841796875
14.713,0.828369140625,-1.3089599609375,0.2271728515625,-365.1123046875,-192.138671875,179.3212890625,-12.98828125,22.10693359375,0.048828125
14.757,0.5953369140625,-0.6195068359375,0.627685546875,-359.19189453125,-184.9365234375,194.82421875,-12.98828125,22.10693359375,0.048828125
14.758,0.5953369140625,-0.6195068359375,0.627685546875,-359.19189453125,-184.9365234375,194.82421875,-15.90576171875,24.23095703125,7.6904296875
14.78,0.5953369140625,-0.6195068359375,0.627685546875,-359.19189453125,-184.9365234375,194.82421875,-15.90576171875,24.23095703125,7.6904296875
14.816,0.5953369140625,-0.6195068359375,0.627685546875,-359.19189453125,-184.9365234375,194.82421875,-15.90576171875,24.23095703125,7.6904296875
14.847,0.566162109375,-0.402587890625,0.686279296875,-484.2529296875,-152.77099609375,243.5302734375,-15.90576171875,24.23095703125,7.6904296875
14.876,0.566162109375,-0.402587890625,0.686279296875,-484.2529296875,-152.77099609375,243.5302734375,-15.90576171875,24.23095703125,7.6904296875
14.892,0.566162109375,-0.402587890625,0.686279296875,-484.2529296875,-152.77099609375,243.5302734375,-16.7236328125,28.662109375,13.07373046875
14.893,-1.1602783203125,-3.99951171875,-1.42041015625,-484.2529296875,-152.77099609375,243.5302734375,-16.7236328125,28.662109375,13.07373046875
14.894,-1.1602783203125,-3.99951171875,-1.42041015625,-503.35693359375,93.32275390625,211.669921875,-16.7236328125,28.662109375,13.07373046875
14.895,-1.1602783203125,-3.99951171875,-1.42041015625,-503.35693359375,93.32275390625,211.669921875,-18.17626953125,44.8974609375,10.25390625
14.97,-1.1602783203125,-3.99951171875,-1.42041015625,-503.35693359375,93.32275390625,211.669921875,-18.17626953125,44.8974609375,10.25390625
14.982,0.2110595703125,1.529296875,0.1361083984375,-262.14599609375,92.7734375,-27.16064453125,-18.17626953125,44.8974609375,10.25390625
14.982,0.3045654296875,1.3253173828125,0.421142578125,-262.14599609375,92.7734375,-27.16064453125,-18.17626953125,44.8974609375,10.25390625
15.0,0.3045654296875,1.3253173828125,0.421142578125,-262.14599609375,92.7734375,-27.16064453125,-18.17626953125,44.8974609375,10.25390625
15.028,0.1031494140625,0.7393798828125,-0.243896484375,-241.3330078125,79.65087890625,-60.85205078125,-19.4580078125,46.7041015625,4.6875
15.029,0.1031494140625,0.7393798828125,-0.243896484375,-607.421875,118.896484375,-194.091796875,-19.4580078125,46.7041015625,4.6875
15.072,-0.038818359375,-0.133056640625,0.0015869140625,-587.890625,107.60498046875,-157.8369140625,-21.74072265625,47.314453125,-0.8544921875
15.116,-0.038818359375,-0.133056640625,0.0015869140625,-587.890625,107.60498046875,-157.8369140625,-21.74072265625,47.314453125,-0.8544921875
15.117,-0.038818359375,-0.133056640625,0.0015869140625,-587.890625,107.60498046875,-157.8369140625,-23.0224609375,39.85595703125,-8.38623046875
15.119,-0.038818359375,-0.133056640625,0.0015869140625,-587.890625,107.60498046875,-157.8369140625,-23.0224609375,39.85595703125,-8.38623046875
15.162,0.2706298828125,-1.4920654296875,-1.67578125,-610.16845703125,55.48095703125,-168.39599609375,-21.39892578125,30.87158203125,-8.3251953125
15.181,0.2706298828125,-1.4920654296875,-1.67578125,-610.16845703125,55.48095703125,-168.39599609375,-21.39892578125,30.87158203125,-8.3251953125
15.193,0.2706298828125,-1.4920654296875,-1.67578125,-610.16845703125,55.48095703125,-168.39599609375,-21.39892578125,30.87158203125,-8.3251953125
15.207,-0.0267333984375,-0.6981201171875,-0.0086669921875,-588.37890625,36.07177734375,-171.0205078125,-15.51513671875,21.13037109375,10.7666015625
15.252,-0.052978515625,-0.3233642578125,0.1773681640625,-555.6640625,43.27392578125,-135.68115234375,-15.51513671875,21.13037109375,10.7666015625
15.253,-0.052978515625,-0.3233642578125,0.1773681640625,-555.6640625,43.27392578125,-135.68115234375,-13.70849609375,27.9541015625,19.10400390625
15.255,-0.052978515625,-0.3233642578125,0.1773681640625,-555.6640625,43.27392578125,-135.68115234375,-13.70849609375,27.9541015625,19.10400390625
15.297,-0.525390625,-1.0166015625,1.9998779296875,-543.5791015625,43.9453125,-119.07958984375,-13.70849609375,27.9541015625,19.10400390625
15.298,-0.066162109375,-0.0087890625,0.2030029296875,-543.5791015625,43.9453125,-119.07958984375,-13.70849609375,27.9541015625,19.10400390625
15.303,-0.066162109375,-0.0087890625,0.2030029296875,-543.5791015625,43.9453125,-119.07958984375,-13.70849609375,27.9541015625,19.10400390625
15.342,-0.12060546875,0.34033203125,0.979248046875,-548.2177734375,56.70166015625,-114.92919921875,-13.9892578125,38.14697265625,21.30126953125
15.377,-0.12060546875,0.34033203125,0.979248046875,-548.2177734375,56.70166015625,-114.92919921875,-13.9892578125,38.14697265625,21.30126953125
15.409,-0.12060546875,0.34033203125,0.979248046875,-548.2177734375,56.70166015625,-114.92919921875,-13.9892578125,38.14697265625,21.30126953125
15.431,-0.12060546875,0.34033203125,0.979248046875,-548.2177734375,56.70166015625,-114.92919921875,-16.05224609375,49.18212890625,16.76025390625
15.432,-0.0269775390625,0.6776123046875,0.681884765625,-553.466796875,74.89013671875,-125.244140625,-16.05224609375,49.18212890625,16.76025390625
15.433,-0.0382080078125,0.96923828125,0.8427734375,-553.466796875,74.89013671875,-125.244140625,-16.05224609375,49.18212890625,16.76025390625
15.477,-0.0382080078125,0.96923828125,0.8427734375,-562.80517578125,84.47265625,-129.69970703125,-23.681640625,56.1767578125,-8.92333984375
15.478,0.2431640625,0.9603271484375,-0.3740234375,-562.80517578125,84.47265625,-129.69970703125,-23.681640625,56.1767578125,-8.92333984375
15.49,0.2431640625,0.9603271484375,-0.3740234375,-562.80517578125,84.47265625,-129.69970703125,-23.681640625,56.1767578125,-8.92333984375
15.495,0.2431640625,0.9603271484375,-0.3740234375,-562.80517578125,84.47265625,-129.69970703125,-23.681640625,56.1767578125,-8.92333984375
15.521,0.2431640625,0.9603271484375,-0.3740234375,-544.7998046875,83.06884765625,-138.0615234375,-23.681640625,56.1767578125,-8.92333984375
15.522,0.1097412109375,0.20751953125,-0.3037109375,-544.7998046875,83.06884765625,-138.0615234375,-24.54833984375,47.05810546875,-20.458984375
15.564,0.1097412109375,0.20751953125,-0.3037109375,-544.7998046875,83.06884765625,-138.0615234375,-24.54833984375,47.05810546875,-20.458984375
15.567,0.1097412109375,0.20751953125,-0.3037109375,-516.4794921875,80.38330078125,-136.65771484375,-24.54833984375,47.05810546875,-20.458984375
15.568,0.326416015625,0.18896484375,-1.0751953125,-516.4794921875,80.38330078125,-136.65771484375,-23.193359375,31.4208984375,-25.8056640625
15.597,0.326416015625,0.18896484375,-1.0751953125,-516.4794921875,80.38330078125,-136.65771484375,-23.193359375,31.4208984375,-25.8056640625
15.612,0.326416015625,0.18896484375,-1.0751953125,-506.89697265625,72.6318359375,-140.2587890625,-23.193359375,31.4208984375,-25.8056640625
15.613,0.2034912109375,-0.3890380859375,-0.78857421875,-506.89697265625,72.6318359375,-140.2587890625,-18.59130859375,15.58837890625,-21.1669921875
15.657,0.2034912109375,-0.3890380859375,-0.78857421875,-501.64794921875,68.29833984375,-144.71435546875,-18.59130859375,15.58837890625,-21.1669921875
15.658,0.0789794921875,-0.666259765625,-0.5535888671875,-505.37109375,60.11962890625,-151.2451171875,-18.59130859375,15.58837890625,-21.1669921875
15.681,0.0789794921875,-0.666259765625,-0.5535888671875,-505.37109375,60.11962890625,-151.2451171875,-18.59130859375,15.58837890625,-21.1669921875
15.701,-0.1448974609375,-1.8626708984375,-0.2882080078125,-505.37109375,60.11962890625,-151.2451171875,-11.767578125,1.4404296875,-6.87255859375
15.702,-0.1448974609375,-1.8626708984375,-0.2882080078125,-514.46533203125,51.513671875,-151.67236328125,-11.767578125,1.4404296875,-6.87255859375
15.746,-0.1448974609375,-1.8626708984375,-0.2882080078125,-514.46533203125,51.513671875,-151.67236328125,-3.89404296875,-3.06396484375,15.24658203125
15.747,-0.159912109375,-0.6680908203125,0.16455078125,-506.28662109375,47.9736328125,-143.310546875,-3.89404296875,-3.06396484375,15.24658203125
15.751,-0.159912109375,-0.6680908203125,0.16455078125,-506.28662109375,47.9736328125,-143.310546875,-3.89404296875,-3.06396484375,15.24658203125
15.791,-0.159912109375,-0.6680908203125,0.16455078125,-506.28662109375,47.9736328125,-143.310546875,-3.89404296875,-3.06396484375,15.24658203125
15.793,-0.159912109375,-0.6680908203125,0.16455078125,-506.28662109375,47.9736328125,-143.310546875,-3.89404296875,-3.06396484375,15.24658203125
15.865,-0.159912109375,-0.6680908203125,0.16455078125,-506.28662109375,47.9736328125,-143.310546875,-3.89404296875,-3.06396484375,15.24658203125
15.882,-0.1553955078125,-0.8048095703125,0.2939453125,-506.28662109375,47.9736328125,-143.310546875,-3.89404296875,-3.06396484375,15.24658203125
15.904,-0.1553955078125,-0.8048095703125,0.2939453125,-506.28662109375,47.9736328125,-143.310546875,-3.89404296875,-3.06396484375,15.24658203125
15.927,-0.1553955078125,-0.8048095703125,0.2939453125,-490.29541015625,45.47119140625,-131.591796875,-3.89404296875,-3.06396484375,15.24658203125
15.928,-0.23583984375,-0.6297607421875,0.5870361328125,-490.29541015625,45.47119140625,-131.591796875,2.60009765625,5.0537109375,35.97412109375
15.972,-0.23583984375,-0.6297607421875,0.5870361328125,-476.806640625,45.654296875,-125.6103515625,-23.71826171875,99.98779296875,13.09814453125
15.973,1.0,1.836669921875,-1.071044921875,-476.806640625,45.654296875,-125.6103515625,-23.71826171875,99.98779296875,13.09814453125
15.979,1.0,1.836669921875,-1.071044921875,-476.806640625,45.654296875,-125.6103515625,-23.71826171875,99.98779296875,13.09814453125
16.012,1.0,1.836669921875,-1.071044921875,-476.806640625,45.654296875,-125.6103515625,-23.71826171875,99.98779296875,13.09814453125
16.016,1.0,1.836669921875,-1.071044921875,-521.78955078125,205.6884765625,-274.658203125,-23.71826171875,99.98779296875,13.09814453125
16.017,0.8099365234375,1.6470947265625,-0.578125,-521.78955078125,205.6884765625,-274.658203125,-41.76025390625,99.951171875,-16.41845703125
