elapsed_time,ax,ay,az,gx,gy,gz,mx,my,mz
0.0,-0.691162109375,-0.1348876953125,-0.4674072265625,-27.28271484375,-18.37158203125,-15.44189453125,-3.84521484375,10.9375,0.8544921875
0.001,-0.691162109375,-0.1348876953125,-0.4674072265625,-28.13720703125,-31.55517578125,-25.93994140625,-3.40576171875,10.5224609375,1.9287109375
0.02,-0.691162109375,-0.1348876953125,-0.4674072265625,-28.13720703125,-31.55517578125,-25.93994140625,-3.40576171875,10.5224609375,1.9287109375
0.046,-0.63623046875,-0.17919921875,-0.4691162109375,-22.3388671875,-36.19384765625,-14.0380859375,-3.40576171875,10.5224609375,1.9287109375
0.048,-0.8135986328125,-0.239013671875,-0.56396484375,-22.3388671875,-36.19384765625,-14.0380859375,-3.40576171875,10.5224609375,1.9287109375
0.054,-0.8135986328125,-0.239013671875,-0.56396484375,-22.3388671875,-36.19384765625,-14.0380859375,-3.40576171875,10.5224609375,1.9287109375
0.091,-0.8135986328125,-0.239013671875,-0.56396484375,-11.77978515625,-36.865234375,-2.01416015625,-4.01611328125,10.302734375,2.5634765625
0.092,-0.996826171875,-0.068115234375,-0.404052734375,-11.77978515625,-36.865234375,-2.01416015625,-4.01611328125,10.302734375,2.5634765625
0.129,-0.996826171875,-0.068115234375,-0.404052734375,-11.77978515625,-36.865234375,-2.01416015625,-4.01611328125,10.302734375,2.5634765625
0.132,-0.996826171875,-0.068115234375,-0.404052734375,-11.77978515625,-36.865234375,-2.01416015625,-4.01611328125,10.302734375,2.5634765625
0.181,-1.2454833984375,-0.2296142578125,-0.410400390625,0.9765625,-0.48828125,-3.5400390625,-3.955078125,10.04638671875,2.8076171875
0.207,-1.2454833984375,-0.2296142578125,-0.410400390625,0.9765625,-0.48828125,-3.5400390625,-3.955078125,10.04638671875,2.8076171875
0.226,-1.2454833984375,-0.2296142578125,-0.410400390625,12.87841796875,42.78564453125,-6.591796875,-4.35791015625,10.70556640625,2.05078125
0.228,-1.26904296875,-0.135498046875,-0.1201171875,43.88427734375,59.38720703125,-1.8310546875,-4.35791015625,10.70556640625,2.05078125
0.242,-1.26904296875,-0.135498046875,-0.1201171875,43.88427734375,59.38720703125,-1.8310546875,-4.35791015625,10.70556640625,2.05078125
0.271,-1.086181640625,-0.1990966796875,-0.1005859375,43.88427734375,59.38720703125,-1.8310546875,-3.99169921875,10.75439453125,2.1240234375
0.272,-1.086181640625,-0.1990966796875,-0.1005859375,41.3818359375,50.47607421875,-20.44677734375,-3.99169921875,10.75439453125,2.1240234375
0.315,-1.086181640625,-0.1990966796875,-0.1005859375,41.3818359375,50.47607421875,-20.44677734375,-3.7109375,10.6689453125,1.81884765625
0.316,-0.974609375,-0.2811279296875,-0.03125,41.3818359375,50.47607421875,-20.44677734375,-3.7109375,10.6689453125,1.81884765625
0.318,-0.974609375,-0.2811279296875,-0.03125,38.818359375,28.25927734375,-12.8173828125,-3.7109375,10.6689453125,1.81884765625
0.321,-0.974609375,-0.2811279296875,-0.03125,38.818359375,28.25927734375,-12.8173828125,-3.7109375,10.6689453125,1.81884765625
0.354,-0.974609375,-0.2811279296875,-0.03125,38.818359375,28.25927734375,-12.8173828125,-3.7109375,10.6689453125,1.81884765625
0.361,-0.974609375,-0.2811279296875,-0.03125,38.818359375,28.25927734375,-12.8173828125,-3.0517578125,11.474609375,0.6591796875
0.406,-1.0078125,0.0330810546875,0.18115234375,34.0576171875,31.3720703125,-14.46533203125,-2.13623046875,11.21826171875,0.62255859375
0.429,-1.0078125,0.0330810546875,0.18115234375,34.0576171875,31.3720703125,-14.46533203125,-2.13623046875,11.21826171875,0.62255859375
0.433,-1.0078125,0.0330810546875,0.18115234375,34.0576171875,31.3720703125,-14.46533203125,-2.13623046875,11.21826171875,0.62255859375
0.451,-0.8463134765625,-0.3115234375,0.0762939453125,34.0576171875,31.3720703125,-14.46533203125,-2.13623046875,11.21826171875,0.62255859375
0.452,-0.8463134765625,-0.3115234375,0.0762939453125,8.72802734375,72.44873046875,38.6962890625,-0.1220703125,12.70751953125,-0.048828125
0.496,-1.08935546875,-0.3734130859375,0.3370361328125,-24.35302734375,38.4521484375,-11.41357421875,-0.1220703125,12.70751953125,-0.048828125
0.499,-1.08935546875,-0.3734130859375,0.3370361328125,-24.35302734375,38.4521484375,-11.41357421875,0.537109375,11.97509765625,0.0
0.508,-1.08935546875,-0.3734130859375,0.3370361328125,-24.35302734375,38.4521484375,-11.41357421875,0.537109375,11.97509765625,0.0
0.541,-1.157958984375,0.3009033203125,-0.18017578125,17.63916015625,53.466796875,8.72802734375,1.64794921875,12.12158203125,-0.15869140625
0.585,-0.8714599609375,-0.1868896484375,0.0003662109375,17.63916015625,53.466796875,8.72802734375,1.64794921875,12.12158203125,-0.15869140625
0.586,-0.8714599609375,-0.1868896484375,0.0003662109375,20.6298828125,10.498046875,7.2021484375,2.7099609375,12.40234375,-0.32958984375
0.62,-0.8714599609375,-0.1868896484375,0.0003662109375,20.6298828125,10.498046875,7.2021484375,2.7099609375,12.40234375,-0.32958984375
0.632,-1.16796875,-0.0330810546875,-0.0753173828125,25.7568359375,16.41845703125,-2.3193359375,2.7099609375,12.40234375,-0.32958984375
0.633,-1.16796875,-0.0330810546875,-0.0753173828125,25.7568359375,16.41845703125,-2.3193359375,3.45458984375,12.890625,-0.57373046875
0.654,-1.16796875,-0.0330810546875,-0.0753173828125,25.7568359375,16.41845703125,-2.3193359375,3.45458984375,12.890625,-0.57373046875
0.676,-0.8466796875,-0.21435546875,0.2039794921875,34.97314453125,4.150390625,-0.732421875,3.28369140625,12.841796875,-2.74658203125
0.72,-1.160400390625,0.115966796875,-0.216796875,34.97314453125,4.150390625,-0.732421875,3.28369140625,12.841796875,-2.74658203125
0.721,-1.160400390625,0.115966796875,-0.216796875,13.24462890625,-16.78466796875,-25.87890625,4.01611328125,13.14697265625,-2.64892578125
0.733,-1.160400390625,0.115966796875,-0.216796875,13.24462890625,-16.78466796875,-25.87890625,4.01611328125,13.14697265625,-2.64892578125
0.766,-1.160400390625,0.115966796875,-0.216796875,13.24462890625,-16.78466796875,-25.87890625,4.01611328125,13.14697265625,-2.64892578125
0.767,-1.0328369140625,0.1112060546875,0.28955078125,12.5732421875,42.3583984375,-26.18408203125,4.01611328125,13.14697265625,-2.64892578125
0.768,-0.9503173828125,-0.3582763671875,-0.119140625,12.5732421875,42.3583984375,-26.18408203125,4.01611328125,13.14697265625,-2.64892578125
0.808,-0.9503173828125,-0.3582763671875,-0.119140625,12.5732421875,42.3583984375,-26.18408203125,4.01611328125,13.14697265625,-2.64892578125
0.811,-1.025634765625,0.07275390625,-0.0318603515625,16.845703125,47.607421875,-18.37158203125,5.908203125,12.9638671875,-2.57568359375
0.842,-1.025634765625,0.07275390625,-0.0318603515625,16.845703125,47.607421875,-18.37158203125,5.908203125,12.9638671875,-2.57568359375
0.855,-1.025634765625,0.07275390625,-0.0318603515625,24.4140625,2.3193359375,6.53076171875,5.908203125,12.9638671875,-2.57568359375
0.856,-0.8043212890625,0.146728515625,0.0814208984375,24.4140625,2.3193359375,6.53076171875,6.298828125,13.31787109375,-2.978515625
0.917,-0.8043212890625,0.146728515625,0.0814208984375,18.73779296875,13.00048828125,11.8408203125,6.298828125,13.31787109375,-2.978515625
0.918,-0.826416015625,0.16259765625,0.09033203125,18.73779296875,13.00048828125,11.8408203125,6.75048828125,13.83056640625,-3.0517578125
0.92,-0.826416015625,0.16259765625,0.09033203125,18.73779296875,13.00048828125,11.8408203125,6.75048828125,13.83056640625,-3.0517578125
0.946,-0.965576171875,0.021728515625,-0.05078125,2.685546875,41.68701171875,-42.96875,8.33740234375,14.56298828125,-2.91748046875
0.991,-0.87158203125,0.088623046875,0.0880126953125,11.90185546875,6.53076171875,-23.37646484375,9.04541015625,14.78271484375,-3.3935546875
0.992,-0.87158203125,0.088623046875,0.0880126953125,11.90185546875,6.53076171875,-23.37646484375,9.04541015625,14.78271484375,-3.3935546875
1.029,-0.87158203125,0.088623046875,0.0880126953125,11.90185546875,6.53076171875,-23.37646484375,9.04541015625,14.78271484375,-3.3935546875
1.033,-0.87158203125,0.088623046875,0.0880126953125,11.90185546875,6.53076171875,-23.37646484375,9.04541015625,14.78271484375,-3.3935546875
1.037,-0.87158203125,0.088623046875,0.0880126953125,25.20751953125,-34.1796875,12.26806640625,9.04541015625,14.78271484375,-3.3935546875
1.038,-0.865234375,0.1715087890625,0.037109375,25.20751953125,-34.1796875,12.26806640625,9.1552734375,15.0390625,-4.345703125
1.081,-0.8427734375,0.1673583984375,0.035888671875,23.74267578125,-18.5546875,2.74658203125,9.55810546875,15.56396484375,-4.6630859375
1.108,-0.8427734375,0.1673583984375,0.035888671875,23.74267578125,-18.5546875,2.74658203125,9.55810546875,15.56396484375,-4.6630859375
1.126,-0.910888671875,0.093505859375,0.156982421875,2.38037109375,-11.77978515625,-13.3056640625,9.55810546875,15.56396484375,-4.6630859375
1.127,-0.910888671875,0.093505859375,0.156982421875,-8.72802734375,-13.671875,-27.40478515625,9.55810546875,15.56396484375,-4.6630859375
1.142,-0.910888671875,0.093505859375,0.156982421875,-8.72802734375,-13.671875,-27.40478515625,9.55810546875,15.56396484375,-4.6630859375
1.17,-0.910888671875,0.093505859375,0.156982421875,-8.72802734375,-13.671875,-27.40478515625,11.82861328125,14.75830078125,-5.92041015625
1.171,-0.9500732421875,0.001953125,0.1573486328125,-8.72802734375,-13.671875,-27.40478515625,11.82861328125,14.75830078125,-5.92041015625
1.172,-0.9500732421875,0.001953125,0.1573486328125,7.080078125,-4.5166015625,-13.48876953125,11.82861328125,14.75830078125,-5.92041015625
1.216,-0.9254150390625,-0.0203857421875,0.1434326171875,1.3427734375,-0.732421875,14.7705078125,11.82861328125,14.75830078125,-5.92041015625
1.217,-0.9254150390625,-0.0203857421875,0.1434326171875,1.3427734375,-0.732421875,14.7705078125,11.97509765625,15.66162109375,-5.28564453125
1.221,-0.9254150390625,-0.0203857421875,0.1434326171875,1.3427734375,-0.732421875,14.7705078125,11.97509765625,15.66162109375,-5.28564453125
1.254,-0.9254150390625,-0.0203857421875,0.1434326171875,1.3427734375,-0.732421875,14.7705078125,11.97509765625,15.66162109375,-5.28564453125
1.261,-0.82470703125,0.0330810546875,0.066162109375,4.57763671875,-21.1181640625,-2.86865234375,11.97509765625,15.66162109375,-5.28564453125
1.262,-0.82470703125,0.0330810546875,0.066162109375,4.57763671875,-21.1181640625,-2.86865234375,13.4521484375,15.02685546875,-5.35888671875
1.306,-0.81396484375,-0.005859375,0.1162109375,4.57763671875,-21.1181640625,-2.86865234375,13.4521484375,15.02685546875,-5.35888671875
1.307,-0.81396484375,-0.005859375,0.1162109375,0.79345703125,-7.26318359375,-6.7138671875,13.4521484375,15.02685546875,-5.35888671875
1.308,-0.81396484375,-0.005859375,0.1162109375,0.79345703125,-7.26318359375,-6.7138671875,13.3056640625,15.71044921875,-5.517578125
1.329,-0.81396484375,-0.005859375,0.1162109375,0.79345703125,-7.26318359375,-6.7138671875,13.3056640625,15.71044921875,-5.517578125
1.332,-0.81396484375,-0.005859375,0.1162109375,0.79345703125,-7.26318359375,-6.7138671875,13.3056640625,15.71044921875,-5.517578125
1.351,-0.7772216796875,-0.095458984375,0.0458984375,0.79345703125,-7.26318359375,-6.7138671875,13.3056640625,15.71044921875,-5.517578125
1.352,-0.7772216796875,-0.095458984375,0.0458984375,0.91552734375,-16.357421875,-5.67626953125,15.68603515625,15.41748046875,-5.3466796875
1.396,-0.955078125,0.0350341796875,-0.2618408203125,-4.150390625,-40.1611328125,-6.40869140625,16.7236328125,15.80810546875,-6.38427734375
1.407,-0.955078125,0.0350341796875,-0.2618408203125,-4.150390625,-40.1611328125,-6.40869140625,16.7236328125,15.80810546875,-6.38427734375
1.441,-0.883056640625,-0.043212890625,-0.0936279296875,4.7607421875,-25.32958984375,8.30078125,17.71240234375,14.94140625,-7.2021484375
1.485,-0.9295654296875,0.123291015625,-0.2518310546875,4.7607421875,-25.32958984375,8.30078125,17.71240234375,14.94140625,-7.2021484375
1.486,-0.91357421875,0.0057373046875,-0.226806640625,-12.8173828125,-14.2822265625,-12.6953125,17.71240234375,14.94140625,-7.2021484375
1.52,-0.91357421875,0.0057373046875,-0.226806640625,-12.8173828125,-14.2822265625,-12.6953125,17.71240234375,14.94140625,-7.2021484375
1.531,-0.91357421875,0.0057373046875,-0.226806640625,-14.5263671875,-9.82666015625,-9.6435546875,17.71240234375,14.94140625,-7.2021484375
1.532,-0.91357421875,0.0057373046875,-0.226806640625,-14.5263671875,-9.82666015625,-9.6435546875,18.51806640625,14.34326171875,-8.1298828125
1.533,-0.8043212890625,0.0645751953125,-0.2506103515625,-14.5263671875,-9.82666015625,-9.6435546875,18.51806640625,14.34326171875,-8.1298828125
1.555,-0.8043212890625,0.0645751953125,-0.2506103515625,-14.5263671875,-9.82666015625,-9.6435546875,18.51806640625,14.34326171875,-8.1298828125
1.576,-0.8043212890625,0.0645751953125,-0.2506103515625,6.2255859375,-3.90625,-2.74658203125,18.51806640625,14.34326171875,-8.1298828125
1.577,-0.8043212890625,0.0645751953125,-0.2506103515625,6.2255859375,-3.90625,-2.74658203125,21.3134765625,14.5263671875,-8.99658203125
1.578,-0.9456787109375,0.083251953125,-0.574462890625,6.2255859375,-3.90625,-2.74658203125,21.3134765625,14.5263671875,-8.99658203125
1.621,-0.994873046875,0.009033203125,-0.568115234375,20.93505859375,-48.4619140625,-1.03759765625,21.76513671875,13.43994140625,-10.11962890625
1.633,-0.994873046875,0.009033203125,-0.568115234375,20.93505859375,-48.4619140625,-1.03759765625,21.76513671875,13.43994140625,-10.11962890625
1.666,-0.994873046875,0.009033203125,-0.568115234375,14.404296875,-96.98486328125,21.3623046875,21.0205078125,12.12158203125,-12.78076171875
1.667,-0.97021484375,0.0294189453125,-0.5687255859375,14.404296875,-96.98486328125,21.3623046875,21.0205078125,12.12158203125,-12.78076171875
1.707,-0.97021484375,0.0294189453125,-0.5687255859375,14.404296875,-96.98486328125,21.3623046875,21.0205078125,12.12158203125,-12.78076171875
1.711,-0.97021484375,0.0294189453125,-0.5687255859375,27.9541015625,-125.3662109375,48.40087890625,17.29736328125,11.3525390625,-16.845703125
1.712,-0.9000244140625,0.0340576171875,-0.5213623046875,27.9541015625,-125.3662109375,48.40087890625,17.29736328125,11.3525390625,-16.845703125
1.756,-0.9000244140625,0.0340576171875,-0.5213623046875,65.85693359375,-160.0341796875,53.52783203125,12.31689453125,10.9619140625,-21.6796875
1.757,-0.9415283203125,0.027099609375,-0.6214599609375,65.85693359375,-160.0341796875,53.52783203125,12.31689453125,10.9619140625,-21.6796875
1.8,-0.9415283203125,0.027099609375,-0.6214599609375,41.80908203125,-140.07568359375,67.626953125,12.31689453125,10.9619140625,-21.6796875
1.801,-0.9415283203125,0.027099609375,-0.6214599609375,41.80908203125,-140.07568359375,67.626953125,6.2255859375,10.5224609375,-25.87890625
1.802,-0.818603515625,0.1151123046875,-0.50830078125,41.80908203125,-140.07568359375,67.626953125,6.2255859375,10.5224609375,-25.87890625
1.816,-0.818603515625,0.1151123046875,-0.50830078125,41.80908203125,-140.07568359375,67.626953125,6.2255859375,10.5224609375,-25.87890625
1.82,-0.818603515625,0.1151123046875,-0.50830078125,41.80908203125,-140.07568359375,67.626953125,6.2255859375,10.5224609375,-25.87890625
1.846,-0.7567138671875,0.2066650390625,-0.6292724609375,43.51806640625,-133.97216796875,81.1767578125,6.2255859375,10.5224609375,-25.87890625
1.847,-0.7567138671875,0.2066650390625,-0.6292724609375,62.6220703125,-104.06494140625,90.88134765625,6.2255859375,10.5224609375,-25.87890625
1.891,-0.6961669921875,0.2423095703125,-0.99365234375,48.4619140625,-57.4951171875,76.0498046875,1.0009765625,10.009765625,-28.5400390625
1.93,-0.6961669921875,0.2423095703125,-0.99365234375,48.4619140625,-57.4951171875,76.0498046875,1.0009765625,10.009765625,-28.5400390625
1.933,-0.6961669921875,0.2423095703125,-0.99365234375,48.4619140625,-57.4951171875,76.0498046875,1.0009765625,10.009765625,-28.5400390625
1.976,-0.701904296875,0.2342529296875,-0.9830322265625,48.4619140625,-57.4951171875,76.0498046875,1.0009765625,10.009765625,-28.5400390625
1.977,-0.701904296875,0.2342529296875,-0.9830322265625,58.59375,-86.181640625,62.1337890625,-2.64892578125,10.77880859375,-30.16357421875
1.981,-0.600341796875,-0.0013427734375,-0.9365234375,32.3486328125,-66.83349609375,75.5615234375,-2.64892578125,10.77880859375,-30.16357421875
1.982,-0.600341796875,-0.0013427734375,-0.9365234375,32.3486328125,-66.83349609375,75.5615234375,-7.67822265625,11.669921875,-33.14208984375
2.004,-0.600341796875,-0.0013427734375,-0.9365234375,32.3486328125,-66.83349609375,75.5615234375,-7.67822265625,11.669921875,-33.14208984375
2.007,-0.600341796875,-0.0013427734375,-0.9365234375,32.3486328125,-66.83349609375,75.5615234375,-7.67822265625,11.669921875,-33.14208984375
2.026,-0.442626953125,0.052001953125,-0.9822998046875,32.3486328125,-66.83349609375,75.5615234375,-7.67822265625,11.669921875,-33.14208984375
2.041,-0.442626953125,0.052001953125,-0.9822998046875,32.3486328125,-66.83349609375,75.5615234375,-7.67822265625,11.669921875,-33.14208984375
2.071,-0.442626953125,0.052001953125,-0.9822998046875,1.64794921875,-47.9736328125,43.3349609375,-7.67822265625,11.669921875,-33.14208984375
2.072,-0.5380859375,0.0,-0.9810791015625,21.66748046875,-3.5400390625,81.84814453125,-12.53662109375,11.80419921875,-34.4970703125
2.115,-0.5380859375,0.0,-0.9810791015625,21.66748046875,-3.5400390625,81.84814453125,-16.1376953125,11.48681640625,-34.87548828125
2.12,-0.5380859375,0.0,-0.9810791015625,21.66748046875,-3.5400390625,81.84814453125,-16.1376953125,11.48681640625,-34.87548828125
2.154,-0.5380859375,0.0,-0.9810791015625,21.66748046875,-3.5400390625,81.84814453125,-16.1376953125,11.48681640625,-34.87548828125
2.161,-0.383056640625,0.086669921875,-1.281494140625,14.0380859375,-11.65771484375,68.603515625,-16.1376953125,11.48681640625,-34.87548828125
2.162,-0.5689697265625,0.030517578125,-1.31982421875,14.0380859375,-11.65771484375,68.603515625,-17.67578125,11.9140625,-36.36474609375
2.205,-0.5689697265625,0.030517578125,-1.31982421875,19.1650390625,-35.64453125,36.07177734375,-17.67578125,11.9140625,-36.36474609375
2.206,-0.4180908203125,0.0111083984375,-1.203125,19.1650390625,-35.64453125,36.07177734375,-19.9951171875,12.09716796875,-37.40234375
2.232,-0.4180908203125,0.0111083984375,-1.203125,19.1650390625,-35.64453125,36.07177734375,-19.9951171875,12.09716796875,-37.40234375
2.251,-0.4180908203125,0.0111083984375,-1.203125,53.16162109375,-20.08056640625,30.21240234375,-19.9951171875,12.09716796875,-37.40234375
2.252,-0.42822265625,-0.00244140625,-1.1083984375,53.16162109375,-20.08056640625,30.21240234375,-22.6318359375,13.916015625,-37.939453125
2.267,-0.42822265625,-0.00244140625,-1.1083984375,53.16162109375,-20.08056640625,30.21240234375,-22.6318359375,13.916015625,-37.939453125
2.307,-0.42822265625,-0.00244140625,-1.1083984375,53.16162109375,-20.08056640625,30.21240234375,-22.6318359375,13.916015625,-37.939453125
2.341,-0.42822265625,-0.00244140625,-1.1083984375,31.494140625,-13.12255859375,38.51318359375,-24.658203125,14.88037109375,-38.12255859375
2.342,-0.34521484375,0.0537109375,-1.03271484375,31.494140625,-13.12255859375,38.51318359375,-24.658203125,14.88037109375,-38.12255859375
2.343,-0.34521484375,0.0537109375,-1.03271484375,17.7001953125,-17.76123046875,33.935546875,-24.658203125,14.88037109375,-38.12255859375
2.386,-0.41796875,0.099365234375,-1.1324462890625,17.7001953125,-17.76123046875,33.935546875,-26.74560546875,16.6259765625,-39.697265625
2.387,-0.41796875,0.099365234375,-1.1324462890625,19.53125,-19.22607421875,-1.15966796875,-26.74560546875,16.6259765625,-39.697265625
2.42,-0.41796875,0.099365234375,-1.1324462890625,19.53125,-19.22607421875,-1.15966796875,-26.74560546875,16.6259765625,-39.697265625
2.431,-0.41796875,0.099365234375,-1.1324462890625,19.53125,-19.22607421875,-1.15966796875,-27.23388671875,18.07861328125,-39.9169921875
2.432,-0.3411865234375,0.070556640625,-1.06396484375,20.5078125,-14.0380859375,1.708984375,-27.23388671875,18.07861328125,-39.9169921875
2.476,-0.2735595703125,0.1788330078125,-1.0025634765625,20.5078125,-14.0380859375,1.708984375,-28.47900390625,19.140625,-38.4033203125
2.477,-0.2735595703125,0.1788330078125,-1.0025634765625,10.3759765625,-9.94873046875,3.7841796875,-28.47900390625,19.140625,-38.4033203125
2.492,-0.2735595703125,0.1788330078125,-1.0025634765625,10.3759765625,-9.94873046875,3.7841796875,-28.47900390625,19.140625,-38.4033203125
2.52,-0.2735595703125,0.1788330078125,-1.0025634765625,10.3759765625,-9.94873046875,3.7841796875,-28.857421875,19.98291015625,-39.4775390625
2.521,-0.356689453125,-0.00146484375,-1.0042724609375,10.3759765625,-9.94873046875,3.7841796875,-28.857421875,19.98291015625,-39.4775390625
2.529,-0.356689453125,-0.00146484375,-1.0042724609375,10.3759765625,-9.94873046875,3.7841796875,-28.857421875,19.98291015625,-39.4775390625
2.532,-0.356689453125,-0.00146484375,-1.0042724609375,10.3759765625,-9.94873046875,3.7841796875,-28.857421875,19.98291015625,-39.4775390625
2.566,-0.356689453125,-0.00146484375,-1.0042724609375,1.8310546875,-3.41796875,7.4462890625,-28.857421875,19.98291015625,-39.4775390625
2.607,-0.356689453125,-0.00146484375,-1.0042724609375,1.8310546875,-3.41796875,7.4462890625,-28.857421875,19.98291015625,-39.4775390625
2.611,-0.31884765625,0.0189208984375,-1.036865234375,1.8310546875,-3.41796875,7.4462890625,-29.77294921875,20.5078125,-37.75634765625
2.612,-0.31884765625,0.0189208984375,-1.036865234375,8.30078125,-2.44140625,4.57763671875,-29.77294921875,20.5078125,-37.75634765625
2.656,-0.2847900390625,0.0364990234375,-0.9969482421875,8.30078125,-2.44140625,4.57763671875,-29.443359375,20.66650390625,-39.599609375
2.716,-0.2847900390625,0.0364990234375,-0.9969482421875,8.30078125,-2.44140625,4.57763671875,-29.443359375,20.66650390625,-39.599609375
2.72,-0.2847900390625,0.0364990234375,-0.9969482421875,8.30078125,-2.44140625,4.57763671875,-29.443359375,20.66650390625,-39.599609375
2.79,-0.2847900390625,0.0364990234375,-0.9969482421875,-1.46484375,16.41845703125,-10.498046875,-29.443359375,20.66650390625,-39.599609375
2.791,-0.2847900390625,0.0364990234375,-0.9969482421875,-1.46484375,16.41845703125,-10.498046875,-30.0537109375,20.64208984375,-38.12255859375
2.829,-0.2847900390625,0.0364990234375,-0.9969482421875,-1.46484375,16.41845703125,-10.498046875,-30.0537109375,20.64208984375,-38.12255859375
2.83,-0.2847900390625,0.0364990234375,-0.9969482421875,-1.46484375,16.41845703125,-10.498046875,-30.0537109375,20.64208984375,-38.12255859375
2.832,-0.2847900390625,0.0364990234375,-0.9969482421875,-1.46484375,16.41845703125,-10.498046875,-30.0537109375,20.64208984375,-38.12255859375
2.836,-0.371337890625,0.058349609375,-1.000244140625,-0.8544921875,13.24462890625,-15.93017578125,-30.0537109375,20.64208984375,-38.12255859375
2.837,-0.371337890625,0.058349609375,-1.000244140625,-0.8544921875,13.24462890625,-15.93017578125,-29.13818359375,19.921875,-38.6474609375
2.838,-0.371826171875,0.091796875,-0.948486328125,-0.8544921875,13.24462890625,-15.93017578125,-29.13818359375,19.921875,-38.6474609375
2.881,-0.369140625,0.0938720703125,-0.9527587890625,10.80322265625,9.3994140625,3.23486328125,-26.806640625,20.8984375,-40.17333984375
2.908,-0.369140625,0.0938720703125,-0.9527587890625,10.80322265625,9.3994140625,3.23486328125,-26.806640625,20.8984375,-40.17333984375
2.926,-0.3712158203125,0.1011962890625,-0.944091796875,8.1787109375,9.033203125,-4.69970703125,-26.806640625,20.8984375,-40.17333984375
2.927,-0.3712158203125,0.1011962890625,-0.944091796875,9.09423828125,8.72802734375,-3.96728515625,-26.806640625,20.8984375,-40.17333984375
2.942,-0.3712158203125,0.1011962890625,-0.944091796875,9.09423828125,8.72802734375,-3.96728515625,-26.806640625,20.8984375,-40.17333984375
2.971,-0.3770751953125,0.1151123046875,-0.93701171875,9.09423828125,8.72802734375,-3.96728515625,-26.318359375,20.4345703125,-40.27099609375
2.973,-0.3770751953125,0.1151123046875,-0.93701171875,10.80322265625,7.14111328125,0.67138671875,-26.318359375,20.4345703125,-40.27099609375
3.02,-0.3770751953125,0.1151123046875,-0.93701171875,10.80322265625,7.14111328125,0.67138671875,-26.318359375,20.4345703125,-40.27099609375
3.054,-0.3770751953125,0.1151123046875,-0.93701171875,10.80322265625,7.14111328125,0.67138671875,-26.318359375,20.4345703125,-40.27099609375
3.061,-0.37841796875,0.1170654296875,-0.93896484375,10.31494140625,6.04248046875,2.3193359375,-26.40380859375,21.42333984375,-39.70947265625
3.062,-0.38232421875,0.1307373046875,-0.9371337890625,10.31494140625,6.04248046875,2.3193359375,-26.40380859375,21.42333984375,-39.70947265625
3.129,-0.38232421875,0.1307373046875,-0.9371337890625,10.31494140625,6.04248046875,2.3193359375,-26.40380859375,21.42333984375,-39.70947265625
3.133,-0.38232421875,0.1307373046875,-0.9371337890625,10.31494140625,6.04248046875,2.3193359375,-26.40380859375,21.42333984375,-39.70947265625
3.151,-0.3907470703125,0.1424560546875,-0.93359375,7.4462890625,5.67626953125,-1.0986328125,-25.6591796875,22.32666015625,-41.27197265625
3.153,-0.3907470703125,0.1424560546875,-0.93359375,5.06591796875,4.8828125,-1.708984375,-25.6591796875,22.32666015625,-41.27197265625
3.196,-0.3929443359375,0.1507568359375,-0.9334716796875,5.06591796875,4.8828125,-1.708984375,-24.84130859375,22.42431640625,-41.07666015625
3.198,-0.3929443359375,0.1507568359375,-0.9334716796875,3.5400390625,2.01416015625,2.99072265625,-24.84130859375,22.42431640625,-41.07666015625
3.208,-0.3929443359375,0.1507568359375,-0.9334716796875,3.5400390625,2.01416015625,2.99072265625,-24.84130859375,22.42431640625,-41.07666015625
3.241,-0.39404296875,0.152099609375,-0.931396484375,1.3427734375,1.52587890625,2.197265625,-24.71923828125,23.5595703125,-40.91796875
3.286,-0.393310546875,0.1512451171875,-0.9312744140625,-0.48828125,1.15966796875,0.9765625,-25.341796875,22.98583984375,-40.4052734375
3.32,-0.393310546875,0.1512451171875,-0.9312744140625,-0.48828125,1.15966796875,0.9765625,-25.341796875,22.98583984375,-40.4052734375
3.331,-0.3922119140625,0.1444091796875,-0.93359375,-0.48828125,1.15966796875,0.9765625,-24.853515625,22.59521484375,-40.63720703125
3.332,-0.3922119140625,0.1444091796875,-0.93359375,-1.5869140625,0.54931640625,1.953125,-24.853515625,22.59521484375,-40.63720703125
3.354,-0.3922119140625,0.1444091796875,-0.93359375,-1.5869140625,0.54931640625,1.953125,-24.853515625,22.59521484375,-40.63720703125
3.375,-0.3929443359375,0.1455078125,-0.93408203125,-1.5869140625,0.54931640625,1.953125,-24.853515625,22.59521484375,-40.63720703125
3.376,-0.3929443359375,0.1455078125,-0.93408203125,-1.64794921875,0.0,3.35693359375,-24.81689453125,22.0947265625,-39.70947265625
3.42,-0.3900146484375,0.1407470703125,-0.933837890625,-1.64794921875,0.0,3.35693359375,-24.81689453125,22.0947265625,-39.70947265625
3.421,-0.3900146484375,0.1407470703125,-0.933837890625,-2.38037109375,-0.18310546875,3.35693359375,-25.29296875,22.35107421875,-39.9169921875
3.433,-0.3900146484375,0.1407470703125,-0.933837890625,-2.38037109375,-0.18310546875,3.35693359375,-25.29296875,22.35107421875,-39.9169921875
3.466,-0.3876953125,0.13525390625,-0.93505859375,-2.74658203125,0.1220703125,2.38037109375,-25.29296875,22.35107421875,-39.9169921875
3.467,-0.3876953125,0.13525390625,-0.93505859375,-2.74658203125,0.1220703125,2.38037109375,-25.4150390625,21.9970703125,-40.97900390625
3.508,-0.3876953125,0.13525390625,-0.93505859375,-2.74658203125,0.1220703125,2.38037109375,-25.4150390625,21.9970703125,-40.97900390625
3.511,-0.385009765625,0.12939453125,-0.9366455078125,-2.8076171875,0.18310546875,2.44140625,-25.732421875,22.0458984375,-39.80712890625
3.542,-0.385009765625,0.12939453125,-0.9366455078125,-2.8076171875,0.18310546875,2.44140625,-25.732421875,22.0458984375,-39.80712890625
3.555,-0.3848876953125,0.1251220703125,-0.9400634765625,-2.8076171875,0.18310546875,2.44140625,-25.732421875,22.0458984375,-39.80712890625
3.556,-0.3848876953125,0.1251220703125,-0.9400634765625,-2.01416015625,0.6103515625,3.173828125,-25.6591796875,21.2646484375,-40.6005859375
3.62,-0.3848876953125,0.1251220703125,-0.9400634765625,-2.01416015625,0.6103515625,3.173828125,-25.6591796875,21.2646484375,-40.6005859375
3.645,-0.3829345703125,0.12060546875,-0.9395751953125,-2.01416015625,0.6103515625,3.173828125,-25.6591796875,21.2646484375,-40.6005859375
3.646,-0.3829345703125,0.12060546875,-0.9395751953125,-1.46484375,0.8544921875,2.99072265625,-25.6591796875,21.2646484375,-40.6005859375
3.647,-0.38232421875,0.11669921875,-0.9403076171875,-1.46484375,0.8544921875,2.99072265625,-25.81787109375,21.7041015625,-40.4052734375
3.654,-0.38232421875,0.11669921875,-0.9403076171875,-1.46484375,0.8544921875,2.99072265625,-25.81787109375,21.7041015625,-40.4052734375
3.691,-0.3839111328125,0.1131591796875,-0.940185546875,-0.9765625,1.40380859375,2.197265625,-25.76904296875,21.5576171875,-41.11328125
3.729,-0.3839111328125,0.1131591796875,-0.940185546875,-0.9765625,1.40380859375,2.197265625,-25.76904296875,21.5576171875,-41.11328125
3.732,-0.3839111328125,0.1131591796875,-0.940185546875,-0.9765625,1.40380859375,2.197265625,-25.76904296875,21.5576171875,-41.11328125
3.735,-0.3839111328125,0.1131591796875,-0.940185546875,-0.1220703125,2.25830078125,2.13623046875,-25.76904296875,21.5576171875,-41.11328125
3.781,-0.3865966796875,0.114501953125,-0.9417724609375,1.40380859375,2.8076171875,2.197265625,-24.98779296875,21.6796875,-40.36865234375
3.808,-0.3865966796875,0.114501953125,-0.9417724609375,1.40380859375,2.8076171875,2.197265625,-24.98779296875,21.6796875,-40.36865234375
3.827,-0.3896484375,0.1175537109375,-0.9371337890625,1.40380859375,2.8076171875,2.197265625,-25.2685546875,21.35009765625,-40.087890625
3.828,-0.3896484375,0.1175537109375,-0.9371337890625,2.01416015625,3.72314453125,1.5869140625,-25.2685546875,21.35009765625,-40.087890625
3.842,-0.3896484375,0.1175537109375,-0.9371337890625,2.01416015625,3.72314453125,1.5869140625,-25.2685546875,21.35009765625,-40.087890625
3.872,-0.394287109375,0.1175537109375,-0.9364013671875,2.3193359375,4.150390625,1.46484375,-25.9521484375,21.4599609375,-40.24658203125
3.916,-0.395751953125,0.1197509765625,-0.936279296875,2.62451171875,4.150390625,1.77001953125,-25.830078125,21.2158203125,-40.44189453125
3.92,-0.395751953125,0.1197509765625,-0.936279296875,2.62451171875,4.150390625,1.77001953125,-25.830078125,21.2158203125,-40.44189453125
3.954,-0.395751953125,0.1197509765625,-0.936279296875,2.62451171875,4.150390625,1.77001953125,-25.830078125,21.2158203125,-40.44189453125
4.007,-0.395751953125,0.1197509765625,-0.936279296875,2.62451171875,4.150390625,1.77001953125,-25.35400390625,21.4111328125,-39.90478515625
4.008,-0.399169921875,0.1231689453125,-0.9317626953125,2.50244140625,4.150390625,1.708984375,-25.20751953125,22.0947265625,-40.44189453125
4.029,-0.399169921875,0.1231689453125,-0.9317626953125,2.50244140625,4.150390625,1.708984375,-25.20751953125,22.0947265625,-40.44189453125
4.033,-0.399169921875,0.1231689453125,-0.9317626953125,2.50244140625,4.150390625,1.708984375,-25.20751953125,22.0947265625,-40.44189453125
4.05,-0.4029541015625,0.126953125,-0.933349609375,2.50244140625,4.150390625,1.708984375,-25.20751953125,22.0947265625,-40.44189453125
4.051,-0.4029541015625,0.126953125,-0.933349609375,1.40380859375,3.90625,1.89208984375,-25.20751953125,22.0947265625,-40.44189453125
4.053,-0.4029541015625,0.126953125,-0.933349609375,1.40380859375,3.90625,1.89208984375,-24.71923828125,21.8017578125,-39.8681640625
4.1,-0.4052734375,0.1258544921875,-0.929931640625,1.40380859375,3.90625,1.89208984375,-24.71923828125,21.8017578125,-39.8681640625
4.101,-0.4052734375,0.1258544921875,-0.929931640625,1.15966796875,3.84521484375,2.197265625,-25.0244140625,21.81396484375,-40.73486328125
4.107,-0.4052734375,0.1258544921875,-0.929931640625,1.15966796875,3.84521484375,2.197265625,-25.0244140625,21.81396484375,-40.73486328125
4.141,-0.4072265625,0.12744140625,-0.929443359375,0.244140625,3.60107421875,2.3193359375,-24.76806640625,22.25341796875,-41.30859375
4.186,-0.410400390625,0.12646484375,-0.927734375,-0.30517578125,3.47900390625,2.50244140625,-24.76806640625,22.25341796875,-41.30859375
4.187,-0.410400390625,0.12646484375,-0.927734375,-0.30517578125,3.47900390625,2.50244140625,-24.6337890625,22.10693359375,-40.966796875
4.22,-0.410400390625,0.12646484375,-0.927734375,-0.30517578125,3.47900390625,2.50244140625,-24.6337890625,22.10693359375,-40.966796875
4.231,-0.4117431640625,0.123779296875,-0.9267578125,-0.732421875,3.23486328125,2.86865234375,-24.6337890625,22.10693359375,-40.966796875
4.232,-0.4117431640625,0.123779296875,-0.9267578125,-0.732421875,3.23486328125,2.86865234375,-24.03564453125,22.1923828125,-40.380859375
4.276,-0.4144287109375,0.1219482421875,-0.926025390625,-0.8544921875,3.173828125,2.9296875,-24.03564453125,22.1923828125,-40.380859375
4.277,-0.4144287109375,0.1219482421875,-0.926025390625,-0.8544921875,3.173828125,2.9296875,-24.35302734375,20.81298828125,-40.576171875
4.291,-0.4144287109375,0.1219482421875,-0.926025390625,-0.8544921875,3.173828125,2.9296875,-24.35302734375,20.81298828125,-40.576171875
4.321,-0.4151611328125,0.1177978515625,-0.9271240234375,-0.9765625,3.11279296875,2.86865234375,-24.35302734375,20.81298828125,-40.576171875
4.322,-0.4151611328125,0.1177978515625,-0.9271240234375,-0.9765625,3.11279296875,2.86865234375,-23.88916015625,21.74072265625,-41.0400390625
4.333,-0.4151611328125,0.1177978515625,-0.9271240234375,-0.9765625,3.11279296875,2.86865234375,-23.88916015625,21.74072265625,-41.0400390625
4.366,-0.417724609375,0.1162109375,-0.9268798828125,-0.9765625,3.11279296875,2.86865234375,-23.88916015625,21.74072265625,-41.0400390625
4.367,-0.417724609375,0.1162109375,-0.9268798828125,-0.9765625,2.86865234375,2.9296875,-23.88916015625,21.74072265625,-41.0400390625
4.368,-0.4188232421875,0.1148681640625,-0.9268798828125,-0.9765625,2.86865234375,2.9296875,-23.88916015625,21.74072265625,-41.0400390625
4.404,-0.4188232421875,0.1148681640625,-0.9268798828125,-0.9765625,2.86865234375,2.9296875,-23.88916015625,21.74072265625,-41.0400390625
4.408,-0.4188232421875,0.1148681640625,-0.9268798828125,-0.9765625,2.86865234375,2.9296875,-23.88916015625,21.74072265625,-41.0400390625
4.412,-0.4188232421875,0.1148681640625,-0.9268798828125,-0.91552734375,2.9296875,2.9296875,-23.88916015625,21.74072265625,-41.0400390625
4.413,-0.419677734375,0.1099853515625,-0.92529296875,-0.91552734375,2.9296875,2.9296875,-24.0478515625,21.728515625,-40.576171875
4.441,-0.419677734375,0.1099853515625,-0.92529296875,-0.91552734375,2.9296875,2.9296875,-24.0478515625,21.728515625,-40.576171875
4.455,-0.419677734375,0.1099853515625,-0.92529296875,-0.9765625,3.11279296875,2.74658203125,-24.0478515625,21.728515625,-40.576171875
4.456,-0.4212646484375,0.10888671875,-0.9256591796875,-0.9765625,3.11279296875,2.74658203125,-24.2919921875,21.93603515625,-40.27099609375
4.501,-0.4212646484375,0.10888671875,-0.9256591796875,-0.54931640625,2.9296875,2.62451171875,-24.2919921875,21.93603515625,-40.27099609375
4.506,-0.4212646484375,0.10888671875,-0.9256591796875,-0.54931640625,2.9296875,2.62451171875,-24.1455078125,21.3623046875,-39.9169921875
4.507,-0.4239501953125,0.1072998046875,-0.9266357421875,-0.54931640625,2.9296875,2.62451171875,-24.1455078125,21.3623046875,-39.9169921875
4.52,-0.4239501953125,0.1072998046875,-0.9266357421875,-0.54931640625,2.9296875,2.62451171875,-24.1455078125,21.3623046875,-39.9169921875
4.545,-0.4239501953125,0.1072998046875,-0.9266357421875,-0.48828125,3.11279296875,2.62451171875,-24.1455078125,21.3623046875,-39.9169921875
4.546,-0.4239501953125,0.1072998046875,-0.9266357421875,-0.48828125,3.11279296875,2.62451171875,-24.4384765625,21.44775390625,-40.33203125
4.548,-0.426025390625,0.10595703125,-0.9248046875,-0.48828125,3.11279296875,2.62451171875,-24.4384765625,21.44775390625,-40.33203125
4.554,-0.426025390625,0.10595703125,-0.9248046875,-0.48828125,3.11279296875,2.62451171875,-24.4384765625,21.44775390625,-40.33203125
4.591,-0.4271240234375,0.1043701171875,-0.9234619140625,0.06103515625,3.23486328125,2.38037109375,-23.42529296875,21.2890625,-40.78369140625
4.629,-0.4271240234375,0.1043701171875,-0.9234619140625,0.06103515625,3.23486328125,2.38037109375,-23.42529296875,21.2890625,-40.78369140625
4.633,-0.4271240234375,0.1043701171875,-0.9234619140625,0.06103515625,3.23486328125,2.38037109375,-23.42529296875,21.2890625,-40.78369140625
4.636,-0.42919921875,0.1046142578125,-0.9227294921875,0.3662109375,3.11279296875,2.13623046875,-23.388671875,20.15380859375,-40.234375
4.68,-0.42919921875,0.1046142578125,-0.9227294921875,0.732421875,3.23486328125,2.13623046875,-23.388671875,20.15380859375,-40.234375
4.681,-0.42919921875,0.1046142578125,-0.9227294921875,0.732421875,3.23486328125,2.13623046875,-23.84033203125,21.8017578125,-41.015625
4.708,-0.42919921875,0.1046142578125,-0.9227294921875,0.732421875,3.23486328125,2.13623046875,-23.84033203125,21.8017578125,-41.015625
4.726,-0.431884765625,0.10498046875,-0.92236328125,0.732421875,3.23486328125,2.13623046875,-23.84033203125,21.8017578125,-41.015625
4.727,-0.4344482421875,0.1060791015625,-0.9205322265625,1.15966796875,3.2958984375,2.0751953125,-23.84033203125,21.8017578125,-41.015625
4.727,-0.4344482421875,0.1060791015625,-0.9205322265625,1.03759765625,3.23486328125,1.953125,-23.84033203125,21.8017578125,-41.015625
4.741,-0.4344482421875,0.1060791015625,-0.9205322265625,1.03759765625,3.23486328125,1.953125,-23.84033203125,21.8017578125,-41.015625
4.771,-0.4344482421875,0.1060791015625,-0.9205322265625,1.03759765625,3.23486328125,1.953125,-23.37646484375,21.09375,-39.8193359375
4.816,-0.4344482421875,0.1055908203125,-0.9188232421875,1.3427734375,3.173828125,1.953125,-23.37646484375,21.09375,-39.8193359375
4.817,-0.4344482421875,0.1055908203125,-0.9188232421875,1.3427734375,3.173828125,1.953125,-22.71728515625,21.2890625,-41.3330078125
4.82,-0.4344482421875,0.1055908203125,-0.9188232421875,1.3427734375,3.173828125,1.953125,-22.71728515625,21.2890625,-41.3330078125
4.854,-0.4344482421875,0.1055908203125,-0.9188232421875,1.3427734375,3.173828125,1.953125,-22.71728515625,21.2890625,-41.3330078125
4.861,-0.4365234375,0.10693359375,-0.91943359375,0.8544921875,2.8076171875,2.01416015625,-22.71728515625,21.2890625,-41.3330078125
4.862,-0.4365234375,0.10693359375,-0.91943359375,0.8544921875,2.8076171875,2.01416015625,-23.22998046875,21.35009765625,-40.51513671875
4.905,-0.438720703125,0.106201171875,-0.91845703125,0.8544921875,2.8076171875,2.01416015625,-23.22998046875,21.35009765625,-40.51513671875
4.906,-0.438720703125,0.106201171875,-0.91845703125,0.732421875,2.8076171875,1.953125,-22.69287109375,21.66748046875,-40.51513671875
4.929,-0.438720703125,0.106201171875,-0.91845703125,0.732421875,2.8076171875,1.953125,-22.69287109375,21.66748046875,-40.51513671875
4.933,-0.438720703125,0.106201171875,-0.91845703125,0.732421875,2.8076171875,1.953125,-22.69287109375,21.66748046875,-40.51513671875
4.996,-0.439697265625,0.1070556640625,-0.91748046875,0.732421875,2.8076171875,1.953125,-22.69287109375,21.66748046875,-40.51513671875
4.998,-0.439697265625,0.1070556640625,-0.91748046875,0.67138671875,2.50244140625,2.01416015625,-22.4365234375,21.38671875,-42.236328125
4.999,-0.4404296875,0.106201171875,-0.916259765625,0.67138671875,2.50244140625,2.01416015625,-22.4365234375,21.38671875,-42.236328125
5.008,-0.4404296875,0.106201171875,-0.916259765625,0.67138671875,2.50244140625,2.01416015625,-22.4365234375,21.38671875,-42.236328125
5.042,-0.443603515625,0.1048583984375,-0.9154052734375,0.48828125,2.38037109375,2.13623046875,-21.39892578125,21.64306640625,-41.58935546875
5.086,-0.443603515625,0.1048583984375,-0.9154052734375,0.42724609375,2.38037109375,2.13623046875,-21.39892578125,21.64306640625,-41.58935546875
5.087,-0.445556640625,0.1048583984375,-0.916748046875,0.244140625,2.25830078125,2.13623046875,-21.39892578125,21.64306640625,-41.58935546875
5.12,-0.445556640625,0.1048583984375,-0.916748046875,0.244140625,2.25830078125,2.13623046875,-21.39892578125,21.64306640625,-41.58935546875
5.146,-0.44580078125,0.103759765625,-0.9163818359375,0.244140625,2.25830078125,2.3193359375,-22.15576171875,22.27783203125,-41.19873046875
5.176,-0.4466552734375,0.10205078125,-0.9144287109375,0.244140625,2.13623046875,2.25830078125,-22.35107421875,21.2646484375,-40.966796875
5.191,-0.4466552734375,0.10205078125,-0.9144287109375,0.244140625,2.13623046875,2.25830078125,-22.35107421875,21.2646484375,-40.966796875
5.221,-0.446044921875,0.102294921875,-0.9140625,0.1220703125,2.197265625,2.3193359375,-22.35107421875,21.2646484375,-40.966796875
5.222,-0.446044921875,0.102294921875,-0.9140625,0.1220703125,2.197265625,2.3193359375,-22.32666015625,21.875,-40.6005859375
5.229,-0.446044921875,0.102294921875,-0.9140625,0.1220703125,2.197265625,2.3193359375,-22.32666015625,21.875,-40.6005859375
5.233,-0.446044921875,0.102294921875,-0.9140625,0.1220703125,2.197265625,2.3193359375,-22.32666015625,21.875,-40.6005859375
5.266,-0.447021484375,0.100341796875,-0.9149169921875,0.244140625,2.197265625,2.38037109375,-22.4609375,20.7275390625,-42.37060546875
5.308,-0.447021484375,0.100341796875,-0.9149169921875,0.244140625,2.197265625,2.38037109375,-22.4609375,20.7275390625,-42.37060546875
5.31,-0.4495849609375,0.1011962890625,-0.9139404296875,0.244140625,2.197265625,2.38037109375,-22.4609375,20.7275390625,-42.37060546875
5.311,-0.4495849609375,0.1011962890625,-0.9139404296875,0.244140625,2.38037109375,2.13623046875,-22.4609375,20.7275390625,-42.37060546875
5.312,-0.4495849609375,0.1011962890625,-0.9139404296875,0.244140625,2.38037109375,2.13623046875,-22.52197265625,21.19140625,-41.34521484375
5.342,-0.4495849609375,0.1011962890625,-0.9139404296875,0.244140625,2.38037109375,2.13623046875,-22.52197265625,21.19140625,-41.34521484375
5.355,-0.4495849609375,0.0997314453125,-0.914306640625,0.244140625,2.38037109375,2.13623046875,-22.52197265625,21.19140625,-41.34521484375
5.356,-0.4495849609375,0.0997314453125,-0.914306640625,0.30517578125,2.38037109375,2.25830078125,-21.86279296875,21.3623046875,-41.05224609375
5.4,-0.4500732421875,0.0982666015625,-0.9112548828125,0.30517578125,2.38037109375,2.25830078125,-21.86279296875,21.3623046875,-41.05224609375
5.401,-0.4500732421875,0.0982666015625,-0.9112548828125,0.42724609375,2.44140625,2.13623046875,-22.13134765625,22.216796875,-40.6005859375
5.42,-0.4500732421875,0.0982666015625,-0.9112548828125,0.42724609375,2.44140625,2.13623046875,-22.13134765625,22.216796875,-40.6005859375
5.446,-0.4508056640625,0.098388671875,-0.9119873046875,0.30517578125,2.3193359375,2.197265625,-22.13134765625,22.216796875,-40.6005859375
5.447,-0.4508056640625,0.098388671875,-0.9119873046875,0.30517578125,2.3193359375,2.197265625,-22.1923828125,22.10693359375,-39.892578125
5.491,-0.4541015625,0.09814453125,-0.912353515625,0.48828125,2.3193359375,2.01416015625,-22.1923828125,22.10693359375,-39.892578125
5.492,-0.4541015625,0.09814453125,-0.912353515625,0.48828125,2.3193359375,2.01416015625,-21.96044921875,21.49658203125,-40.6005859375
5.529,-0.4541015625,0.09814453125,-0.912353515625,0.48828125,2.3193359375,2.01416015625,-21.96044921875,21.49658203125,-40.6005859375
5.532,-0.4541015625,0.09814453125,-0.912353515625,0.48828125,2.3193359375,2.01416015625,-21.96044921875,21.49658203125,-40.6005859375
5.541,-0.4549560546875,0.0968017578125,-0.9100341796875,0.48828125,2.3193359375,2.01416015625,-21.96044921875,21.49658203125,-40.6005859375
5.581,-0.455322265625,0.09814453125,-0.911865234375,0.42724609375,2.44140625,2.0751953125,-21.96044921875,21.49658203125,-40.6005859375
5.582,-0.455322265625,0.09814453125,-0.911865234375,0.6103515625,2.50244140625,2.13623046875,-21.96044921875,21.49658203125,-40.6005859375
5.608,-0.455322265625,0.09814453125,-0.911865234375,0.6103515625,2.50244140625,2.13623046875,-21.96044921875,21.49658203125,-40.6005859375
5.626,-0.458984375,0.096923828125,-0.9107666015625,0.6103515625,2.50244140625,2.13623046875,-21.826171875,21.8505859375,-40.8447265625
5.629,-0.458984375,0.096923828125,-0.9107666015625,0.67138671875,2.50244140625,1.953125,-21.826171875,21.8505859375,-40.8447265625
5.641,-0.458984375,0.096923828125,-0.9107666015625,0.67138671875,2.50244140625,1.953125,-21.826171875,21.8505859375,-40.8447265625
5.671,-0.4598388671875,0.09619140625,-0.9105224609375,0.67138671875,2.5634765625,2.0751953125,-22.0703125,20.9228515625,-41.1865234375
5.715,-0.4598388671875,0.09619140625,-0.9105224609375,0.67138671875,2.5634765625,2.0751953125,-22.03369140625,20.947265625,-41.6015625
5.716,-0.461669921875,0.0960693359375,-0.91015625,0.67138671875,2.5634765625,2.0751953125,-22.03369140625,20.947265625,-41.6015625
5.717,-0.461669921875,0.0960693359375,-0.91015625,0.6103515625,2.44140625,2.13623046875,-22.03369140625,20.947265625,-41.6015625
5.72,-0.461669921875,0.0960693359375,-0.91015625,0.6103515625,2.44140625,2.13623046875,-22.03369140625,20.947265625,-41.6015625
5.754,-0.461669921875,0.0960693359375,-0.91015625,0.6103515625,2.44140625,2.13623046875,-22.03369140625,20.947265625,-41.6015625
5.762,-0.461669921875,0.0960693359375,-0.91015625,0.6103515625,2.44140625,2.13623046875,-21.8505859375,21.32568359375,-41.162109375
5.763,-0.4610595703125,0.09521484375,-0.9073486328125,0.67138671875,2.44140625,2.0751953125,-21.8505859375,21.32568359375,-41.162109375
5.806,-0.462890625,0.09521484375,-0.908203125,0.6103515625,2.197265625,2.0751953125,-21.10595703125,20.849609375,-41.6259765625
5.833,-0.462890625,0.09521484375,-0.908203125,0.6103515625,2.197265625,2.0751953125,-21.10595703125,20.849609375,-41.6259765625
5.851,-0.4647216796875,0.0938720703125,-0.9083251953125,0.42724609375,2.01416015625,2.0751953125,-21.37451171875,21.0693359375,-41.1376953125
5.867,-0.4647216796875,0.0938720703125,-0.9083251953125,0.42724609375,2.01416015625,2.0751953125,-21.37451171875,21.0693359375,-41.1376953125
5.896,-0.4654541015625,0.09423828125,-0.90771484375,0.48828125,2.25830078125,2.13623046875,-20.81298828125,21.17919921875,-40.80810546875
5.908,-0.4654541015625,0.09423828125,-0.90771484375,0.48828125,2.25830078125,2.13623046875,-20.81298828125,21.17919921875,-40.80810546875
5.94,-0.465576171875,0.0941162109375,-0.90673828125,0.48828125,2.25830078125,2.13623046875,-20.81298828125,21.17919921875,-40.80810546875
5.941,-0.465576171875,0.0941162109375,-0.90673828125,0.54931640625,2.197265625,2.197265625,-20.76416015625,21.17919921875,-40.8203125
5.942,-0.465576171875,0.0941162109375,-0.90673828125,0.54931640625,2.197265625,2.197265625,-20.76416015625,21.17919921875,-40.8203125
5.985,-0.4664306640625,0.0921630859375,-0.905517578125,0.54931640625,2.197265625,2.197265625,-20.76416015625,21.17919921875,-40.8203125
5.986,-0.4664306640625,0.0921630859375,-0.905517578125,0.42724609375,2.197265625,2.0751953125,-20.703125,20.947265625,-40.95458984375
6.02,-0.4664306640625,0.0921630859375,-0.905517578125,0.42724609375,2.197265625,2.0751953125,-20.703125,20.947265625,-40.95458984375
6.031,-0.466552734375,0.093017578125,-0.90576171875,0.54931640625,2.13623046875,2.0751953125,-20.703125,20.947265625,-40.95458984375
6.033,-0.466552734375,0.093017578125,-0.90576171875,0.54931640625,2.13623046875,2.0751953125,-21.58203125,21.44775390625,-40.95458984375
6.054,-0.466552734375,0.093017578125,-0.90576171875,0.54931640625,2.13623046875,2.0751953125,-21.58203125,21.44775390625,-40.95458984375
6.076,-0.468505859375,0.091796875,-0.9066162109375,0.54931640625,2.25830078125,2.01416015625,-21.58203125,21.44775390625,-40.95458984375
6.077,-0.468505859375,0.091796875,-0.9066162109375,0.54931640625,2.25830078125,2.01416015625,-21.08154296875,21.38671875,-41.5771484375
6.12,-0.468505859375,0.09130859375,-0.9044189453125,0.54931640625,2.25830078125,2.01416015625,-21.08154296875,21.38671875,-41.5771484375
6.121,-0.468505859375,0.09130859375,-0.9044189453125,0.67138671875,2.0751953125,2.197265625,-21.13037109375,20.947265625,-40.88134765625
6.129,-0.468505859375,0.09130859375,-0.9044189453125,0.67138671875,2.0751953125,2.197265625,-21.13037109375,20.947265625,-40.88134765625
6.133,-0.468505859375,0.09130859375,-0.9044189453125,0.67138671875,2.0751953125,2.197265625,-21.13037109375,20.947265625,-40.88134765625
6.193,-0.46875,0.0916748046875,-0.9039306640625,0.67138671875,2.0751953125,2.197265625,-21.13037109375,20.947265625,-40.88134765625
6.194,-0.46875,0.0916748046875,-0.9039306640625,0.6103515625,2.13623046875,2.197265625,-20.76416015625,20.849609375,-42.00439453125
6.208,-0.46875,0.0916748046875,-0.9039306640625,0.6103515625,2.13623046875,2.197265625,-20.76416015625,20.849609375,-42.00439453125
6.21,-0.4697265625,0.089111328125,-0.9024658203125,0.6103515625,2.13623046875,2.197265625,-20.76416015625,20.849609375,-42.00439453125
6.211,-0.4697265625,0.089111328125,-0.9024658203125,0.48828125,2.197265625,2.13623046875,-20.76416015625,20.849609375,-42.00439453125
6.212,-0.4697265625,0.089111328125,-0.9024658203125,0.48828125,2.197265625,2.13623046875,-20.78857421875,20.98388671875,-41.68701171875
6.241,-0.4697265625,0.089111328125,-0.9024658203125,0.48828125,2.197265625,2.13623046875,-20.78857421875,20.98388671875,-41.68701171875
6.255,-0.471435546875,0.08935546875,-0.904296875,0.48828125,2.197265625,2.13623046875,-20.78857421875,20.98388671875,-41.68701171875
6.256,-0.473388671875,0.0889892578125,-0.9041748046875,0.79345703125,2.197265625,2.01416015625,-20.78857421875,20.98388671875,-41.68701171875
6.3,-0.473388671875,0.0889892578125,-0.9041748046875,0.6103515625,2.197265625,2.197265625,-20.78857421875,20.98388671875,-41.68701171875
6.301,-0.473388671875,0.0889892578125,-0.9041748046875,0.6103515625,2.197265625,2.197265625,-19.47021484375,19.93408203125,-42.51708984375
6.302,-0.4742431640625,0.0882568359375,-0.90283203125,0.6103515625,2.197265625,2.197265625,-19.47021484375,19.93408203125,-42.51708984375
6.321,-0.4742431640625,0.0882568359375,-0.90283203125,0.6103515625,2.197265625,2.197265625,-19.47021484375,19.93408203125,-42.51708984375
6.347,-0.47509765625,0.0885009765625,-0.902587890625,0.6103515625,2.38037109375,2.197265625,-20.76416015625,21.240234375,-41.7236328125
6.354,-0.47509765625,0.0885009765625,-0.902587890625,0.6103515625,2.38037109375,2.197265625,-20.76416015625,21.240234375,-41.7236328125
6.391,-0.47509765625,0.0885009765625,-0.902587890625,0.48828125,2.13623046875,2.197265625,-20.42236328125,21.64306640625,-41.22314453125
6.393,-0.4764404296875,0.08642578125,-0.901123046875,0.48828125,2.13623046875,2.197265625,-20.42236328125,21.64306640625,-41.22314453125
6.429,-0.4764404296875,0.08642578125,-0.901123046875,0.48828125,2.13623046875,2.197265625,-20.42236328125,21.64306640625,-41.22314453125
6.433,-0.4764404296875,0.08642578125,-0.901123046875,0.48828125,2.13623046875,2.197265625,-20.42236328125,21.64306640625,-41.22314453125
6.435,-0.4764404296875,0.08642578125,-0.901123046875,0.42724609375,2.25830078125,2.13623046875,-20.95947265625,21.1669921875,-41.58935546875
6.436,-0.477294921875,0.0882568359375,-0.902099609375,0.42724609375,2.25830078125,2.13623046875,-20.95947265625,21.1669921875,-41.58935546875
6.481,-0.4779052734375,0.0863037109375,-0.9017333984375,0.67138671875,2.44140625,2.13623046875,-21.00830078125,21.0693359375,-41.2353515625
6.508,-0.4779052734375,0.0863037109375,-0.9017333984375,0.67138671875,2.44140625,2.13623046875,-21.00830078125,21.0693359375,-41.2353515625
6.525,-0.4779052734375,0.0863037109375,-0.9017333984375,0.6103515625,2.3193359375,2.25830078125,-21.00830078125,21.0693359375,-41.2353515625
6.527,-0.4779052734375,0.0863037109375,-0.9017333984375,0.6103515625,2.3193359375,2.25830078125,-21.0693359375,21.08154296875,-40.283203125
6.528,-0.4783935546875,0.085693359375,-0.9012451171875,0.6103515625,2.3193359375,2.25830078125,-21.0693359375,21.08154296875,-40.283203125
6.541,-0.4783935546875,0.085693359375,-0.9012451171875,0.6103515625,2.3193359375,2.25830078125,-21.0693359375,21.08154296875,-40.283203125
6.573,-0.4783935546875,0.085693359375,-0.9012451171875,0.54931640625,2.3193359375,2.197265625,-21.0693359375,21.08154296875,-40.283203125
6.574,-0.4783935546875,0.085693359375,-0.9012451171875,0.54931640625,2.3193359375,2.197265625,-20.47119140625,20.76416015625,-41.22314453125
6.576,-0.480224609375,0.084228515625,-0.8997802734375,0.54931640625,2.3193359375,2.197265625,-20.47119140625,20.76416015625,-41.22314453125
6.615,-0.480224609375,0.084228515625,-0.8997802734375,0.48828125,2.44140625,2.0751953125,-20.47119140625,20.76416015625,-41.22314453125
6.616,-0.482177734375,0.0853271484375,-0.9012451171875,0.48828125,2.44140625,2.0751953125,-20.47119140625,20.76416015625,-41.22314453125
6.621,-0.482177734375,0.0853271484375,-0.9012451171875,0.48828125,2.44140625,2.0751953125,-20.47119140625,20.76416015625,-41.22314453125
6.653,-0.482177734375,0.0853271484375,-0.9012451171875,0.48828125,2.44140625,2.0751953125,-20.47119140625,20.76416015625,-41.22314453125
6.661,-0.482177734375,0.0853271484375,-0.9012451171875,0.3662109375,2.25830078125,2.197265625,-20.7763671875,20.59326171875,-40.51513671875
6.662,-0.482177734375,0.0850830078125,-0.899658203125,0.3662109375,2.50244140625,2.197265625,-20.7763671875,20.59326171875,-40.51513671875
6.729,-0.482177734375,0.0850830078125,-0.899658203125,0.3662109375,2.50244140625,2.197265625,-20.7763671875,20.59326171875,-40.51513671875
6.733,-0.482177734375,0.0850830078125,-0.899658203125,0.3662109375,2.50244140625,2.197265625,-20.7763671875,20.59326171875,-40.51513671875
6.751,-0.483154296875,0.0838623046875,-0.897705078125,0.244140625,2.44140625,2.13623046875,-20.7763671875,20.59326171875,-40.51513671875
6.752,-0.4822998046875,0.0830078125,-0.8975830078125,0.244140625,2.44140625,2.13623046875,-20.59326171875,21.484375,-41.6748046875
6.796,-0.48583984375,0.082275390625,-0.8970947265625,0.48828125,2.62451171875,2.25830078125,-20.30029296875,21.22802734375,-41.00341796875
6.808,-0.48583984375,0.082275390625,-0.8970947265625,0.48828125,2.62451171875,2.25830078125,-20.30029296875,21.22802734375,-41.00341796875
6.841,-0.48583984375,0.082275390625,-0.8970947265625,0.42724609375,2.5634765625,2.25830078125,-20.1904296875,20.66650390625,-41.44287109375
6.842,-0.488037109375,0.0819091796875,-0.89697265625,0.42724609375,2.5634765625,2.25830078125,-20.1904296875,20.66650390625,-41.44287109375
6.886,-0.488037109375,0.0819091796875,-0.89697265625,0.30517578125,2.8076171875,2.3193359375,-19.6533203125,20.849609375,-40.51513671875
6.888,-0.4891357421875,0.0814208984375,-0.8970947265625,0.30517578125,2.8076171875,2.3193359375,-19.6533203125,20.849609375,-40.51513671875
6.92,-0.4891357421875,0.0814208984375,-0.8970947265625,0.30517578125,2.8076171875,2.3193359375,-19.6533203125,20.849609375,-40.51513671875
6.932,-0.4891357421875,0.0814208984375,-0.8970947265625,0.48828125,2.74658203125,2.3193359375,-19.6533203125,20.849609375,-40.51513671875
6.936,-0.4896240234375,0.0794677734375,-0.895263671875,0.48828125,2.74658203125,2.3193359375,-19.82421875,20.7763671875,-41.29638671875
6.954,-0.4896240234375,0.0794677734375,-0.895263671875,0.48828125,2.74658203125,2.3193359375,-19.82421875,20.7763671875,-41.29638671875
6.976,-0.4896240234375,0.0794677734375,-0.895263671875,0.30517578125,2.74658203125,2.3193359375,-19.82421875,20.7763671875,-41.29638671875
7.02,-0.4913330078125,0.07861328125,-0.8953857421875,0.30517578125,2.74658203125,2.3193359375,-19.82421875,20.7763671875,-41.29638671875
7.021,-0.4913330078125,0.07861328125,-0.8953857421875,0.244140625,2.74658203125,2.38037109375,-19.82421875,20.7763671875,-41.29638671875
7.022,-0.4913330078125,0.07861328125,-0.8953857421875,0.244140625,2.74658203125,2.38037109375,-20.20263671875,21.3623046875,-41.27197265625
7.029,-0.4913330078125,0.07861328125,-0.8953857421875,0.244140625,2.74658203125,2.38037109375,-20.20263671875,21.3623046875,-41.27197265625
7.033,-0.4913330078125,0.07861328125,-0.8953857421875,0.244140625,2.74658203125,2.38037109375,-20.20263671875,21.3623046875,-41.27197265625
7.065,-0.49267578125,0.0789794921875,-0.8951416015625,0.244140625,2.74658203125,2.38037109375,-20.20263671875,21.3623046875,-41.27197265625
7.066,-0.49267578125,0.0789794921875,-0.8951416015625,0.18310546875,2.9296875,2.44140625,-20.20263671875,21.3623046875,-41.27197265625
7.067,-0.49267578125,0.0789794921875,-0.8951416015625,0.18310546875,2.9296875,2.44140625,-19.54345703125,20.2392578125,-40.68603515625
7.108,-0.49267578125,0.0789794921875,-0.8951416015625,0.18310546875,2.9296875,2.44140625,-19.54345703125,20.2392578125,-40.68603515625
7.111,-0.4940185546875,0.0771484375,-0.8924560546875,0.244140625,2.99072265625,2.3193359375,-19.54345703125,20.2392578125,-40.68603515625
7.112,-0.4940185546875,0.0771484375,-0.8924560546875,0.244140625,2.99072265625,2.3193359375,-19.43359375,20.6298828125,-40.34423828125
7.142,-0.4940185546875,0.0771484375,-0.8924560546875,0.244140625,2.99072265625,2.3193359375,-19.43359375,20.6298828125,-40.34423828125
7.156,-0.4942626953125,0.0767822265625,-0.8907470703125,0.06103515625,3.173828125,2.44140625,-19.81201171875,20.41015625,-40.44189453125
7.22,-0.4942626953125,0.0767822265625,-0.8907470703125,0.06103515625,3.173828125,2.44140625,-19.81201171875,20.41015625,-40.44189453125
7.247,-0.4974365234375,0.074462890625,-0.8914794921875,0.244140625,3.0517578125,2.44140625,-19.81201171875,20.41015625,-40.44189453125
7.254,-0.4974365234375,0.074462890625,-0.8914794921875,0.244140625,3.0517578125,2.44140625,-19.81201171875,20.41015625,-40.44189453125
7.291,-0.4974365234375,0.074462890625,-0.8914794921875,0.244140625,3.0517578125,2.44140625,-19.580078125,20.5078125,-41.19873046875
7.292,-0.4991455078125,0.0745849609375,-0.8916015625,-0.244140625,3.173828125,2.5634765625,-19.140625,20.32470703125,-40.61279296875
7.329,-0.4991455078125,0.0745849609375,-0.8916015625,-0.244140625,3.173828125,2.5634765625,-19.140625,20.32470703125,-40.61279296875
7.333,-0.4991455078125,0.0745849609375,-0.8916015625,-0.244140625,3.173828125,2.5634765625,-19.140625,20.32470703125,-40.61279296875
7.336,-0.500244140625,0.0711669921875,-0.8880615234375,-0.18310546875,3.173828125,2.62451171875,-19.140625,20.32470703125,-40.61279296875
7.337,-0.500244140625,0.0711669921875,-0.8880615234375,-0.18310546875,3.173828125,2.62451171875,-18.22509765625,19.51904296875,-39.9658203125
7.381,-0.5018310546875,0.0703125,-0.8870849609375,-0.30517578125,3.35693359375,2.74658203125,-18.22509765625,19.51904296875,-39.9658203125
7.381,-0.5052490234375,0.0694580078125,-0.8885498046875,-0.30517578125,3.35693359375,2.74658203125,-18.22509765625,19.51904296875,-39.9658203125
7.408,-0.5052490234375,0.0694580078125,-0.8885498046875,-0.30517578125,3.35693359375,2.74658203125,-18.22509765625,19.51904296875,-39.9658203125
7.426,-0.5050048828125,0.069580078125,-0.886962890625,-0.30517578125,3.35693359375,2.74658203125,-18.22509765625,19.51904296875,-39.9658203125
7.427,-0.5050048828125,0.069580078125,-0.886962890625,-0.3662109375,3.35693359375,2.5634765625,-18.701171875,20.12939453125,-40.8203125
7.441,-0.5050048828125,0.069580078125,-0.886962890625,-0.3662109375,3.35693359375,2.5634765625,-18.701171875,20.12939453125,-40.8203125
7.471,-0.50634765625,0.0684814453125,-0.885986328125,-0.67138671875,3.60107421875,2.9296875,-18.701171875,20.12939453125,-40.8203125
7.472,-0.50634765625,0.0684814453125,-0.885986328125,-0.67138671875,3.60107421875,2.9296875,-19.22607421875,20.556640625,-41.83349609375
7.515,-0.507568359375,0.0662841796875,-0.88525390625,-0.67138671875,3.60107421875,2.9296875,-19.22607421875,20.556640625,-41.83349609375
7.516,-0.507568359375,0.0662841796875,-0.88525390625,-0.79345703125,3.7841796875,2.99072265625,-19.140625,20.00732421875,-41.00341796875
7.52,-0.507568359375,0.0662841796875,-0.88525390625,-0.79345703125,3.7841796875,2.99072265625,-19.140625,20.00732421875,-41.00341796875
7.554,-0.507568359375,0.0662841796875,-0.88525390625,-0.79345703125,3.7841796875,2.99072265625,-19.140625,20.00732421875,-41.00341796875
7.561,-0.508544921875,0.06298828125,-0.8839111328125,-0.91552734375,4.0283203125,3.11279296875,-19.140625,20.00732421875,-41.00341796875
7.562,-0.508544921875,0.06298828125,-0.8839111328125,-0.91552734375,4.0283203125,3.11279296875,-18.408203125,20.49560546875,-40.0390625
7.606,-0.511962890625,0.063232421875,-0.8843994140625,-1.15966796875,4.2724609375,3.23486328125,-18.408203125,20.49560546875,-40.0390625
7.607,-0.511962890625,0.063232421875,-0.8843994140625,-1.15966796875,4.2724609375,3.23486328125,-18.701171875,20.15380859375,-40.88134765625
7.628,-0.511962890625,0.063232421875,-0.8843994140625,-1.15966796875,4.2724609375,3.23486328125,-18.701171875,20.15380859375,-40.88134765625
7.632,-0.511962890625,0.063232421875,-0.8843994140625,-1.15966796875,4.2724609375,3.23486328125,-18.701171875,20.15380859375,-40.88134765625
7.651,-0.51416015625,0.060791015625,-0.881591796875,-1.40380859375,4.33349609375,3.35693359375,-18.64013671875,19.88525390625,-41.357421875
7.695,-0.51611328125,0.0574951171875,-0.8787841796875,-1.40380859375,4.33349609375,3.35693359375,-18.64013671875,19.88525390625,-41.357421875
7.696,-0.5196533203125,0.0556640625,-0.8798828125,-1.5869140625,4.7607421875,3.47900390625,-18.64013671875,19.88525390625,-41.357421875
7.707,-0.5196533203125,0.0556640625,-0.8798828125,-1.5869140625,4.7607421875,3.47900390625,-18.64013671875,19.88525390625,-41.357421875
7.741,-0.5196533203125,0.0556640625,-0.8798828125,-1.46484375,4.94384765625,3.662109375,-18.64013671875,19.88525390625,-41.357421875
7.742,-0.5223388671875,0.05078125,-0.8787841796875,-1.46484375,4.94384765625,3.662109375,-18.27392578125,20.01953125,-40.6982421875
7.785,-0.5223388671875,0.05078125,-0.8787841796875,-1.8310546875,5.18798828125,3.84521484375,-18.27392578125,20.01953125,-40.6982421875
7.786,-0.5223388671875,0.05078125,-0.8787841796875,-1.8310546875,5.18798828125,3.84521484375,-18.22509765625,19.51904296875,-41.40625
7.787,-0.5260009765625,0.048095703125,-0.876708984375,-1.8310546875,5.18798828125,3.84521484375,-18.22509765625,19.51904296875,-41.40625
7.832,-0.529296875,0.0435791015625,-0.8740234375,-2.0751953125,5.92041015625,3.96728515625,-17.919921875,19.68994140625,-41.30859375
7.854,-0.529296875,0.0435791015625,-0.8740234375,-2.0751953125,5.92041015625,3.96728515625,-17.919921875,19.68994140625,-41.30859375
7.858,-0.529296875,0.0435791015625,-0.8740234375,-2.0751953125,5.92041015625,3.96728515625,-17.919921875,19.68994140625,-41.30859375
7.875,-0.529296875,0.0435791015625,-0.8740234375,-2.3193359375,6.591796875,4.2724609375,-17.919921875,19.68994140625,-41.30859375
7.876,-0.532958984375,0.0406494140625,-0.8729248046875,-2.3193359375,6.591796875,4.2724609375,-17.29736328125,19.1650390625,-41.58935546875
7.921,-0.5384521484375,0.0350341796875,-0.868896484375,-2.62451171875,7.2021484375,4.45556640625,-17.54150390625,19.0185546875,-41.97998046875
7.929,-0.5384521484375,0.0350341796875,-0.868896484375,-2.62451171875,7.2021484375,4.45556640625,-17.54150390625,19.0185546875,-41.97998046875
7.933,-0.5384521484375,0.0350341796875,-0.868896484375,-2.62451171875,7.2021484375,4.45556640625,-17.54150390625,19.0185546875,-41.97998046875
7.966,-0.5384521484375,0.0350341796875,-0.868896484375,-2.86865234375,7.8125,4.5166015625,-17.10205078125,18.75,-41.24755859375
7.967,-0.5440673828125,0.0303955078125,-0.866455078125,-2.86865234375,7.8125,4.5166015625,-17.10205078125,18.75,-41.24755859375
8.008,-0.5440673828125,0.0303955078125,-0.866455078125,-2.86865234375,7.8125,4.5166015625,-17.10205078125,18.75,-41.24755859375
8.01,-0.5440673828125,0.0303955078125,-0.866455078125,-3.2958984375,9.09423828125,4.69970703125,-17.10205078125,18.75,-41.24755859375
8.011,-0.5440673828125,0.0303955078125,-0.866455078125,-3.2958984375,9.09423828125,4.69970703125,-17.4072265625,19.15283203125,-41.83349609375
8.012,-0.5509033203125,0.0267333984375,-0.8607177734375,-3.2958984375,9.09423828125,4.69970703125,-17.4072265625,19.15283203125,-41.83349609375
8.042,-0.5509033203125,0.0267333984375,-0.8607177734375,-3.2958984375,9.09423828125,4.69970703125,-17.4072265625,19.15283203125,-41.83349609375
8.056,-0.5576171875,0.0211181640625,-0.8577880859375,-3.41796875,9.6435546875,5.126953125,-17.4072265625,19.15283203125,-41.83349609375
8.056,-0.5576171875,0.0211181640625,-0.8577880859375,-3.90625,10.1318359375,5.31005859375,-17.4072265625,19.15283203125,-41.83349609375
8.101,-0.566650390625,0.0133056640625,-0.8515625,-3.90625,10.1318359375,5.31005859375,-17.07763671875,18.78662109375,-40.72265625
8.102,-0.566650390625,0.0133056640625,-0.8515625,-4.08935546875,10.80322265625,5.31005859375,-17.07763671875,18.78662109375,-40.72265625
8.121,-0.566650390625,0.0133056640625,-0.8515625,-4.08935546875,10.80322265625,5.31005859375,-17.07763671875,18.78662109375,-40.72265625
8.145,-0.566650390625,0.0133056640625,-0.8515625,-4.0283203125,10.68115234375,5.4931640625,-17.07763671875,18.78662109375,-40.72265625
8.155,-0.566650390625,0.0133056640625,-0.8515625,-4.0283203125,10.68115234375,5.4931640625,-17.07763671875,18.78662109375,-40.72265625
8.191,-0.5760498046875,0.007568359375,-0.847412109375,-4.0283203125,10.68115234375,5.4931640625,-16.29638671875,17.7734375,-41.51611328125
8.192,-0.5760498046875,0.007568359375,-0.847412109375,-4.33349609375,10.92529296875,5.67626953125,-16.29638671875,17.7734375,-41.51611328125
8.229,-0.5760498046875,0.007568359375,-0.847412109375,-4.33349609375,10.92529296875,5.67626953125,-16.29638671875,17.7734375,-41.51611328125
8.232,-0.5760498046875,0.007568359375,-0.847412109375,-4.33349609375,10.92529296875,5.67626953125,-16.29638671875,17.7734375,-41.51611328125
8.235,-0.5760498046875,0.007568359375,-0.847412109375,-4.33349609375,10.92529296875,5.67626953125,-14.16015625,17.29736328125,-43.0419921875
8.236,-0.589599609375,-0.0042724609375,-0.8367919921875,-4.33349609375,10.92529296875,5.67626953125,-14.16015625,17.29736328125,-43.0419921875
8.237,-0.589599609375,-0.0042724609375,-0.8367919921875,-4.69970703125,11.16943359375,5.92041015625,-14.16015625,17.29736328125,-43.0419921875
8.287,-0.5985107421875,-0.012451171875,-0.8302001953125,-4.69970703125,11.16943359375,5.92041015625,-14.9169921875,17.7001953125,-41.85791015625
8.288,-0.5985107421875,-0.012451171875,-0.8302001953125,-5.06591796875,11.474609375,6.28662109375,-14.9169921875,17.7001953125,-41.85791015625
8.308,-0.5985107421875,-0.012451171875,-0.8302001953125,-5.06591796875,11.474609375,6.28662109375,-14.9169921875,17.7001953125,-41.85791015625
8.326,-0.6055908203125,-0.017333984375,-0.828125,-5.06591796875,11.474609375,6.28662109375,-14.5263671875,17.7978515625,-41.845703125
8.327,-0.6055908203125,-0.017333984375,-0.828125,-5.126953125,11.3525390625,6.34765625,-14.5263671875,17.7978515625,-41.845703125
8.341,-0.6055908203125,-0.017333984375,-0.828125,-5.126953125,11.3525390625,6.34765625,-14.5263671875,17.7978515625,-41.845703125
8.416,-0.6141357421875,-0.02734375,-0.82275390625,-5.37109375,11.3525390625,6.40869140625,-13.85498046875,16.95556640625,-40.91796875
8.417,-0.6141357421875,-0.02734375,-0.82275390625,-5.37109375,11.3525390625,6.40869140625,-14.0380859375,16.46728515625,-42.83447265625
8.42,-0.6141357421875,-0.02734375,-0.82275390625,-5.37109375,11.3525390625,6.40869140625,-14.0380859375,16.46728515625,-42.83447265625
8.454,-0.6141357421875,-0.02734375,-0.82275390625,-5.37109375,11.3525390625,6.40869140625,-14.0380859375,16.46728515625,-42.83447265625
8.461,-0.6224365234375,-0.0362548828125,-0.8162841796875,-4.94384765625,11.23046875,6.2255859375,-14.0380859375,16.46728515625,-42.83447265625
8.462,-0.6224365234375,-0.0362548828125,-0.8162841796875,-4.94384765625,11.23046875,6.2255859375,-13.2080078125,17.07763671875,-42.56591796875
8.505,-0.6297607421875,-0.046142578125,-0.8060302734375,-4.94384765625,11.23046875,6.2255859375,-13.2080078125,17.07763671875,-42.56591796875
8.506,-0.6297607421875,-0.046142578125,-0.8060302734375,-4.45556640625,10.55908203125,5.55419921875,-13.04931640625,16.1865234375,-42.37060546875
8.533,-0.6297607421875,-0.046142578125,-0.8060302734375,-4.45556640625,10.55908203125,5.55419921875,-13.04931640625,16.1865234375,-42.37060546875
8.551,-0.636474609375,-0.0535888671875,-0.801025390625,-4.45556640625,10.55908203125,5.55419921875,-13.04931640625,16.1865234375,-42.37060546875
8.552,-0.636474609375,-0.0535888671875,-0.801025390625,-3.41796875,10.19287109375,5.06591796875,-12.3779296875,16.29638671875,-41.41845703125
8.566,-0.636474609375,-0.0535888671875,-0.801025390625,-3.41796875,10.19287109375,5.06591796875,-12.3779296875,16.29638671875,-41.41845703125
8.596,-0.64501953125,-0.057373046875,-0.796875,-2.86865234375,9.70458984375,4.8828125,-12.3779296875,16.29638671875,-41.41845703125
8.597,-0.64501953125,-0.057373046875,-0.796875,-2.86865234375,9.70458984375,4.8828125,-11.87744140625,15.72265625,-42.39501953125
8.608,-0.64501953125,-0.057373046875,-0.796875,-2.86865234375,9.70458984375,4.8828125,-11.87744140625,15.72265625,-42.39501953125
8.64,-0.649658203125,-0.0625,-0.7896728515625,-2.86865234375,9.70458984375,4.8828125,-11.87744140625,15.72265625,-42.39501953125
8.641,-0.649658203125,-0.0625,-0.7896728515625,-2.50244140625,8.97216796875,4.45556640625,-11.4501953125,14.84375,-42.08984375
8.679,-0.649658203125,-0.0625,-0.7896728515625,-2.50244140625,8.97216796875,4.45556640625,-11.4501953125,14.84375,-42.08984375
8.686,-0.6539306640625,-0.0655517578125,-0.78515625,-2.44140625,8.7890625,4.2724609375,-11.4501953125,14.84375,-42.08984375
8.687,-0.6539306640625,-0.0655517578125,-0.78515625,-2.44140625,8.7890625,4.2724609375,-10.33935546875,15.34423828125,-40.95458984375
8.72,-0.6539306640625,-0.0655517578125,-0.78515625,-2.44140625,8.7890625,4.2724609375,-10.33935546875,15.34423828125,-40.95458984375
8.731,-0.6593017578125,-0.0679931640625,-0.78125,-2.25830078125,8.30078125,4.2724609375,-10.41259765625,15.625,-40.8447265625
8.775,-0.6636962890625,-0.072265625,-0.778564453125,-2.25830078125,8.30078125,4.2724609375,-10.41259765625,15.625,-40.8447265625
8.776,-0.6680908203125,-0.0733642578125,-0.77490234375,-2.5634765625,8.11767578125,4.33349609375,-10.41259765625,15.625,-40.8447265625
8.792,-0.6680908203125,-0.0733642578125,-0.77490234375,-2.5634765625,8.11767578125,4.33349609375,-10.41259765625,15.625,-40.8447265625
8.82,-0.6680908203125,-0.0733642578125,-0.77490234375,-2.50244140625,8.36181640625,4.39453125,-10.41259765625,15.625,-40.8447265625
8.821,-0.672607421875,-0.077392578125,-0.7694091796875,-2.50244140625,8.36181640625,4.39453125,-9.0576171875,15.05126953125,-41.2841796875
8.833,-0.672607421875,-0.077392578125,-0.7694091796875,-2.50244140625,8.36181640625,4.39453125,-9.0576171875,15.05126953125,-41.2841796875
8.865,-0.672607421875,-0.077392578125,-0.7694091796875,-2.74658203125,8.1787109375,4.82177734375,-9.0576171875,15.05126953125,-41.2841796875
8.866,-0.6756591796875,-0.07958984375,-0.765869140625,-2.74658203125,8.1787109375,4.82177734375,-9.3994140625,14.7216796875,-41.93115234375
8.904,-0.6756591796875,-0.07958984375,-0.765869140625,-2.74658203125,8.1787109375,4.82177734375,-9.3994140625,14.7216796875,-41.93115234375
8.907,-0.6756591796875,-0.07958984375,-0.765869140625,-2.74658203125,8.1787109375,4.82177734375,-9.3994140625,14.7216796875,-41.93115234375
8.911,-0.680908203125,-0.0849609375,-0.761962890625,-3.60107421875,8.36181640625,5.31005859375,-9.68017578125,14.8193359375,-40.91796875
8.941,-0.680908203125,-0.0849609375,-0.761962890625,-3.60107421875,8.36181640625,5.31005859375,-9.68017578125,14.8193359375,-40.91796875
8.955,-0.680908203125,-0.0849609375,-0.761962890625,-4.39453125,8.72802734375,6.103515625,-9.68017578125,14.8193359375,-40.91796875
9.001,-0.685546875,-0.0909423828125,-0.7581787109375,-5.55419921875,9.521484375,7.01904296875,-8.1787109375,14.17236328125,-41.650390625
9.004,-0.685546875,-0.0909423828125,-0.7581787109375,-5.55419921875,9.521484375,7.01904296875,-9.14306640625,14.14794921875,-40.6494140625
9.02,-0.685546875,-0.0909423828125,-0.7581787109375,-5.55419921875,9.521484375,7.01904296875,-9.14306640625,14.14794921875,-40.6494140625
9.046,-0.68896484375,-0.098388671875,-0.750732421875,-8.11767578125,11.53564453125,8.85009765625,-7.8369140625,13.19580078125,-41.357421875
9.054,-0.68896484375,-0.098388671875,-0.750732421875,-8.11767578125,11.53564453125,8.85009765625,-7.8369140625,13.19580078125,-41.357421875
9.091,-0.693115234375,-0.1102294921875,-0.7474365234375,-8.11767578125,11.53564453125,8.85009765625,-7.8369140625,13.19580078125,-41.357421875
9.092,-0.693115234375,-0.1102294921875,-0.7474365234375,-9.765625,13.85498046875,10.43701171875,-7.60498046875,12.90283203125,-40.75927734375
9.129,-0.693115234375,-0.1102294921875,-0.7474365234375,-9.765625,13.85498046875,10.43701171875,-7.60498046875,12.90283203125,-40.75927734375
9.133,-0.693115234375,-0.1102294921875,-0.7474365234375,-9.765625,13.85498046875,10.43701171875,-7.60498046875,12.90283203125,-40.75927734375
9.135,-0.6978759765625,-0.125244140625,-0.7388916015625,-9.765625,13.85498046875,10.43701171875,-7.60498046875,12.90283203125,-40.75927734375
9.136,-0.70361328125,-0.13671875,-0.7320556640625,-10.8642578125,16.2353515625,11.1083984375,-7.60498046875,12.90283203125,-40.75927734375
9.18,-0.70361328125,-0.13671875,-0.7320556640625,-10.92529296875,17.02880859375,11.41357421875,-7.60498046875,12.90283203125,-40.75927734375
9.181,-0.71044921875,-0.1552734375,-0.717529296875,-10.92529296875,17.02880859375,11.41357421875,-6.640625,12.646484375,-40.49072265625
9.208,-0.71044921875,-0.1552734375,-0.717529296875,-10.92529296875,17.02880859375,11.41357421875,-6.640625,12.646484375,-40.49072265625
9.226,-0.71044921875,-0.1552734375,-0.717529296875,-12.14599609375,19.95849609375,12.14599609375,-6.640625,12.646484375,-40.49072265625
9.227,-0.71044921875,-0.1552734375,-0.717529296875,-12.14599609375,19.95849609375,12.14599609375,-6.15234375,11.572265625,-40.22216796875
9.228,-0.7236328125,-0.16650390625,-0.70849609375,-12.14599609375,19.95849609375,12.14599609375,-6.15234375,11.572265625,-40.22216796875
9.242,-0.7236328125,-0.16650390625,-0.70849609375,-12.14599609375,19.95849609375,12.14599609375,-6.15234375,11.572265625,-40.22216796875
9.27,-0.7236328125,-0.16650390625,-0.70849609375,-13.18359375,23.98681640625,12.63427734375,-6.15234375,11.572265625,-40.22216796875
9.271,-0.740966796875,-0.18701171875,-0.6866455078125,-13.18359375,23.98681640625,12.63427734375,-5.06591796875,10.7177734375,-40.44189453125
9.32,-0.740966796875,-0.18701171875,-0.6866455078125,-13.18359375,23.98681640625,12.63427734375,-5.06591796875,10.7177734375,-40.44189453125
9.333,-0.7630615234375,-0.2073974609375,-0.6619873046875,-14.404296875,27.2216796875,13.427734375,-4.2724609375,10.33935546875,-40.0146484375
9.354,-0.7630615234375,-0.2073974609375,-0.6619873046875,-14.404296875,27.2216796875,13.427734375,-4.2724609375,10.33935546875,-40.0146484375
9.361,-0.7711181640625,-0.2293701171875,-0.6243896484375,-15.44189453125,30.09033203125,14.5263671875,-3.23486328125,9.08203125,-39.19677734375
9.405,-0.7711181640625,-0.2293701171875,-0.6243896484375,-15.9912109375,30.33447265625,14.404296875,-3.23486328125,9.08203125,-39.19677734375
9.406,-0.787841796875,-0.250732421875,-0.5992431640625,-15.9912109375,30.33447265625,14.404296875,-2.3193359375,8.2763671875,-38.63525390625
9.429,-0.787841796875,-0.250732421875,-0.5992431640625,-15.9912109375,30.33447265625,14.404296875,-2.3193359375,8.2763671875,-38.63525390625
9.433,-0.787841796875,-0.250732421875,-0.5992431640625,-15.9912109375,30.33447265625,14.404296875,-2.3193359375,8.2763671875,-38.63525390625
9.45,-0.787841796875,-0.250732421875,-0.5992431640625,-15.44189453125,28.9306640625,13.85498046875,-2.3193359375,8.2763671875,-38.63525390625
9.451,-0.8028564453125,-0.273193359375,-0.572021484375,-15.44189453125,28.9306640625,13.85498046875,-1.23291015625,8.14208984375,-38.18359375
9.497,-0.8193359375,-0.2840576171875,-0.5538330078125,-14.22119140625,26.9775390625,13.0615234375,-1.23291015625,8.14208984375,-38.18359375
9.497,-0.8193359375,-0.2840576171875,-0.5538330078125,-12.87841796875,24.59716796875,12.63427734375,-1.23291015625,8.14208984375,-38.18359375
9.508,-0.8193359375,-0.2840576171875,-0.5538330078125,-12.87841796875,24.59716796875,12.63427734375,-1.23291015625,8.14208984375,-38.18359375
9.541,-0.8226318359375,-0.2982177734375,-0.5360107421875,-12.51220703125,22.27783203125,12.20703125,0.1220703125,7.0068359375,-37.70751953125
9.585,-0.8228759765625,-0.299560546875,-0.53173828125,-12.51220703125,22.27783203125,12.20703125,0.1220703125,7.0068359375,-37.70751953125
9.586,-0.8228759765625,-0.299560546875,-0.53173828125,-12.14599609375,20.81298828125,12.39013671875,0.98876953125,6.38427734375,-37.3779296875
9.62,-0.8228759765625,-0.299560546875,-0.53173828125,-12.14599609375,20.81298828125,12.39013671875,0.98876953125,6.38427734375,-37.3779296875
9.631,-0.827880859375,-0.31396484375,-0.51953125,-11.962890625,20.263671875,12.75634765625,0.98876953125,6.38427734375,-37.3779296875
9.632,-0.827880859375,-0.31396484375,-0.51953125,-11.962890625,20.263671875,12.75634765625,2.42919921875,5.50537109375,-37.59765625
9.72,-0.8291015625,-0.3248291015625,-0.501953125,-11.962890625,20.263671875,12.75634765625,2.42919921875,5.50537109375,-37.59765625
9.721,-0.8291015625,-0.3248291015625,-0.501953125,-11.8408203125,20.44677734375,13.0615234375,3.2470703125,4.45556640625,-36.083984375
9.722,-0.8336181640625,-0.3369140625,-0.48291015625,-11.8408203125,20.44677734375,13.0615234375,3.2470703125,4.45556640625,-36.083984375
9.729,-0.8336181640625,-0.3369140625,-0.48291015625,-11.8408203125,20.44677734375,13.0615234375,3.2470703125,4.45556640625,-36.083984375
9.73,-0.8336181640625,-0.3369140625,-0.48291015625,-11.8408203125,20.44677734375,13.0615234375,3.2470703125,4.45556640625,-36.083984375
9.732,-0.8336181640625,-0.3369140625,-0.48291015625,-11.8408203125,20.44677734375,13.0615234375,3.2470703125,4.45556640625,-36.083984375
9.766,-0.8336181640625,-0.3369140625,-0.48291015625,-12.451171875,20.263671875,14.09912109375,3.2470703125,4.45556640625,-36.083984375
9.767,-0.844482421875,-0.3681640625,-0.451171875,-12.451171875,20.263671875,14.09912109375,4.11376953125,3.22265625,-34.5947265625
9.808,-0.844482421875,-0.3681640625,-0.451171875,-12.451171875,20.263671875,14.09912109375,4.11376953125,3.22265625,-34.5947265625
9.811,-0.84521484375,-0.385986328125,-0.4310302734375,-13.61083984375,21.1181640625,15.19775390625,4.47998046875,2.33154296875,-34.27734375
9.842,-0.84521484375,-0.385986328125,-0.4310302734375,-13.61083984375,21.1181640625,15.19775390625,4.47998046875,2.33154296875,-34.27734375
9.856,-0.8475341796875,-0.3990478515625,-0.4146728515625,-14.404296875,21.54541015625,16.11328125,4.47998046875,2.33154296875,-34.27734375
9.857,-0.8475341796875,-0.3990478515625,-0.4146728515625,-14.892578125,22.3388671875,16.41845703125,4.47998046875,2.33154296875,-34.27734375
9.901,-0.8475341796875,-0.3990478515625,-0.4146728515625,-14.892578125,22.3388671875,16.41845703125,5.078125,1.513671875,-33.837890625
9.902,-0.8502197265625,-0.423583984375,-0.38525390625,-15.13671875,22.705078125,16.7236328125,5.078125,1.513671875,-33.837890625
9.92,-0.8502197265625,-0.423583984375,-0.38525390625,-15.13671875,22.705078125,16.7236328125,5.078125,1.513671875,-33.837890625
9.946,-0.8502197265625,-0.423583984375,-0.38525390625,-15.19775390625,22.94921875,16.78466796875,5.13916015625,0.0732421875,-33.45947265625
9.947,-0.856201171875,-0.4398193359375,-0.3629150390625,-15.19775390625,22.94921875,16.78466796875,5.13916015625,0.0732421875,-33.45947265625
9.954,-0.856201171875,-0.4398193359375,-0.3629150390625,-15.19775390625,22.94921875,16.78466796875,5.13916015625,0.0732421875,-33.45947265625
9.991,-0.856201171875,-0.4398193359375,-0.3629150390625,-15.13671875,22.52197265625,16.78466796875,5.13916015625,0.0732421875,-33.45947265625
9.992,-0.854248046875,-0.4573974609375,-0.3367919921875,-15.13671875,22.52197265625,16.78466796875,6.005859375,0.3173828125,-32.2265625
10.029,-0.854248046875,-0.4573974609375,-0.3367919921875,-15.13671875,22.52197265625,16.78466796875,6.005859375,0.3173828125,-32.2265625
10.032,-0.854248046875,-0.4573974609375,-0.3367919921875,-15.13671875,22.52197265625,16.78466796875,6.005859375,0.3173828125,-32.2265625
10.035,-0.854248046875,-0.4573974609375,-0.3367919921875,-15.07568359375,22.3388671875,17.08984375,6.005859375,0.3173828125,-32.2265625
10.036,-0.8526611328125,-0.4710693359375,-0.31787109375,-15.07568359375,22.3388671875,17.08984375,6.25,-1.3916015625,-31.8115234375
10.081,-0.8533935546875,-0.4940185546875,-0.2921142578125,-15.07568359375,21.97265625,17.4560546875,7.04345703125,-3.076171875,-31.6650390625
10.108,-0.8533935546875,-0.4940185546875,-0.2921142578125,-15.07568359375,21.97265625,17.4560546875,7.04345703125,-3.076171875,-31.6650390625
10.125,-0.8533935546875,-0.4940185546875,-0.2921142578125,-15.0146484375,21.728515625,17.39501953125,7.04345703125,-3.076171875,-31.6650390625
10.126,-0.8533935546875,-0.4940185546875,-0.2921142578125,-15.0146484375,21.728515625,17.39501953125,7.82470703125,-3.35693359375,-31.4697265625
10.127,-0.8475341796875,-0.5040283203125,-0.270263671875,-15.0146484375,21.728515625,17.39501953125,7.82470703125,-3.35693359375,-31.4697265625
10.142,-0.8475341796875,-0.5040283203125,-0.270263671875,-15.0146484375,21.728515625,17.39501953125,7.82470703125,-3.35693359375,-31.4697265625
10.172,-0.8433837890625,-0.5211181640625,-0.2470703125,-14.5263671875,21.78955078125,17.02880859375,8.1787109375,-5.17578125,-29.57763671875
10.215,-0.8433837890625,-0.5211181640625,-0.2470703125,-14.892578125,21.97265625,16.66259765625,8.1787109375,-5.17578125,-29.57763671875
10.216,-0.841552734375,-0.5306396484375,-0.231689453125,-15.5029296875,22.4609375,16.41845703125,8.1787109375,-5.17578125,-29.57763671875
10.22,-0.841552734375,-0.5306396484375,-0.231689453125,-15.5029296875,22.4609375,16.41845703125,8.1787109375,-5.17578125,-29.57763671875
10.254,-0.841552734375,-0.5306396484375,-0.231689453125,-15.5029296875,22.4609375,16.41845703125,8.1787109375,-5.17578125,-29.57763671875
10.305,-0.841552734375,-0.5306396484375,-0.231689453125,-15.5029296875,22.4609375,16.41845703125,8.056640625,-5.06591796875,-29.67529296875
10.329,-0.841552734375,-0.5306396484375,-0.231689453125,-15.5029296875,22.4609375,16.41845703125,8.056640625,-5.06591796875,-29.67529296875
10.333,-0.841552734375,-0.5306396484375,-0.231689453125,-15.5029296875,22.4609375,16.41845703125,8.056640625,-5.06591796875,-29.67529296875
10.388,-0.8349609375,-0.5478515625,-0.200927734375,-16.2353515625,23.74267578125,15.68603515625,8.056640625,-5.06591796875,-29.67529296875
10.408,-0.8349609375,-0.5478515625,-0.200927734375,-16.2353515625,23.74267578125,15.68603515625,8.056640625,-5.06591796875,-29.67529296875
10.441,-0.8397216796875,-0.562744140625,-0.1767578125,-16.2353515625,23.74267578125,15.68603515625,8.45947265625,-5.45654296875,-29.6630859375
10.442,-0.8397216796875,-0.562744140625,-0.1767578125,-16.7236328125,26.123046875,14.7705078125,8.45947265625,-5.45654296875,-29.6630859375
10.479,-0.8397216796875,-0.562744140625,-0.1767578125,-16.7236328125,26.123046875,14.7705078125,8.45947265625,-5.45654296875,-29.6630859375
10.52,-0.8397216796875,-0.562744140625,-0.1767578125,-16.7236328125,26.123046875,14.7705078125,8.45947265625,-5.45654296875,-29.6630859375
10.53,-0.8397216796875,-0.562744140625,-0.1767578125,-16.7236328125,26.123046875,14.7705078125,9.14306640625,-6.79931640625,-26.5625
10.531,-0.8177490234375,-0.6051025390625,-0.0474853515625,-13.671875,21.6064453125,9.82666015625,9.14306640625,-6.79931640625,-26.5625
10.554,-0.8177490234375,-0.6051025390625,-0.0474853515625,-13.671875,21.6064453125,9.82666015625,9.14306640625,-6.79931640625,-26.5625
10.576,-0.8157958984375,-0.6123046875,-0.023681640625,-9.1552734375,15.07568359375,6.8359375,9.75341796875,-8.59375,-24.21875
10.629,-0.8157958984375,-0.6123046875,-0.023681640625,-9.1552734375,15.07568359375,6.8359375,9.75341796875,-8.59375,-24.21875
10.633,-0.8157958984375,-0.6123046875,-0.023681640625,-9.1552734375,15.07568359375,6.8359375,9.75341796875,-8.59375,-24.21875
10.666,-0.81201171875,-0.617431640625,-0.003173828125,-9.1552734375,15.07568359375,6.8359375,11.36474609375,-9.87548828125,-23.03466796875
10.668,-0.81201171875,-0.617431640625,-0.003173828125,-6.591796875,11.1083984375,5.2490234375,11.36474609375,-9.87548828125,-23.03466796875
10.707,-0.81201171875,-0.617431640625,-0.003173828125,-6.591796875,11.1083984375,5.2490234375,11.36474609375,-9.87548828125,-23.03466796875
10.711,-0.811767578125,-0.620361328125,0.0059814453125,-6.591796875,11.1083984375,5.2490234375,11.36474609375,-9.87548828125,-23.03466796875
10.712,-0.8094482421875,-0.61962890625,0.016845703125,-2.13623046875,5.615234375,2.8076171875,11.6943359375,-9.1552734375,-22.65625
10.741,-0.8094482421875,-0.61962890625,0.016845703125,-2.13623046875,5.615234375,2.8076171875,11.6943359375,-9.1552734375,-22.65625
10.82,-0.8094482421875,-0.61962890625,0.016845703125,-2.13623046875,5.615234375,2.8076171875,11.6943359375,-9.1552734375,-22.65625
10.854,-0.8094482421875,-0.61962890625,0.016845703125,-2.13623046875,5.615234375,2.8076171875,11.6943359375,-9.1552734375,-22.65625
10.896,-0.8094482421875,-0.61962890625,0.016845703125,-2.13623046875,5.615234375,2.8076171875,11.572265625,-9.716796875,-22.94921875
10.897,-0.8101806640625,-0.619384765625,0.0189208984375,-2.13623046875,5.615234375,2.8076171875,11.572265625,-9.716796875,-22.94921875
10.898,-0.8101806640625,-0.619384765625,0.0189208984375,-0.18310546875,2.685546875,1.89208984375,11.572265625,-9.716796875,-22.94921875
10.899,-0.8101806640625,-0.619384765625,0.0189208984375,-0.18310546875,2.685546875,1.89208984375,11.81640625,-10.15625,-21.3134765625
10.929,-0.8101806640625,-0.619384765625,0.0189208984375,-0.18310546875,2.685546875,1.89208984375,11.81640625,-10.15625,-21.3134765625
10.933,-0.8101806640625,-0.619384765625,0.0189208984375,-0.18310546875,2.685546875,1.89208984375,11.81640625,-10.15625,-21.3134765625
10.936,-0.8101806640625,-0.61962890625,0.0198974609375,6.2255859375,-5.4931640625,-0.79345703125,11.81640625,-10.15625,-21.3134765625
10.937,-0.8101806640625,-0.61962890625,0.0198974609375,6.2255859375,-5.4931640625,-0.79345703125,11.4501953125,-9.68017578125,-22.6806640625
10.98,-0.812744140625,-0.614990234375,0.00341796875,6.2255859375,-5.4931640625,-0.79345703125,11.4501953125,-9.68017578125,-22.6806640625
10.981,-0.8145751953125,-0.6138916015625,-0.0054931640625,7.99560546875,-7.99560546875,-1.5869140625,11.4501953125,-9.68017578125,-22.6806640625
11.007,-0.8145751953125,-0.6138916015625,-0.0054931640625,7.99560546875,-7.99560546875,-1.5869140625,11.4501953125,-9.68017578125,-22.6806640625
11.042,-0.8145751953125,-0.6138916015625,-0.0054931640625,7.99560546875,-7.99560546875,-1.5869140625,11.4501953125,-9.68017578125,-22.6806640625
11.116,-0.817626953125,-0.611083984375,-0.0167236328125,7.99560546875,-7.99560546875,-1.5869140625,10.8154296875,-8.97216796875,-23.4130859375
11.12,-0.817626953125,-0.611083984375,-0.0167236328125,7.99560546875,-7.99560546875,-1.5869140625,10.8154296875,-8.97216796875,-23.4130859375
11.162,-0.818115234375,-0.6102294921875,-0.023193359375,9.3994140625,-10.25390625,-2.197265625,10.0830078125,-8.53271484375,-24.23095703125
11.162,-0.818115234375,-0.6102294921875,-0.023193359375,10.31494140625,-11.71875,-2.62451171875,10.0830078125,-8.53271484375,-24.23095703125
11.205,-0.821533203125,-0.5965576171875,-0.0794677734375,10.31494140625,-11.71875,-2.62451171875,10.0830078125,-8.53271484375,-24.23095703125
11.206,-0.821533203125,-0.5965576171875,-0.0794677734375,11.23046875,-12.75634765625,-3.72314453125,10.21728515625,-8.0322265625,-24.98779296875
11.231,-0.821533203125,-0.5965576171875,-0.0794677734375,11.23046875,-12.75634765625,-3.72314453125,10.21728515625,-8.0322265625,-24.98779296875
11.231,-0.821533203125,-0.5965576171875,-0.0794677734375,11.23046875,-12.75634765625,-3.72314453125,10.21728515625,-8.0322265625,-24.98779296875
11.232,-0.821533203125,-0.5965576171875,-0.0794677734375,11.23046875,-12.75634765625,-3.72314453125,10.21728515625,-8.0322265625,-24.98779296875
11.251,-0.8250732421875,-0.590087890625,-0.10400390625,10.68115234375,-11.65771484375,-4.08935546875,10.43701171875,-7.80029296875,-26.025390625
11.295,-0.8309326171875,-0.5870361328125,-0.121337890625,10.68115234375,-11.65771484375,-4.08935546875,10.43701171875,-7.80029296875,-26.025390625
11.296,-0.8309326171875,-0.5870361328125,-0.121337890625,9.46044921875,-9.94873046875,-4.2724609375,9.53369140625,-7.1533203125,-25.91552734375
11.308,-0.8309326171875,-0.5870361328125,-0.121337890625,9.46044921875,-9.94873046875,-4.2724609375,9.53369140625,-7.1533203125,-25.91552734375
11.341,-0.8330078125,-0.5760498046875,-0.1385498046875,7.75146484375,-7.50732421875,-3.90625,9.53369140625,-7.1533203125,-25.91552734375
11.341,-0.8343505859375,-0.568359375,-0.151611328125,7.75146484375,-7.50732421875,-3.90625,9.53369140625,-7.1533203125,-25.91552734375
11.342,-0.8343505859375,-0.568359375,-0.151611328125,7.75146484375,-7.50732421875,-3.90625,9.53369140625,-7.1533203125,-25.91552734375
11.386,-0.8343505859375,-0.568359375,-0.151611328125,7.75146484375,-7.50732421875,-3.90625,9.5947265625,-6.787109375,-26.72119140625
11.387,-0.8360595703125,-0.563232421875,-0.1600341796875,6.65283203125,-5.7373046875,-3.47900390625,9.5947265625,-6.787109375,-26.72119140625
11.43,-0.83544921875,-0.5625,-0.1605224609375,6.65283203125,-5.7373046875,-3.47900390625,9.5947265625,-6.787109375,-26.72119140625
11.431,-0.83544921875,-0.5625,-0.1605224609375,4.5166015625,-2.86865234375,-2.62451171875,9.27734375,-6.40869140625,-27.40478515625
11.454,-0.83544921875,-0.5625,-0.1605224609375,4.5166015625,-2.86865234375,-2.62451171875,9.27734375,-6.40869140625,-27.40478515625
11.475,-0.841064453125,-0.55859375,-0.1669921875,4.5166015625,-2.86865234375,-2.62451171875,9.27734375,-6.40869140625,-27.40478515625
11.476,-0.841064453125,-0.55859375,-0.1669921875,3.11279296875,-0.9765625,-1.708984375,9.28955078125,-5.95703125,-27.4169921875
11.495,-0.841064453125,-0.55859375,-0.1669921875,3.11279296875,-0.9765625,-1.708984375,9.28955078125,-5.95703125,-27.4169921875
11.533,-0.841064453125,-0.55859375,-0.1669921875,3.11279296875,-0.9765625,-1.708984375,9.28955078125,-5.95703125,-27.4169921875
11.566,-0.841064453125,-0.55419921875,-0.16943359375,3.11279296875,-0.9765625,-1.708984375,9.28955078125,-5.95703125,-27.4169921875
11.567,-0.841064453125,-0.55419921875,-0.16943359375,1.28173828125,1.03759765625,-0.42724609375,9.28955078125,-5.95703125,-27.4169921875
11.568,-0.841064453125,-0.55419921875,-0.16943359375,1.28173828125,1.03759765625,-0.42724609375,9.27734375,-5.84716796875,-26.6357421875
11.569,-0.8421630859375,-0.5517578125,-0.170166015625,1.28173828125,1.03759765625,-0.42724609375,9.27734375,-5.84716796875,-26.6357421875
11.608,-0.8421630859375,-0.5517578125,-0.170166015625,1.28173828125,1.03759765625,-0.42724609375,9.27734375,-5.84716796875,-26.6357421875
11.611,-0.8458251953125,-0.5526123046875,-0.1627197265625,0.06103515625,2.74658203125,0.79345703125,9.6435546875,-6.55517578125,-27.24609375
11.642,-0.8458251953125,-0.5526123046875,-0.1627197265625,0.06103515625,2.74658203125,0.79345703125,9.6435546875,-6.55517578125,-27.24609375
11.655,-0.8458251953125,-0.5526123046875,-0.1627197265625,-1.28173828125,4.57763671875,2.3193359375,9.6435546875,-6.55517578125,-27.24609375
11.656,-0.846435546875,-0.5540771484375,-0.1568603515625,-1.28173828125,4.57763671875,2.3193359375,9.77783203125,-5.4931640625,-27.57568359375
11.704,-0.875,-0.55908203125,-0.146484375,-2.44140625,6.34765625,4.0283203125,9.77783203125,-5.4931640625,-27.57568359375
11.704,-0.875,-0.55908203125,-0.146484375,-3.35693359375,7.080078125,5.37109375,9.77783203125,-5.4931640625,-27.57568359375
11.72,-0.875,-0.55908203125,-0.146484375,-3.35693359375,7.080078125,5.37109375,9.77783203125,-5.4931640625,-27.57568359375
11.754,-0.875,-0.55908203125,-0.146484375,-3.35693359375,7.080078125,5.37109375,9.77783203125,-5.4931640625,-27.57568359375
11.761,-0.841796875,-0.5606689453125,-0.14013671875,-3.84521484375,7.50732421875,6.103515625,9.375,-5.70068359375,-26.2939453125
11.79,-0.8406982421875,-0.5631103515625,-0.1370849609375,-3.84521484375,7.50732421875,6.103515625,9.375,-5.70068359375,-26.2939453125
11.791,-0.8406982421875,-0.5631103515625,-0.1370849609375,-4.0283203125,7.99560546875,6.8359375,9.375,-5.70068359375,-26.2939453125
11.792,-0.8406982421875,-0.5631103515625,-0.1370849609375,-4.0283203125,7.99560546875,6.8359375,9.8876953125,-6.25,-27.197265625
11.829,-0.8406982421875,-0.5631103515625,-0.1370849609375,-4.0283203125,7.99560546875,6.8359375,9.8876953125,-6.25,-27.197265625
11.832,-0.8406982421875,-0.5631103515625,-0.1370849609375,-4.0283203125,7.99560546875,6.8359375,9.8876953125,-6.25,-27.197265625
11.836,-0.840087890625,-0.5706787109375,-0.1279296875,-3.90625,7.87353515625,7.080078125,9.4482421875,-6.5185546875,-26.74560546875
11.927,-0.8360595703125,-0.575927734375,-0.1168212890625,-3.72314453125,7.32421875,6.8359375,9.4482421875,-6.5185546875,-26.74560546875
11.928,-0.8360595703125,-0.575927734375,-0.1168212890625,-3.72314453125,7.32421875,6.8359375,9.86328125,-6.60400390625,-26.08642578125
11.933,-0.83251953125,-0.58154296875,-0.1072998046875,-3.72314453125,7.32421875,6.8359375,9.86328125,-6.60400390625,-26.08642578125
11.942,-0.83251953125,-0.58154296875,-0.1072998046875,-3.72314453125,7.32421875,6.8359375,9.86328125,-6.60400390625,-26.08642578125
11.946,-0.83251953125,-0.58154296875,-0.1072998046875,-3.72314453125,7.32421875,6.8359375,9.86328125,-6.60400390625,-26.08642578125
11.971,-0.83251953125,-0.58154296875,-0.1072998046875,-3.0517578125,6.4697265625,6.2255859375,10.0341796875,-7.60498046875,-25.0
11.972,-0.8277587890625,-0.5909423828125,-0.0936279296875,-3.0517578125,6.4697265625,6.2255859375,10.0341796875,-7.60498046875,-25.0
12.015,-0.8277587890625,-0.5909423828125,-0.0936279296875,-1.8310546875,5.18798828125,5.06591796875,10.0341796875,-7.60498046875,-25.0
12.02,-0.8277587890625,-0.5909423828125,-0.0936279296875,-1.8310546875,5.18798828125,5.06591796875,10.0341796875,-7.60498046875,-25.0
12.054,-0.8277587890625,-0.5909423828125,-0.0936279296875,-1.8310546875,5.18798828125,5.06591796875,10.0341796875,-7.60498046875,-25.0
12.06,-0.8277587890625,-0.5909423828125,-0.0936279296875,-1.8310546875,5.18798828125,5.06591796875,9.55810546875,-6.787109375,-25.439453125
12.061,-0.8284912109375,-0.594482421875,-0.0897216796875,-0.8544921875,3.662109375,3.72314453125,9.55810546875,-6.787109375,-25.439453125
12.062,-0.826904296875,-0.59375,-0.0882568359375,-0.8544921875,3.662109375,3.72314453125,9.55810546875,-6.787109375,-25.439453125
12.105,-0.826904296875,-0.59375,-0.0882568359375,0.244140625,2.25830078125,2.5634765625,9.55810546875,-6.787109375,-25.439453125
12.106,-0.826904296875,-0.59375,-0.0882568359375,0.244140625,2.25830078125,2.5634765625,10.97412109375,-8.14208984375,-25.537109375
12.107,-0.8260498046875,-0.5921630859375,-0.0877685546875,0.244140625,2.25830078125,2.5634765625,10.97412109375,-8.14208984375,-25.537109375
12.13,-0.8260498046875,-0.5921630859375,-0.0877685546875,0.244140625,2.25830078125,2.5634765625,10.97412109375,-8.14208984375,-25.537109375
12.133,-0.8260498046875,-0.5921630859375,-0.0877685546875,0.244140625,2.25830078125,2.5634765625,10.97412109375,-8.14208984375,-25.537109375
12.151,-0.8271484375,-0.5914306640625,-0.0887451171875,1.15966796875,1.15966796875,1.5869140625,10.05859375,-8.056640625,-25.25634765625
12.195,-0.8271484375,-0.5914306640625,-0.0887451171875,1.89208984375,0.30517578125,0.3662109375,10.05859375,-8.056640625,-25.25634765625
12.196,-0.8271484375,-0.5914306640625,-0.0887451171875,1.89208984375,0.30517578125,0.3662109375,10.38818359375,-8.14208984375,-25.25634765625
12.197,-0.8297119140625,-0.58984375,-0.0921630859375,1.89208984375,0.30517578125,0.3662109375,10.38818359375,-8.14208984375,-25.25634765625
12.208,-0.8297119140625,-0.58984375,-0.0921630859375,1.89208984375,0.30517578125,0.3662109375,10.38818359375,-8.14208984375,-25.25634765625
12.24,-0.8297119140625,-0.58984375,-0.0921630859375,2.74658203125,-0.79345703125,-0.42724609375,10.38818359375,-8.14208984375,-25.25634765625
12.241,-0.8297119140625,-0.58984375,-0.0921630859375,2.74658203125,-0.79345703125,-0.42724609375,10.38818359375,-8.14208984375,-25.25634765625
12.286,-0.83154296875,-0.587158203125,-0.0977783203125,2.74658203125,-0.79345703125,-0.42724609375,10.51025390625,-7.38525390625,-25.3662109375
12.287,-0.83154296875,-0.587158203125,-0.0977783203125,3.23486328125,-1.46484375,-0.91552734375,10.51025390625,-7.38525390625,-25.3662109375
12.32,-0.83154296875,-0.587158203125,-0.0977783203125,3.23486328125,-1.46484375,-0.91552734375,10.51025390625,-7.38525390625,-25.3662109375
12.333,-0.83154296875,-0.587158203125,-0.0977783203125,3.23486328125,-1.46484375,-0.91552734375,9.92431640625,-7.21435546875,-25.91552734375
12.336,-0.832763671875,-0.5784912109375,-0.1083984375,3.84521484375,-2.0751953125,-1.220703125,9.92431640625,-7.21435546875,-25.91552734375
12.354,-0.832763671875,-0.5784912109375,-0.1083984375,3.84521484375,-2.0751953125,-1.220703125,9.92431640625,-7.21435546875,-25.91552734375
12.375,-0.832763671875,-0.5784912109375,-0.1083984375,3.84521484375,-2.0751953125,-1.220703125,9.19189453125,-7.3974609375,-25.78125
12.376,-0.8360595703125,-0.576171875,-0.1134033203125,3.5400390625,-1.953125,-1.03759765625,9.19189453125,-7.3974609375,-25.78125
12.421,-0.8360595703125,-0.576171875,-0.1134033203125,3.5400390625,-1.953125,-1.03759765625,9.89990234375,-7.2021484375,-26.123046875
12.429,-0.8360595703125,-0.576171875,-0.1134033203125,3.5400390625,-1.953125,-1.03759765625,9.89990234375,-7.2021484375,-26.123046875
12.433,-0.8360595703125,-0.576171875,-0.1134033203125,3.5400390625,-1.953125,-1.03759765625,9.89990234375,-7.2021484375,-26.123046875
12.474,-0.8372802734375,-0.5736083984375,-0.11962890625,3.2958984375,-1.52587890625,-0.48828125,9.89990234375,-7.2021484375,-26.123046875
12.508,-0.8372802734375,-0.5736083984375,-0.11962890625,3.2958984375,-1.52587890625,-0.48828125,9.89990234375,-7.2021484375,-26.123046875
12.542,-0.8372802734375,-0.5736083984375,-0.11962890625,3.2958984375,-1.52587890625,-0.48828125,9.89990234375,-7.2021484375,-26.123046875
12.6,-0.8372802734375,-0.5736083984375,-0.11962890625,3.2958984375,-1.52587890625,-0.48828125,9.65576171875,-7.36083984375,-26.123046875
12.601,-0.837158203125,-0.57177734375,-0.123291015625,3.2958984375,-1.52587890625,-0.48828125,9.65576171875,-7.36083984375,-26.123046875
12.602,-0.837158203125,-0.57177734375,-0.123291015625,2.8076171875,-0.9765625,0.06103515625,9.47265625,-6.75048828125,-25.1708984375
12.62,-0.837158203125,-0.57177734375,-0.123291015625,2.8076171875,-0.9765625,0.06103515625,9.47265625,-6.75048828125,-25.1708984375
12.645,-0.8367919921875,-0.56982421875,-0.1259765625,2.8076171875,-0.9765625,0.06103515625,9.47265625,-6.75048828125,-25.1708984375
12.646,-0.8367919921875,-0.56982421875,-0.1259765625,0.54931640625,1.77001953125,2.3193359375,9.47265625,-6.75048828125,-25.1708984375
12.647,-0.8367919921875,-0.56982421875,-0.1259765625,0.54931640625,1.77001953125,2.3193359375,10.11962890625,-6.5185546875,-26.84326171875
12.654,-0.8367919921875,-0.56982421875,-0.1259765625,0.54931640625,1.77001953125,2.3193359375,10.11962890625,-6.5185546875,-26.84326171875
12.693,-0.8369140625,-0.5711669921875,-0.1263427734375,0.1220703125,2.50244140625,2.38037109375,10.11962890625,-6.5185546875,-26.84326171875
12.694,-0.8369140625,-0.5711669921875,-0.1263427734375,0.1220703125,2.50244140625,2.38037109375,9.8876953125,-7.177734375,-26.46484375
12.729,-0.8369140625,-0.5711669921875,-0.1263427734375,0.1220703125,2.50244140625,2.38037109375,9.8876953125,-7.177734375,-26.46484375
12.732,-0.8369140625,-0.5711669921875,-0.1263427734375,0.1220703125,2.50244140625,2.38037109375,9.8876953125,-7.177734375,-26.46484375
12.78,-0.8353271484375,-0.572509765625,-0.1234130859375,0.1220703125,2.50244140625,2.38037109375,9.8876953125,-7.177734375,-26.46484375
12.781,-0.8353271484375,-0.572509765625,-0.1234130859375,-0.48828125,2.685546875,2.62451171875,10.7177734375,-8.04443359375,-26.6845703125
12.782,-0.8349609375,-0.5745849609375,-0.1201171875,-0.48828125,2.685546875,2.62451171875,10.7177734375,-8.04443359375,-26.6845703125
12.807,-0.8349609375,-0.5745849609375,-0.1201171875,-0.48828125,2.685546875,2.62451171875,10.7177734375,-8.04443359375,-26.6845703125
12.825,-0.8349609375,-0.5745849609375,-0.1201171875,-0.42724609375,3.0517578125,2.62451171875,10.7177734375,-8.04443359375,-26.6845703125
12.826,-0.8349609375,-0.5745849609375,-0.1201171875,-0.42724609375,3.0517578125,2.62451171875,9.9365234375,-7.26318359375,-26.13525390625
12.828,-0.8355712890625,-0.5758056640625,-0.1141357421875,-0.42724609375,3.0517578125,2.62451171875,9.9365234375,-7.26318359375,-26.13525390625
12.87,-0.8355712890625,-0.5758056640625,-0.1141357421875,-0.42724609375,3.173828125,2.685546875,9.9365234375,-7.26318359375,-26.13525390625
12.871,-0.834716796875,-0.575927734375,-0.1116943359375,-0.42724609375,3.173828125,2.685546875,10.38818359375,-6.4453125,-26.7333984375
12.879,-0.834716796875,-0.575927734375,-0.1116943359375,-0.42724609375,3.173828125,2.685546875,10.38818359375,-6.4453125,-26.7333984375
12.916,-0.834716796875,-0.575927734375,-0.1116943359375,-0.30517578125,2.99072265625,2.50244140625,10.38818359375,-6.4453125,-26.7333984375
12.92,-0.834716796875,-0.575927734375,-0.1116943359375,-0.30517578125,2.99072265625,2.50244140625,10.38818359375,-6.4453125,-26.7333984375
12.961,-0.8355712890625,-0.5770263671875,-0.10986328125,-0.244140625,2.685546875,2.44140625,9.66796875,-6.84814453125,-25.32958984375
12.992,-0.8355712890625,-0.5770263671875,-0.10986328125,-0.244140625,2.685546875,2.44140625,9.66796875,-6.84814453125,-25.32958984375
13.005,-0.8355712890625,-0.5770263671875,-0.10986328125,-0.244140625,2.685546875,2.44140625,10.31494140625,-7.80029296875,-25.10986328125
13.029,-0.8355712890625,-0.5770263671875,-0.10986328125,-0.244140625,2.685546875,2.44140625,10.31494140625,-7.80029296875,-25.10986328125
13.033,-0.8355712890625,-0.5770263671875,-0.10986328125,-0.244140625,2.685546875,2.44140625,10.31494140625,-7.80029296875,-25.10986328125
13.05,-0.83544921875,-0.57666015625,-0.105712890625,-0.244140625,2.685546875,2.44140625,10.31494140625,-7.80029296875,-25.10986328125
13.051,-0.83544921875,-0.57666015625,-0.105712890625,0.3662109375,2.01416015625,2.25830078125,10.31494140625,-7.80029296875,-25.10986328125
13.096,-0.8348388671875,-0.5792236328125,-0.1051025390625,0.732421875,1.220703125,2.3193359375,10.0341796875,-6.79931640625,-25.98876953125
13.097,-0.8348388671875,-0.5792236328125,-0.1051025390625,0.732421875,1.220703125,2.3193359375,10.26611328125,-7.861328125,-26.220703125
13.108,-0.8348388671875,-0.5792236328125,-0.1051025390625,0.732421875,1.220703125,2.3193359375,10.26611328125,-7.861328125,-26.220703125
13.14,-0.8323974609375,-0.5789794921875,-0.1043701171875,0.732421875,1.220703125,2.3193359375,10.26611328125,-7.861328125,-26.220703125
13.141,-0.8323974609375,-0.5789794921875,-0.1043701171875,1.28173828125,0.732421875,2.13623046875,10.0830078125,-7.48291015625,-25.4638671875
13.142,-0.8323974609375,-0.5789794921875,-0.1043701171875,1.28173828125,0.732421875,2.13623046875,10.0830078125,-7.48291015625,-25.4638671875
13.186,-0.83544921875,-0.5814208984375,-0.105224609375,1.5869140625,0.30517578125,2.01416015625,10.0830078125,-7.48291015625,-25.4638671875
13.186,-0.83544921875,-0.580810546875,-0.106689453125,1.5869140625,0.30517578125,2.01416015625,10.0830078125,-7.48291015625,-25.4638671875
13.22,-0.83544921875,-0.580810546875,-0.106689453125,1.5869140625,0.30517578125,2.01416015625,10.0830078125,-7.48291015625,-25.4638671875
13.231,-0.832275390625,-0.5799560546875,-0.1085205078125,1.64794921875,0.3662109375,2.01416015625,10.16845703125,-7.38525390625,-24.853515625
13.276,-0.83349609375,-0.5791015625,-0.1103515625,1.5869140625,0.3662109375,1.953125,10.70556640625,-7.09228515625,-25.390625
13.321,-0.83349609375,-0.5791015625,-0.1103515625,1.64794921875,0.244140625,1.64794921875,9.99755859375,-7.0068359375,-25.64697265625
13.322,-0.8330078125,-0.5806884765625,-0.112060546875,1.64794921875,0.244140625,1.64794921875,9.99755859375,-7.0068359375,-25.64697265625
13.329,-0.8330078125,-0.5806884765625,-0.112060546875,1.64794921875,0.244140625,1.64794921875,9.99755859375,-7.0068359375,-25.64697265625
13.33,-0.8330078125,-0.5806884765625,-0.112060546875,1.64794921875,0.244140625,1.64794921875,9.99755859375,-7.0068359375,-25.64697265625
13.332,-0.8330078125,-0.5806884765625,-0.112060546875,1.64794921875,0.244140625,1.64794921875,9.99755859375,-7.0068359375,-25.64697265625
13.408,-0.8330078125,-0.5806884765625,-0.112060546875,1.64794921875,0.244140625,1.64794921875,9.99755859375,-7.0068359375,-25.64697265625
13.41,-0.8330078125,-0.5806884765625,-0.112060546875,1.5869140625,0.30517578125,1.3427734375,9.99755859375,-7.0068359375,-25.64697265625
13.411,-0.834228515625,-0.5797119140625,-0.114013671875,1.5869140625,0.30517578125,1.3427734375,10.07080078125,-7.53173828125,-25.537109375
13.412,-0.834228515625,-0.5797119140625,-0.114013671875,1.46484375,0.42724609375,1.220703125,10.07080078125,-7.53173828125,-25.537109375
13.442,-0.834228515625,-0.5797119140625,-0.114013671875,1.46484375,0.42724609375,1.220703125,10.07080078125,-7.53173828125,-25.537109375
13.455,-0.834228515625,-0.5797119140625,-0.114013671875,1.46484375,0.42724609375,1.220703125,10.11962890625,-7.04345703125,-26.52587890625
13.456,-0.835693359375,-0.5791015625,-0.1162109375,1.46484375,0.42724609375,1.220703125,10.11962890625,-7.04345703125,-26.52587890625
13.457,-0.835693359375,-0.5791015625,-0.1162109375,1.0986328125,1.03759765625,1.03759765625,10.11962890625,-7.04345703125,-26.52587890625
13.514,-0.835693359375,-0.5791015625,-0.1162109375,1.0986328125,1.03759765625,1.03759765625,9.9609375,-7.1044921875,-24.90234375
13.515,-0.83447265625,-0.57861328125,-0.1156005859375,1.0986328125,1.28173828125,1.03759765625,9.9609375,-7.1044921875,-24.90234375
13.52,-0.83447265625,-0.57861328125,-0.1156005859375,1.0986328125,1.28173828125,1.03759765625,9.9609375,-7.1044921875,-24.90234375
13.545,-0.83447265625,-0.57861328125,-0.1156005859375,1.0986328125,1.28173828125,1.03759765625,10.107421875,-7.2998046875,-25.8056640625
13.592,-0.8355712890625,-0.5753173828125,-0.115234375,1.0986328125,1.28173828125,1.03759765625,10.107421875,-7.2998046875,-25.8056640625
13.629,-0.8355712890625,-0.5753173828125,-0.115234375,1.0986328125,1.28173828125,1.03759765625,10.107421875,-7.2998046875,-25.8056640625
13.629,-0.8355712890625,-0.5753173828125,-0.115234375,1.0986328125,1.28173828125,1.03759765625,10.107421875,-7.2998046875,-25.8056640625
13.632,-0.8355712890625,-0.5753173828125,-0.115234375,1.0986328125,1.28173828125,1.03759765625,10.107421875,-7.2998046875,-25.8056640625
13.636,-0.8355712890625,-0.5753173828125,-0.115234375,0.67138671875,1.3427734375,1.15966796875,9.765625,-7.75146484375,-25.13427734375
13.637,-0.8353271484375,-0.5751953125,-0.114013671875,0.67138671875,1.52587890625,1.52587890625,9.765625,-7.75146484375,-25.13427734375
13.68,-0.8353271484375,-0.5751953125,-0.114013671875,0.67138671875,1.52587890625,1.52587890625,9.7900390625,-7.0068359375,-25.42724609375
13.708,-0.8353271484375,-0.5751953125,-0.114013671875,0.67138671875,1.52587890625,1.52587890625,9.7900390625,-7.0068359375,-25.42724609375
13.725,-0.8353271484375,-0.5767822265625,-0.111083984375,0.67138671875,1.52587890625,1.52587890625,9.7900390625,-7.0068359375,-25.42724609375
13.726,-0.8353271484375,-0.5767822265625,-0.111083984375,0.6103515625,1.52587890625,2.01416015625,9.7900390625,-7.0068359375,-25.42724609375
13.727,-0.8353271484375,-0.5767822265625,-0.111083984375,0.6103515625,1.52587890625,2.01416015625,9.7412109375,-7.48291015625,-26.33056640625
13.771,-0.8359375,-0.5762939453125,-0.109130859375,0.732421875,1.46484375,2.25830078125,9.97314453125,-7.568359375,-25.45166015625
13.815,-0.8350830078125,-0.576904296875,-0.1097412109375,0.732421875,1.46484375,2.25830078125,9.97314453125,-7.568359375,-25.45166015625
13.816,-0.8350830078125,-0.576904296875,-0.1097412109375,0.732421875,1.46484375,2.25830078125,9.97314453125,-7.568359375,-25.45166015625
13.82,-0.8350830078125,-0.576904296875,-0.1097412109375,0.732421875,1.46484375,2.25830078125,9.97314453125,-7.568359375,-25.45166015625
13.854,-0.8350830078125,-0.576904296875,-0.1097412109375,0.732421875,1.46484375,2.25830078125,9.97314453125,-7.568359375,-25.45166015625
13.86,-0.8350830078125,-0.576904296875,-0.1097412109375,0.9765625,1.28173828125,2.44140625,9.97314453125,-7.568359375,-25.45166015625
13.861,-0.8343505859375,-0.577880859375,-0.109619140625,0.9765625,1.28173828125,2.44140625,9.68017578125,-8.1787109375,-24.462890625
13.862,-0.8343505859375,-0.577880859375,-0.109619140625,0.9765625,1.0986328125,2.3193359375,9.68017578125,-8.1787109375,-24.462890625
13.908,-0.8341064453125,-0.57958984375,-0.1099853515625,1.0986328125,1.03759765625,1.953125,9.7900390625,-7.99560546875,-26.11083984375
13.929,-0.8341064453125,-0.57958984375,-0.1099853515625,1.0986328125,1.03759765625,1.953125,9.7900390625,-7.99560546875,-26.11083984375
13.932,-0.8341064453125,-0.57958984375,-0.1099853515625,1.0986328125,1.03759765625,1.953125,9.7900390625,-7.99560546875,-26.11083984375
13.95,-0.8341064453125,-0.57958984375,-0.1099853515625,1.0986328125,1.03759765625,1.953125,9.75341796875,-7.9345703125,-25.50048828125
13.951,-0.83447265625,-0.5797119140625,-0.1112060546875,1.0986328125,1.03759765625,1.953125,9.75341796875,-7.9345703125,-25.50048828125
13.996,-0.83447265625,-0.5797119140625,-0.1112060546875,1.0986328125,0.91552734375,1.8310546875,9.75341796875,-7.9345703125,-25.50048828125
13.996,-0.83447265625,-0.5797119140625,-0.1112060546875,1.220703125,0.9765625,1.77001953125,9.75341796875,-7.9345703125,-25.50048828125
13.997,-0.83447265625,-0.5797119140625,-0.1112060546875,1.220703125,0.9765625,1.77001953125,10.58349609375,-8.21533203125,-25.9033203125
14.008,-0.83447265625,-0.5797119140625,-0.1112060546875,1.220703125,0.9765625,1.77001953125,10.58349609375,-8.21533203125,-25.9033203125
14.04,-0.833740234375,-0.5791015625,-0.11083984375,1.220703125,0.9765625,1.77001953125,10.58349609375,-8.21533203125,-25.9033203125
14.041,-0.833740234375,-0.5791015625,-0.11083984375,1.3427734375,0.8544921875,1.40380859375,9.80224609375,-7.33642578125,-24.755859375
14.042,-0.833740234375,-0.5791015625,-0.11083984375,1.3427734375,0.8544921875,1.40380859375,9.80224609375,-7.33642578125,-24.755859375
14.085,-0.83251953125,-0.5789794921875,-0.111328125,1.3427734375,0.8544921875,1.40380859375,9.80224609375,-7.33642578125,-24.755859375
14.086,-0.83251953125,-0.5789794921875,-0.111328125,1.40380859375,0.91552734375,1.3427734375,10.19287109375,-6.8603515625,-25.30517578125
14.12,-0.83251953125,-0.5789794921875,-0.111328125,1.40380859375,0.91552734375,1.3427734375,10.19287109375,-6.8603515625,-25.30517578125
14.136,-0.8330078125,-0.5789794921875,-0.1112060546875,1.52587890625,0.91552734375,1.52587890625,9.72900390625,-7.2265625,-24.57275390625
14.155,-0.8330078125,-0.5789794921875,-0.1112060546875,1.52587890625,0.91552734375,1.52587890625,9.72900390625,-7.2265625,-24.57275390625
14.22,-0.8360595703125,-0.5784912109375,-0.1134033203125,1.52587890625,0.91552734375,1.52587890625,9.72900390625,-7.2265625,-24.57275390625
14.221,-0.8360595703125,-0.5784912109375,-0.1134033203125,1.46484375,0.8544921875,1.3427734375,10.3759765625,-7.16552734375,-25.732421875
14.222,-0.8343505859375,-0.576416015625,-0.1143798828125,1.46484375,0.8544921875,1.3427734375,10.3759765625,-7.16552734375,-25.732421875
14.229,-0.8343505859375,-0.576416015625,-0.1143798828125,1.46484375,0.8544921875,1.3427734375,10.3759765625,-7.16552734375,-25.732421875
14.233,-0.8343505859375,-0.576416015625,-0.1143798828125,1.46484375,0.8544921875,1.3427734375,10.3759765625,-7.16552734375,-25.732421875
14.265,-0.8343505859375,-0.576416015625,-0.1143798828125,1.220703125,0.91552734375,1.52587890625,10.3759765625,-7.16552734375,-25.732421875
14.266,-0.834228515625,-0.5777587890625,-0.11328125,1.220703125,0.91552734375,1.52587890625,10.009765625,-7.23876953125,-25.62255859375
14.308,-0.834228515625,-0.5777587890625,-0.11328125,1.220703125,0.91552734375,1.52587890625,10.009765625,-7.23876953125,-25.62255859375
14.311,-0.834228515625,-0.5777587890625,-0.11328125,1.0986328125,1.220703125,1.8310546875,10.009765625,-7.23876953125,-25.62255859375
14.313,-0.8349609375,-0.5770263671875,-0.1156005859375,1.0986328125,1.220703125,1.8310546875,9.7900390625,-7.36083984375,-26.1474609375
14.356,-0.8349609375,-0.5770263671875,-0.1156005859375,1.0986328125,1.03759765625,1.8310546875,9.86328125,-7.177734375,-25.830078125
14.358,-0.8363037109375,-0.576171875,-0.1153564453125,1.0986328125,1.03759765625,1.8310546875,9.86328125,-7.177734375,-25.830078125
14.379,-0.8363037109375,-0.576171875,-0.1153564453125,1.0986328125,1.03759765625,1.8310546875,9.86328125,-7.177734375,-25.830078125
14.4,-0.8363037109375,-0.576171875,-0.1153564453125,0.91552734375,1.15966796875,2.0751953125,9.86328125,-7.177734375,-25.830078125
14.42,-0.8363037109375,-0.576171875,-0.1153564453125,0.91552734375,1.15966796875,2.0751953125,9.86328125,-7.177734375,-25.830078125
14.445,-0.8363037109375,-0.576171875,-0.1153564453125,0.91552734375,1.15966796875,2.0751953125,9.58251953125,-7.26318359375,-26.0009765625
14.446,-0.834716796875,-0.577880859375,-0.1146240234375,0.67138671875,1.3427734375,2.197265625,9.58251953125,-7.26318359375,-26.0009765625
14.447,-0.834716796875,-0.577880859375,-0.1146240234375,0.67138671875,1.3427734375,2.197265625,9.716796875,-7.23876953125,-25.86669921875
14.529,-0.834716796875,-0.577880859375,-0.1146240234375,0.67138671875,1.3427734375,2.197265625,9.716796875,-7.23876953125,-25.86669921875
14.53,-0.834716796875,-0.577880859375,-0.1146240234375,0.67138671875,1.3427734375,2.197265625,9.716796875,-7.23876953125,-25.86669921875
14.532,-0.834716796875,-0.577880859375,-0.1146240234375,0.67138671875,1.3427734375,2.197265625,9.716796875,-7.23876953125,-25.86669921875
14.551,-0.8358154296875,-0.576904296875,-0.11376953125,0.8544921875,1.46484375,2.38037109375,10.19287109375,-7.0556640625,-25.9033203125
14.551,-0.8345947265625,-0.580078125,-0.1134033203125,0.8544921875,1.46484375,2.38037109375,10.19287109375,-7.0556640625,-25.9033203125
14.58,-0.8345947265625,-0.580078125,-0.1134033203125,0.67138671875,1.46484375,2.25830078125,10.19287109375,-7.0556640625,-25.9033203125
14.581,-0.832275390625,-0.5794677734375,-0.110595703125,0.67138671875,1.46484375,2.25830078125,10.07080078125,-6.99462890625,-25.732421875
14.608,-0.832275390625,-0.5794677734375,-0.110595703125,0.67138671875,1.46484375,2.25830078125,10.07080078125,-6.99462890625,-25.732421875
14.625,-0.832275390625,-0.5794677734375,-0.110595703125,0.6103515625,1.64794921875,2.197265625,10.07080078125,-6.99462890625,-25.732421875
14.628,-0.833740234375,-0.579833984375,-0.11181640625,0.91552734375,1.28173828125,2.01416015625,10.07080078125,-6.99462890625,-25.732421875
14.641,-0.833740234375,-0.579833984375,-0.11181640625,0.91552734375,1.28173828125,2.01416015625,10.07080078125,-6.99462890625,-25.732421875
14.67,-0.833740234375,-0.579833984375,-0.11181640625,0.91552734375,1.28173828125,2.01416015625,9.36279296875,-7.21435546875,-27.35595703125
14.671,-0.8328857421875,-0.5809326171875,-0.1102294921875,0.91552734375,1.28173828125,2.01416015625,9.36279296875,-7.21435546875,-27.35595703125
14.672,-0.8328857421875,-0.5809326171875,-0.1102294921875,1.03759765625,1.220703125,1.708984375,9.36279296875,-7.21435546875,-27.35595703125
14.715,-0.8328857421875,-0.5806884765625,-0.112060546875,1.03759765625,1.220703125,1.708984375,9.36279296875,-7.21435546875,-27.35595703125
14.72,-0.8328857421875,-0.5806884765625,-0.112060546875,1.03759765625,1.220703125,1.708984375,9.36279296875,-7.21435546875,-27.35595703125
14.754,-0.8328857421875,-0.5806884765625,-0.112060546875,1.03759765625,1.220703125,1.708984375,9.36279296875,-7.21435546875,-27.35595703125
14.761,-0.8328857421875,-0.5806884765625,-0.112060546875,0.8544921875,1.15966796875,1.46484375,9.8388671875,-7.04345703125,-25.59814453125
14.762,-0.8328857421875,-0.5797119140625,-0.1104736328125,0.8544921875,1.15966796875,1.46484375,9.8388671875,-7.04345703125,-25.59814453125
14.763,-0.8328857421875,-0.5797119140625,-0.1104736328125,1.03759765625,1.03759765625,1.220703125,9.8388671875,-7.04345703125,-25.59814453125
14.806,-0.8328857421875,-0.5797119140625,-0.1104736328125,1.03759765625,1.03759765625,1.220703125,11.24267578125,-7.71484375,-26.18408203125
14.807,-0.8341064453125,-0.57861328125,-0.111328125,1.28173828125,0.91552734375,1.28173828125,11.24267578125,-7.71484375,-26.18408203125
14.829,-0.8341064453125,-0.57861328125,-0.111328125,1.28173828125,0.91552734375,1.28173828125,11.24267578125,-7.71484375,-26.18408203125
14.833,-0.8341064453125,-0.57861328125,-0.111328125,1.28173828125,0.91552734375,1.28173828125,11.24267578125,-7.71484375,-26.18408203125
14.85,-0.8341064453125,-0.57861328125,-0.111328125,1.28173828125,0.91552734375,1.28173828125,10.009765625,-7.470703125,-24.658203125
14.851,-0.8333740234375,-0.57861328125,-0.111572265625,1.220703125,0.79345703125,1.220703125,10.009765625,-7.470703125,-24.658203125
14.896,-0.8353271484375,-0.578125,-0.1134033203125,1.28173828125,0.91552734375,1.3427734375,10.24169921875,-6.93359375,-26.42822265625
14.907,-0.8353271484375,-0.578125,-0.1134033203125,1.28173828125,0.91552734375,1.3427734375,10.24169921875,-6.93359375,-26.42822265625
14.94,-0.8353271484375,-0.578125,-0.1134033203125,1.28173828125,0.91552734375,1.3427734375,9.94873046875,-7.51953125,-25.048828125
14.942,-0.8353271484375,-0.578125,-0.1134033203125,1.28173828125,0.91552734375,1.3427734375,9.94873046875,-7.51953125,-25.048828125
14.986,-0.835205078125,-0.5775146484375,-0.113525390625,1.15966796875,0.67138671875,1.46484375,9.63134765625,-7.55615234375,-25.13427734375
15.02,-0.835205078125,-0.5775146484375,-0.113525390625,1.15966796875,0.67138671875,1.46484375,9.63134765625,-7.55615234375,-25.13427734375
15.031,-0.833740234375,-0.5765380859375,-0.113525390625,1.15966796875,0.91552734375,1.5869140625,9.63134765625,-7.55615234375,-25.13427734375
15.032,-0.8331298828125,-0.577880859375,-0.1136474609375,1.15966796875,0.91552734375,1.5869140625,9.3994140625,-7.4462890625,-26.513671875
15.055,-0.8331298828125,-0.577880859375,-0.1136474609375,1.15966796875,0.91552734375,1.5869140625,9.3994140625,-7.4462890625,-26.513671875
15.075,-0.8331298828125,-0.577880859375,-0.1136474609375,1.03759765625,0.8544921875,1.89208984375,9.3994140625,-7.4462890625,-26.513671875
15.076,-0.8331298828125,-0.577880859375,-0.1136474609375,1.03759765625,0.8544921875,1.89208984375,10.38818359375,-7.2509765625,-25.98876953125
15.12,-0.8341064453125,-0.5777587890625,-0.114013671875,1.03759765625,0.8544921875,1.89208984375,10.38818359375,-7.2509765625,-25.98876953125
15.121,-0.8341064453125,-0.5777587890625,-0.114013671875,1.15966796875,1.0986328125,1.8310546875,10.38818359375,-7.2509765625,-25.98876953125
15.123,-0.83447265625,-0.5775146484375,-0.1141357421875,1.15966796875,1.0986328125,1.8310546875,9.5947265625,-7.5439453125,-26.08642578125
15.133,-0.83447265625,-0.5775146484375,-0.1141357421875,1.15966796875,1.0986328125,1.8310546875,9.5947265625,-7.5439453125,-26.08642578125
15.204,-0.83447265625,-0.5775146484375,-0.1141357421875,1.15966796875,1.0986328125,1.8310546875,9.5947265625,-7.5439453125,-26.08642578125
15.207,-0.83447265625,-0.5775146484375,-0.1141357421875,1.15966796875,1.0986328125,1.8310546875,9.5947265625,-7.5439453125,-26.08642578125
15.21,-0.83447265625,-0.5775146484375,-0.1141357421875,1.15966796875,1.220703125,1.89208984375,9.5947265625,-7.5439453125,-26.08642578125
15.241,-0.83447265625,-0.5775146484375,-0.1141357421875,1.15966796875,1.220703125,1.89208984375,9.5947265625,-7.5439453125,-26.08642578125
15.256,-0.8338623046875,-0.5775146484375,-0.114501953125,1.0986328125,1.3427734375,1.77001953125,9.50927734375,-7.16552734375,-26.3427734375
15.257,-0.8338623046875,-0.5775146484375,-0.114501953125,1.0986328125,1.3427734375,1.77001953125,9.43603515625,-7.33642578125,-26.33056640625
15.32,-0.8338623046875,-0.5775146484375,-0.114501953125,1.0986328125,1.3427734375,1.77001953125,9.43603515625,-7.33642578125,-26.33056640625
15.346,-0.8343505859375,-0.57958984375,-0.113037109375,0.79345703125,1.40380859375,1.46484375,9.5703125,-6.8603515625,-26.69677734375
