ACCELEROMETER X (m/s²),ACCELEROMETER Y (m/s²),ACCELEROMETER Z (m/s²),GRAVITY X (m/s²),GRAVITY Y (m/s²),GRAVITY Z (m/s²),LINEAR ACCELERATION X (m/s²),LINEAR ACCELERATION Y (m/s²),LINEAR ACCELERATION Z (m/s²),GYROSCOPE X (rad/s),GYROSCOPE Y (rad/s),GYROSCOPE Z (rad/s),MAGNETIC FIELD X (μT),MAGNETIC FIELD Y (μT),MAGNETIC FIELD Z (μT),ORIENTATION Z (azimuth °),ORIENTATION X (pitch °),ORIENTATION Y (roll °),LOCATION Latitude : ,LOCATION Longitude : ,LOCATION Altitude ( m),LOCATION Altitude-google ( m),LOCATION Speed ( Kmh),LOCATION Accuracy ( m),LOCATION ORIENTATION (°),Satellites in range,GPS NMEA,Time since start in ms ,YYYY-MO-DD HH-MI-SS_SSS
-1.90349,4.55205,7.8006,-1.56408,4.84759,8.38003,-0.37214,-0.18883,-0.54558,-0.01225,0.05419,-0.01545,-10.425,10.125,-33.45,33.697,-29.625,10.572,48.843906,2.3532572,108.846,NaN,0.0,10.72,,0 / 18,,9,2022-01-20 17:57:41:876
-1.90349,4.55205,7.8006,-1.56408,4.84759,8.38003,-0.37214,-0.18883,-0.54558,-0.01225,0.05419,-0.01545,-10.425,10.125,-33.45,33.697,-29.625,10.572,48.843906,2.3532572,108.846,NaN,0.0,10.72,,0 / 18,,15,2022-01-20 17:57:41:882
-1.90349,4.55205,7.8006,-1.56408,4.84759,8.38003,-0.37214,-0.18883,-0.54558,-0.01225,0.05419,-0.01545,-10.425,10.125,-33.45,33.697,-29.625,10.572,48.843906,2.3532572,108.846,NaN,0.0,10.72,,0 / 18,,19,2022-01-20 17:57:41:886
-1.90349,4.55205,7.8006,-1.56408,4.84759,8.38003,-0.37214,-0.18883,-0.54558,-0.13582,-0.16951,0.25153,-10.425,10.125,-33.45,33.697,-29.625,10.572,48.843906,2.3532572,108.846,NaN,0.0,10.72,,0 / 18,,24,2022-01-20 17:57:41:891
-2.45324,4.75095,7.55982,-1.56408,4.84759,8.38003,-0.37214,-0.18883,-0.54558,-0.13582,-0.16951,0.25153,-10.425,10.125,-33.45,33.697,-29.625,10.572,48.843906,2.3532572,108.846,NaN,0.0,10.72,,0 / 18,,29,2022-01-20 17:57:41:896
-2.45324,4.75095,7.55982,-1.56408,4.84759,8.38003,-0.37214,-0.18883,-0.54558,-0.13582,-0.16951,0.25153,-10.425,10.125,-33.45,33.697,-29.625,10.572,48.843906,2.3532572,108.846,NaN,0.0,10.72,,0 / 18,,34,2022-01-20 17:57:41:901
-2.45324,4.75095,7.55982,-1.56408,4.84759,8.38003,-0.37214,-0.18883,-0.54558,-0.13582,-0.16951,0.25153,-10.425,10.125,-33.45,33.697,-29.625,10.572,48.843906,2.3532572,108.846,NaN,0.0,10.72,,0 / 18,,39,2022-01-20 17:57:41:906
-2.45324,4.75095,7.55982,-1.56408,4.84759,8.38003,-0.37214,-0.18883,-0.54558,-0.13582,-0.16951,0.25153,-10.425,10.125,-33.45,33.697,-29.625,10.572,48.843906,2.3532572,108.846,NaN,0.0,10.72,,0 / 18,,44,2022-01-20 17:57:41:911
-2.45324,4.75095,7.55982,-1.56408,4.84759,8.38003,-0.37214,-0.18883,-0.54558,-0.13582,-0.16951,0.25153,-10.65,10.725,-33.15,34.438,-29.625,10.572,48.843906,2.3532572,108.846,NaN,0.0,10.72,,0 / 18,,49,2022-01-20 17:57:41:916
-2.45324,4.75095,7.55982,-1.56408,4.84759,8.38003,-0.37214,-0.18883,-0.54558,-0.13582,-0.16951,0.25153,-10.65,10.725,-33.15,34.438,-29.625,10.572,48.843906,2.3532572,108.846,NaN,0.0,10.72,,0 / 18,,54,2022-01-20 17:57:41:921
-2.45324,4.75095,7.55982,-1.56408,4.84759,8.38003,-0.37214,-0.18883,-0.54558,-0.13582,-0.16951,0.25153,-10.65,10.725,-33.15,34.438,-29.625,10.572,48.843906,2.3532572,108.846,NaN,0.0,10.72,,0 / 18,,60,2022-01-20 17:57:41:927
-2.45324,4.75095,7.55982,-1.3047,4.73886,8.48595,-0.65779,-0.16943,-0.40451,-0.13582,-0.16951,0.25153,-10.65,10.725,-33.15,34.438,-29.625,10.572,48.843906,2.3532572,108.846,NaN,0.0,10.72,,0 / 18,,64,2022-01-20 17:57:41:931
-2.45324,4.75095,7.55982,-1.3047,4.73886,8.48595,-0.65779,-0.16943,-0.40451,-0.13582,-0.16951,0.25153,-10.65,10.725,-33.15,34.438,-29.625,10.572,48.843906,2.3532572,108.846,NaN,0.0,10.72,,0 / 18,,70,2022-01-20 17:57:41:937
-2.45324,4.75095,7.55982,-1.3047,4.73886,8.48595,-0.65779,-0.16943,-0.40451,-0.13582,-0.16951,0.25153,-10.65,10.725,-33.15,34.438,-29.625,10.572,48.843906,2.3532572,108.846,NaN,0.0,10.72,,0 / 18,,74,2022-01-20 17:57:41:941
-2.45324,4.75095,7.55982,-1.3047,4.73886,8.48595,-0.65779,-0.16943,-0.40451,-0.13582,-0.16951,0.25153,-10.65,10.725,-33.15,34.438,-29.625,10.572,48.843906,2.3532572,108.846,NaN,0.0,10.72,,0 / 18,,79,2022-01-20 17:57:41:946
-2.77328,4.76172,8.22922,-1.3047,4.73886,8.48595,-0.65779,-0.16943,-0.40451,-0.13582,-0.16951,0.25153,-10.65,10.725,-33.15,34.438,-29.625,10.572,48.843906,2.3532572,108.846,NaN,0.0,10.72,,0 / 18,,84,2022-01-20 17:57:41:951
-2.77328,4.76172,8.22922,-1.3047,4.73886,8.48595,-0.65779,-0.16943,-0.40451,-0.13582,-0.16951,0.25153,-10.65,10.725,-33.15,34.438,-29.625,10.572,48.843906,2.3532572,108.846,NaN,0.0,10.72,,0 / 18,,89,2022-01-20 17:57:41:956
-2.77328,4.76172,8.22922,-1.3047,4.73886,8.48595,-0.65779,-0.16943,-0.40451,-0.13582,-0.16951,0.25153,-10.65,10.725,-33.15,34.438,-29.625,10.572,48.843906,2.3532572,108.846,NaN,0.0,10.72,,0 / 18,,94,2022-01-20 17:57:41:961
-2.77328,4.76172,8.22922,-1.3047,4.73886,8.48595,-0.65779,-0.16943,-0.40451,-0.13582,-0.16951,0.25153,-10.65,10.725,-33.15,34.438,-29.625,10.572,48.843906,2.3532572,108.846,NaN,0.0,10.72,,0 / 18,,99,2022-01-20 17:57:41:966
-2.77328,4.76172,8.22922,-1.3047,4.73886,8.48595,-0.65779,-0.16943,-0.40451,-0.13582,-0.16951,0.25153,-10.65,10.725,-33.15,34.438,-29.625,10.572,48.843906,2.3532572,108.846,NaN,0.0,10.72,,0 / 18,,104,2022-01-20 17:57:41:971
-2.77328,4.76172,8.22922,-1.3047,4.73886,8.48595,-0.65779,-0.16943,-0.40451,-0.13582,-0.16951,0.25153,-10.65,10.725,-33.15,34.438,-29.625,10.572,48.843906,2.3532572,108.846,NaN,0.0,10.72,,0 / 18,,109,2022-01-20 17:57:41:976
-2.77328,4.76172,8.22922,-1.3047,4.73886,8.48595,-0.65779,-0.16943,-0.40451,-0.13582,-0.16951,0.25153,-10.65,10.725,-33.15,34.438,-29.625,10.572,48.843906,2.3532572,108.846,NaN,0.0,10.72,,0 / 18,,114,2022-01-20 17:57:41:981
-2.77328,4.76172,8.22922,-1.3047,4.73886,8.48595,-0.65779,-0.16943,-0.40451,-0.13582,-0.16951,0.25153,-10.65,10.725,-33.15,34.438,-29.625,10.572,48.843906,2.3532572,108.846,NaN,0.0,10.72,,0 / 18,,119,2022-01-20 17:57:41:986
-2.77328,4.76172,8.22922,-1.3047,4.73886,8.48595,-0.65779,-0.16943,-0.40451,-0.13582,-0.16951,0.25153,-10.65,10.725,-33.15,34.438,-29.625,10.572,48.843906,2.3532572,108.846,NaN,0.0,10.72,,0 / 18,,124,2022-01-20 17:57:41:991
-2.77328,4.76172,8.22922,-1.3047,4.73886,8.48595,-0.65779,-0.16943,-0.40451,-0.13582,-0.16951,0.25153,-10.65,10.725,-33.15,34.438,-29.625,10.572,48.843906,2.3532572,108.846,NaN,0.0,10.72,,0 / 18,,129,2022-01-20 17:57:41:996
-2.77328,4.76172,8.22922,-1.3047,4.73886,8.48595,-0.65779,-0.16943,-0.40451,-0.13582,-0.16951,0.25153,-10.65,10.725,-33.15,34.438,-29.625,10.572,48.843906,2.3532572,108.846,NaN,0.0,10.72,,0 / 18,,134,2022-01-20 17:57:42:001
-2.77328,4.76172,8.22922,-1.31335,4.54321,8.59097,-1.20323,0.46127,-0.75904,-0.13582,-0.16951,0.25153,-10.65,10.725,-33.15,34.438,-29.625,10.572,48.843906,2.3532572,108.846,NaN,0.0,10.72,,0 / 18,,139,2022-01-20 17:57:42:006
-2.77328,4.76172,8.22922,-1.31335,4.54321,8.59097,-1.20323,0.46127,-0.75904,-0.13582,-0.16951,0.25153,-10.65,10.725,-33.15,34.438,-29.625,10.572,48.843906,2.3532572,108.846,NaN,0.0,10.72,,0 / 18,,144,2022-01-20 17:57:42:011
-2.77328,4.76172,8.22922,-1.31335,4.54321,8.59097,-1.20323,0.46127,-0.75904,-0.13582,-0.16951,0.25153,-10.5,11.4,-33.225,31.614,-27.599,8.692,48.843906,2.3532572,108.846,NaN,0.0,10.72,,0 / 18,,149,2022-01-20 17:57:42:016
-2.77328,4.76172,8.22922,-1.31335,4.54321,8.59097,-1.20323,0.46127,-0.75904,-0.47616,0.08256,0.32197,-10.5,11.4,-33.225,31.614,-27.599,8.692,48.843906,2.3532572,108.846,NaN,0.0,10.72,,0 / 18,,155,2022-01-20 17:57:42:022
-1.95135,3.94008,9.47378,-1.31335,4.54321,8.59097,-1.20323,0.46127,-0.75904,-0.47616,0.08256,0.32197,-10.5,11.4,-33.225,31.614,-27.599,8.692,48.843906,2.3532572,108.846,NaN,0.0,10.72,,0 / 18,,160,2022-01-20 17:57:42:027
-1.95135,3.94008,9.47378,-1.31335,4.54321,8.59097,-1.20323,0.46127,-0.75904,-0.47616,0.08256,0.32197,-10.5,11.4,-33.225,31.614,-27.599,8.692,48.843906,2.3532572,108.846,NaN,0.0,10.72,,0 / 18,,164,2022-01-20 17:57:42:031
-1.95135,3.94008,9.47378,-1.31335,4.54321,8.59097,-1.20323,0.46127,-0.75904,-0.47616,0.08256,0.32197,-10.5,11.4,-33.225,31.614,-27.599,8.692,48.843906,2.3532572,108.846,NaN,0.0,10.72,,0 / 18,,169,2022-01-20 17:57:42:036
-1.95135,3.94008,9.47378,-1.31335,4.54321,8.59097,-1.20323,0.46127,-0.75904,-0.47616,0.08256,0.32197,-10.5,11.4,-33.225,31.614,-27.599,8.692,48.84388,2.353338,91.5,NaN,,13.113,,0 / 18,,174,2022-01-20 17:57:42:041
-1.95135,3.94008,9.47378,-1.31335,4.54321,8.59097,-1.20323,0.46127,-0.75904,-0.47616,0.08256,0.32197,-10.5,11.4,-33.225,31.614,-27.599,8.692,48.84388,2.353338,91.5,NaN,,13.113,,0 / 18,,179,2022-01-20 17:57:42:046
-1.95135,3.94008,9.47378,-1.31335,4.54321,8.59097,-1.20323,0.46127,-0.75904,-0.47616,0.08256,0.32197,-10.5,11.4,-33.225,31.614,-27.599,8.692,48.84388,2.353338,91.5,NaN,,13.113,,0 / 18,,186,2022-01-20 17:57:42:053
-1.95135,3.94008,9.47378,-1.31335,4.54321,8.59097,-1.20323,0.46127,-0.75904,-0.47616,0.08256,0.32197,-10.5,11.4,-33.225,31.614,-27.599,8.692,48.84388,2.353338,91.5,NaN,,13.113,,0 / 18,,189,2022-01-20 17:57:42:056
-1.95135,3.94008,9.47378,-1.31335,4.54321,8.59097,-1.20323,0.46127,-0.75904,-0.47616,0.08256,0.32197,-10.5,11.4,-33.225,31.614,-27.599,8.692,48.84388,2.353338,91.5,NaN,,13.113,,0 / 18,,194,2022-01-20 17:57:42:061
-1.95135,3.94008,9.47378,-1.31335,4.54321,8.59097,-1.20323,0.46127,-0.75904,-0.47616,0.08256,0.32197,-10.5,11.4,-33.225,31.614,-27.599,8.692,48.84388,2.353338,91.5,NaN,,13.113,,0 / 18,,200,2022-01-20 17:57:42:067
-1.95135,3.94008,9.47378,-1.31335,4.54321,8.59097,-1.20323,0.46127,-0.75904,-0.47616,0.08256,0.32197,-10.5,11.4,-33.225,31.614,-27.599,8.692,48.84388,2.353338,91.5,NaN,,13.113,,0 / 18,,205,2022-01-20 17:57:42:072
-1.95135,3.94008,9.47378,-1.31335,4.54321,8.59097,-1.20323,0.46127,-0.75904,-0.47616,0.08256,0.32197,-10.5,11.4,-33.225,31.614,-27.599,8.692,48.84388,2.353338,91.5,NaN,,13.113,,0 / 18,,209,2022-01-20 17:57:42:076
-1.95135,3.94008,9.47378,-1.31335,4.54321,8.59097,-1.20323,0.46127,-0.75904,-0.47616,0.08256,0.32197,-10.5,11.4,-33.225,31.614,-27.599,8.692,48.84388,2.353338,91.5,NaN,,13.113,,0 / 18,,214,2022-01-20 17:57:42:081
-0.49502,3.38674,10.38994,-1.31335,4.54321,8.59097,-1.20323,0.46127,-0.75904,-0.47616,0.08256,0.32197,-10.5,11.4,-33.225,31.614,-27.599,8.692,48.84388,2.353338,91.5,NaN,,13.113,,0 / 18,,219,2022-01-20 17:57:42:086
-0.49502,3.38674,10.38994,-1.31335,4.54321,8.59097,-1.20323,0.46127,-0.75904,-0.47616,0.08256,0.32197,-10.5,11.4,-33.225,31.614,-27.599,8.692,48.84388,2.353338,91.5,NaN,,13.113,,0 / 18,,225,2022-01-20 17:57:42:092
-0.49502,3.38674,10.38994,-1.31335,4.54321,8.59097,-1.20323,0.46127,-0.75904,-0.47616,0.08256,0.32197,-10.5,11.4,-33.225,31.614,-27.599,8.692,48.84388,2.353338,91.5,NaN,,13.113,,0 / 18,,229,2022-01-20 17:57:42:096
-0.49502,3.38674,10.38994,-1.31335,4.54321,8.59097,-1.20323,0.46127,-0.75904,-0.47616,0.08256,0.32197,-10.5,11.4,-33.225,31.614,-27.599,8.692,48.84388,2.353338,91.5,NaN,,13.113,,0 / 18,,234,2022-01-20 17:57:42:101
-0.49502,3.38674,10.38994,-1.31335,4.54321,8.59097,-1.20323,0.46127,-0.75904,-0.47616,0.08256,0.32197,-10.5,11.4,-33.225,31.614,-27.599,8.692,48.84388,2.353338,91.5,NaN,,13.113,,0 / 18,,239,2022-01-20 17:57:42:106
-0.49502,3.38674,10.38994,-1.3149,4.13083,8.79646,-0.11463,-0.39823,0.90086,-0.47616,0.08256,0.32197,-10.5,11.4,-33.225,31.614,-27.599,8.692,48.84388,2.353338,91.5,NaN,,13.113,,0 / 18,,245,2022-01-20 17:57:42:112
-0.49502,3.38674,10.38994,-1.3149,4.13083,8.79646,-0.11463,-0.39823,0.90086,-0.47616,0.08256,0.32197,-10.5,12.675,-33.075,30.658,-24.912,8.502,48.84388,2.353338,91.5,NaN,,13.113,,0 / 18,,249,2022-01-20 17:57:42:116
-0.49502,3.38674,10.38994,-1.3149,4.13083,8.79646,-0.11463,-0.39823,0.90086,-0.47616,0.08256,0.32197,-10.5,12.675,-33.075,30.658,-24.912,8.502,48.84388,2.353338,91.5,NaN,,13.113,,0 / 18,,254,2022-01-20 17:57:42:121
-0.49502,3.38674,10.38994,-1.3149,4.13083,8.79646,-0.11463,-0.39823,0.90086,-0.47616,0.08256,0.32197,-10.5,12.675,-33.075,30.658,-24.912,8.502,48.84388,2.353338,91.5,NaN,,13.113,,0 / 18,,259,2022-01-20 17:57:42:126
-0.49502,3.38674,10.38994,-1.3149,4.13083,8.79646,-0.11463,-0.39823,0.90086,-0.47616,0.08256,0.32197,-10.5,12.675,-33.075,30.658,-24.912,8.502,48.84388,2.353338,91.5,NaN,,13.113,,0 / 18,,264,2022-01-20 17:57:42:131
-0.49502,3.38674,10.38994,-1.3149,4.13083,8.79646,-0.11463,-0.39823,0.90086,-0.47616,0.08256,0.32197,-10.5,12.675,-33.075,30.658,-24.912,8.502,48.84388,2.353338,91.5,NaN,,13.113,,0 / 18,,269,2022-01-20 17:57:42:136
-0.49502,3.38674,10.38994,-1.3149,4.13083,8.79646,-0.11463,-0.39823,0.90086,-0.47616,0.08256,0.32197,-10.5,12.675,-33.075,30.658,-24.912,8.502,48.84388,2.353338,91.5,NaN,,13.113,,0 / 18,,274,2022-01-20 17:57:42:141
-0.49502,3.38674,10.38994,-1.3149,4.13083,8.79646,-0.11463,-0.39823,0.90086,-0.47616,0.08256,0.32197,-10.5,12.675,-33.075,30.658,-24.912,8.502,48.84388,2.353338,91.5,NaN,,13.113,,0 / 18,,279,2022-01-20 17:57:42:146
-0.49502,3.38674,10.38994,-1.3149,4.13083,8.79646,-0.11463,-0.39823,0.90086,-0.47616,0.08256,0.32197,-10.5,12.675,-33.075,30.658,-24.912,8.502,48.84388,2.353338,91.5,NaN,,13.113,,0 / 18,,284,2022-01-20 17:57:42:151
-1.04237,2.73859,9.20549,-1.3149,4.13083,8.79646,-0.11463,-0.39823,0.90086,-0.39387,0.72622,0.95338,-10.5,12.675,-33.075,30.658,-24.912,8.502,48.84388,2.353338,91.5,NaN,,13.113,,0 / 18,,289,2022-01-20 17:57:42:156
-1.04237,2.73859,9.20549,-1.3149,4.13083,8.79646,-0.11463,-0.39823,0.90086,-0.39387,0.72622,0.95338,-10.5,12.675,-33.075,30.658,-24.912,8.502,48.84388,2.353338,91.5,NaN,,13.113,,0 / 18,,294,2022-01-20 17:57:42:161
-1.04237,2.73859,9.20549,-1.3149,4.13083,8.79646,-0.11463,-0.39823,0.90086,-0.39387,0.72622,0.95338,-10.5,12.675,-33.075,30.658,-24.912,8.502,48.84388,2.353338,91.5,NaN,,13.113,,0 / 18,,299,2022-01-20 17:57:42:166
-1.04237,2.73859,9.20549,-1.3149,4.13083,8.79646,-0.11463,-0.39823,0.90086,-0.39387,0.72622,0.95338,-10.5,12.675,-33.075,30.658,-24.912,8.502,48.84388,2.353338,91.5,NaN,,13.113,,0 / 18,,304,2022-01-20 17:57:42:171
-1.04237,2.73859,9.20549,-1.3149,4.13083,8.79646,-0.11463,-0.39823,0.90086,-0.39387,0.72622,0.95338,-10.5,12.675,-33.075,30.658,-24.912,8.502,48.84388,2.353338,91.5,NaN,,13.113,,0 / 18,,310,2022-01-20 17:57:42:177
-1.04237,2.73859,9.20549,-1.3149,4.13083,8.79646,-0.11463,-0.39823,0.90086,-0.39387,0.72622,0.95338,-10.5,12.675,-33.075,30.658,-24.912,8.502,48.84388,2.353338,91.5,NaN,,13.113,,0 / 18,,314,2022-01-20 17:57:42:181
-1.04237,2.73859,9.20549,-1.42048,3.9475,8.86396,0.81155,-0.73188,1.26456,-0.39387,0.72622,0.95338,-10.5,12.675,-33.075,30.658,-24.912,8.502,48.84388,2.353338,91.5,NaN,,13.113,,0 / 18,,320,2022-01-20 17:57:42:187
-1.04237,2.73859,9.20549,-1.42048,3.9475,8.86396,0.81155,-0.73188,1.26456,-0.39387,0.72622,0.95338,-10.5,12.675,-33.075,30.658,-24.912,8.502,48.84388,2.353338,91.5,NaN,,13.113,,0 / 18,,324,2022-01-20 17:57:42:191
-1.04237,2.73859,9.20549,-1.42048,3.9475,8.86396,0.81155,-0.73188,1.26456,-0.39387,0.72622,0.95338,-10.5,12.675,-33.075,30.658,-24.912,8.502,48.84388,2.353338,91.5,NaN,,13.113,,0 / 18,,330,2022-01-20 17:57:42:197
-1.04237,2.73859,9.20549,-1.42048,3.9475,8.86396,0.81155,-0.73188,1.26456,-0.39387,0.72622,0.95338,-10.5,12.675,-33.075,30.658,-24.912,8.502,48.84388,2.353338,91.5,NaN,,13.113,,0 / 18,,334,2022-01-20 17:57:42:201
-1.04237,2.73859,9.20549,-1.42048,3.9475,8.86396,0.81155,-0.73188,1.26456,-0.39387,0.72622,0.95338,-10.5,12.675,-33.075,30.658,-24.912,8.502,48.84388,2.353338,91.5,NaN,,13.113,,0 / 18,,339,2022-01-20 17:57:42:206
-1.04237,2.73859,9.20549,-1.42048,3.9475,8.86396,0.81155,-0.73188,1.26456,-0.39387,0.72622,0.95338,-10.5,12.675,-33.075,30.658,-24.912,8.502,48.84388,2.353338,91.5,NaN,,13.113,,0 / 18,,344,2022-01-20 17:57:42:211
-1.04237,2.73859,9.20549,-1.42048,3.9475,8.86396,0.81155,-0.73188,1.26456,-0.39387,0.72622,0.95338,-10.5,12.675,-33.075,30.658,-24.912,8.502,48.84388,2.353338,91.5,NaN,,13.113,,0 / 18,,349,2022-01-20 17:57:42:216
-1.39681,2.82144,9.27368,-1.42048,3.9475,8.86396,0.81155,-0.73188,1.26456,-0.39387,0.72622,0.95338,-10.125,13.425,-33.075,31.766,-23.737,9.104,48.84388,2.353338,91.5,NaN,,13.113,,0 / 18,,354,2022-01-20 17:57:42:221
-1.39681,2.82144,9.27368,-1.42048,3.9475,8.86396,0.81155,-0.73188,1.26456,-0.39387,0.72622,0.95338,-10.125,13.425,-33.075,31.766,-23.737,9.104,48.84388,2.353338,91.5,NaN,,13.113,,0 / 18,,359,2022-01-20 17:57:42:226
-1.39681,2.82144,9.27368,-1.42048,3.9475,8.86396,0.81155,-0.73188,1.26456,-0.39387,0.72622,0.95338,-10.125,13.425,-33.075,31.766,-23.737,9.104,48.84388,2.353338,91.5,NaN,,13.113,,0 / 18,,364,2022-01-20 17:57:42:231
-1.39681,2.82144,9.27368,-1.42048,3.9475,8.86396,0.81155,-0.73188,1.26456,-0.39387,0.72622,0.95338,-10.125,13.425,-33.075,31.766,-23.737,9.104,48.84388,2.353338,91.5,NaN,,13.113,,0 / 18,,369,2022-01-20 17:57:42:236
-1.39681,2.82144,9.27368,-1.42048,3.9475,8.86396,0.81155,-0.73188,1.26456,-0.39387,0.72622,0.95338,-10.125,13.425,-33.075,31.766,-23.737,9.104,48.84388,2.353338,91.5,NaN,,13.113,,0 / 18,,374,2022-01-20 17:57:42:241
-1.39681,2.82144,9.27368,-1.42048,3.9475,8.86396,0.81155,-0.73188,1.26456,-0.39387,0.72622,0.95338,-10.125,13.425,-33.075,31.766,-23.737,9.104,48.84388,2.353338,91.5,NaN,,13.113,,0 / 18,,379,2022-01-20 17:57:42:246
-1.39681,2.82144,9.27368,-1.45731,3.56996,9.01676,0.27758,-0.56305,0.04784,-0.39387,0.72622,0.95338,-10.125,13.425,-33.075,31.766,-23.737,9.104,48.84388,2.353338,91.5,NaN,,13.113,,0 / 18,,385,2022-01-20 17:57:42:252
-1.39681,2.82144,9.27368,-1.45731,3.56996,9.01676,0.27758,-0.56305,0.04784,-0.39387,0.72622,0.95338,-10.125,13.425,-33.075,31.766,-23.737,9.104,48.84388,2.353338,91.5,NaN,,13.113,,0 / 18,,389,2022-01-20 17:57:42:256
-1.39681,2.82144,9.27368,-1.45731,3.56996,9.01676,0.27758,-0.56305,0.04784,-0.39387,0.72622,0.95338,-10.125,13.425,-33.075,31.766,-23.737,9.104,48.84388,2.353338,91.5,NaN,,13.113,,0 / 18,,395,2022-01-20 17:57:42:262
-1.39681,2.82144,9.27368,-1.45731,3.56996,9.01676,0.27758,-0.56305,0.04784,-0.39387,0.72622,0.95338,-10.125,13.425,-33.075,31.766,-23.737,9.104,48.84388,2.353338,91.5,NaN,,13.113,,0 / 18,,399,2022-01-20 17:57:42:266
-1.39681,2.82144,9.27368,-1.45731,3.56996,9.01676,0.27758,-0.56305,0.04784,-0.39387,0.72622,0.95338,-10.125,13.425,-33.075,31.766,-23.737,9.104,48.84388,2.353338,91.5,NaN,,13.113,,0 / 18,,404,2022-01-20 17:57:42:271
-1.39681,2.82144,9.27368,-1.45731,3.56996,9.01676,0.27758,-0.56305,0.04784,-0.39387,0.72622,0.95338,-10.125,13.425,-33.075,31.766,-23.737,9.104,48.84388,2.353338,91.5,NaN,,13.113,,0 / 18,,409,2022-01-20 17:57:42:276
-1.39681,2.82144,9.27368,-1.45731,3.56996,9.01676,0.27758,-0.56305,0.04784,-0.39387,0.72622,0.95338,-10.125,13.425,-33.075,31.766,-23.737,9.104,48.84388,2.353338,91.5,NaN,,13.113,,0 / 18,,415,2022-01-20 17:57:42:282
-1.39681,2.82144,9.27368,-1.45731,3.56996,9.01676,0.27758,-0.56305,0.04784,-0.39387,0.72622,0.95338,-10.125,13.425,-33.075,31.766,-23.737,9.104,48.84388,2.353338,91.5,NaN,,13.113,,0 / 18,,419,2022-01-20 17:57:42:286
-1.69771,3.57727,7.87239,-1.45731,3.56996,9.01676,0.27758,-0.56305,0.04784,-0.41597,0.71251,1.88506,-10.125,13.425,-33.075,31.766,-23.737,9.104,48.84388,2.353338,91.5,NaN,,13.113,,0 / 18,,424,2022-01-20 17:57:42:291
-1.69771,3.57727,7.87239,-1.45731,3.56996,9.01676,0.27758,-0.56305,0.04784,-0.41597,0.71251,1.88506,-10.125,13.425,-33.075,31.766,-23.737,9.104,48.84388,2.353338,91.5,NaN,,13.113,,0 / 18,,429,2022-01-20 17:57:42:296
-1.69771,3.57727,7.87239,-1.45731,3.56996,9.01676,0.27758,-0.56305,0.04784,-0.41597,0.71251,1.88506,-10.125,13.425,-33.075,31.766,-23.737,9.104,48.84388,2.353338,91.5,NaN,,13.113,,0 / 18,,434,2022-01-20 17:57:42:301
-1.69771,3.57727,7.87239,-1.45731,3.56996,9.01676,0.27758,-0.56305,0.04784,-0.41597,0.71251,1.88506,-10.125,13.425,-33.075,31.766,-23.737,9.104,48.84388,2.353338,91.5,NaN,,13.113,,0 / 18,,439,2022-01-20 17:57:42:306
-1.69771,3.57727,7.87239,-1.45731,3.56996,9.01676,0.27758,-0.56305,0.04784,-0.41597,0.71251,1.88506,-10.125,13.425,-33.075,31.766,-23.737,9.104,48.84388,2.353338,91.5,NaN,,13.113,,0 / 18,,445,2022-01-20 17:57:42:312
-1.69771,3.57727,7.87239,-1.45731,3.56996,9.01676,0.27758,-0.56305,0.04784,-0.41597,0.71251,1.88506,-8.625,15.975,-33.3,28.337,-21.348,9.181,48.84388,2.353338,91.5,NaN,,13.113,,0 / 18,,450,2022-01-20 17:57:42:317
-1.69771,3.57727,7.87239,-1.45731,3.56996,9.01676,0.27758,-0.56305,0.04784,-0.41597,0.71251,1.88506,-8.625,15.975,-33.3,28.337,-21.348,9.181,48.84388,2.353338,91.5,NaN,,13.113,,0 / 18,,454,2022-01-20 17:57:42:321
-1.69771,3.57727,7.87239,-1.45731,3.56996,9.01676,0.27758,-0.56305,0.04784,-0.41597,0.71251,1.88506,-8.625,15.975,-33.3,28.337,-21.348,9.181,48.84388,2.353338,91.5,NaN,,13.113,,0 / 18,,459,2022-01-20 17:57:42:326
-1.69771,3.57727,7.87239,-1.45731,3.56996,9.01676,0.27758,-0.56305,0.04784,-0.41597,0.71251,1.88506,-8.625,15.975,-33.3,28.337,-21.348,9.181,48.84388,2.353338,91.5,NaN,,13.113,,0 / 18,,465,2022-01-20 17:57:42:332
-1.69771,3.57727,7.87239,-1.45731,3.56996,9.01676,0.27758,-0.56305,0.04784,-0.41597,0.71251,1.88506,-8.625,15.975,-33.3,28.337,-21.348,9.181,48.84388,2.353338,91.5,NaN,,13.113,,0 / 18,,469,2022-01-20 17:57:42:336
-1.69771,3.57727,7.87239,-1.45731,3.56996,9.01676,0.27758,-0.56305,0.04784,-0.41597,0.71251,1.88506,-8.625,15.975,-33.3,28.337,-21.348,9.181,48.84388,2.353338,91.5,NaN,,13.113,,0 / 18,,474,2022-01-20 17:57:42:341
-1.69771,3.57727,7.87239,-1.45731,3.56996,9.01676,0.27758,-0.56305,0.04784,-0.41597,0.71251,1.88506,-8.625,15.975,-33.3,28.337,-21.348,9.181,48.84388,2.353338,91.5,NaN,,13.113,,0 / 18,,480,2022-01-20 17:57:42:347
-1.69771,3.57727,7.87239,-1.45731,3.56996,9.01676,0.27758,-0.56305,0.04784,-0.41597,0.71251,1.88506,-8.625,15.975,-33.3,28.337,-21.348,9.181,48.84388,2.353338,91.5,NaN,,13.113,,0 / 18,,484,2022-01-20 17:57:42:351
-1.72762,3.41306,7.68545,-1.38601,3.76068,8.95023,-0.2532,-0.24609,-0.80746,0.22503,0.44873,1.41077,-8.625,15.975,-33.3,28.337,-21.348,9.181,48.84388,2.353338,91.5,NaN,,13.113,,0 / 18,,490,2022-01-20 17:57:42:357
-1.72762,3.41306,7.68545,-1.38601,3.76068,8.95023,-0.2532,-0.24609,-0.80746,0.22503,0.44873,1.41077,-8.625,15.975,-33.3,28.337,-21.348,9.181,48.84388,2.353338,91.5,NaN,,13.113,,0 / 18,,495,2022-01-20 17:57:42:362
-1.72762,3.41306,7.68545,-1.38601,3.76068,8.95023,-0.2532,-0.24609,-0.80746,0.22503,0.44873,1.41077,-8.625,15.975,-33.3,28.337,-21.348,9.181,48.84388,2.353338,91.5,NaN,,13.113,,0 / 18,,500,2022-01-20 17:57:42:367
-1.72762,3.41306,7.68545,-1.38601,3.76068,8.95023,-0.2532,-0.24609,-0.80746,0.22503,0.44873,1.41077,-8.625,15.975,-33.3,28.337,-21.348,9.181,48.84388,2.353338,91.5,NaN,,13.113,,0 / 18,,505,2022-01-20 17:57:42:372
-0.47587,3.92094,5.92612,-1.16923,3.70623,9.00373,-0.2532,-0.24609,-0.80746,0.22503,0.44873,1.41077,-7.725,16.95,-33.45,25.037,-22.55,8.803,48.84388,2.353338,91.5,NaN,,13.113,,0 / 18,,551,2022-01-20 17:57:42:418
-0.47587,3.92094,5.92612,-1.16923,3.70623,9.00373,-0.2532,-0.24609,-0.80746,0.22503,0.44873,1.41077,-7.725,16.95,-33.45,25.037,-22.55,8.803,48.84388,2.353338,91.5,NaN,,13.113,,0 / 18,,551,2022-01-20 17:57:42:418
-0.47587,3.92094,5.92612,-1.16923,3.70623,9.00373,-0.2532,-0.24609,-0.80746,0.22503,0.44873,1.41077,-7.725,16.95,-33.45,25.037,-22.55,8.803,48.84388,2.353338,91.5,NaN,,13.113,,0 / 18,,551,2022-01-20 17:57:42:418
-0.47587,3.92094,5.92612,-1.16923,3.70623,9.00373,-0.2532,-0.24609,-0.80746,0.22503,0.44873,1.41077,-7.725,16.95,-33.45,25.037,-22.55,8.803,48.84388,2.353338,91.5,NaN,,13.113,,0 / 18,,552,2022-01-20 17:57:42:419
-0.47587,3.92094,5.92612,-1.16923,3.70623,9.00373,-0.2532,-0.24609,-0.80746,0.22503,0.44873,1.41077,-7.725,16.95,-33.45,25.037,-22.55,8.803,48.84388,2.353338,91.5,NaN,,13.113,,0 / 18,,552,2022-01-20 17:57:42:419
-0.47587,3.92094,5.92612,-1.16923,3.70623,9.00373,-0.2532,-0.24609,-0.80746,0.22503,0.44873,1.41077,-7.725,16.95,-33.45,25.037,-22.55,8.803,48.84388,2.353338,91.5,NaN,,13.113,,0 / 18,,552,2022-01-20 17:57:42:419
-0.47587,3.92094,5.92612,-1.16923,3.70623,9.00373,-0.2532,-0.24609,-0.80746,0.22503,0.44873,1.41077,-7.725,16.95,-33.45,25.037,-22.55,8.803,48.84388,2.353338,91.5,NaN,,13.113,,0 / 18,,552,2022-01-20 17:57:42:419
-0.47587,3.92094,5.92612,-1.16923,3.70623,9.00373,-0.2532,-0.24609,-0.80746,0.22503,0.44873,1.41077,-7.725,16.95,-33.45,25.037,-22.55,8.803,48.84388,2.353338,91.5,NaN,,13.113,,0 / 18,,552,2022-01-20 17:57:42:419
-0.47587,3.92094,5.92612,-1.16923,3.70623,9.00373,-0.2532,-0.24609,-0.80746,0.22503,0.44873,1.41077,-7.725,16.95,-33.45,25.037,-22.55,8.803,48.84388,2.353338,91.5,NaN,,13.113,,0 / 18,,553,2022-01-20 17:57:42:420
-0.47587,3.92094,5.92612,-1.16923,3.70623,9.00373,-0.2532,-0.24609,-0.80746,0.22503,0.44873,1.41077,-7.725,16.95,-33.45,25.037,-22.55,8.803,48.84388,2.353338,91.5,NaN,,13.113,,0 / 18,,554,2022-01-20 17:57:42:421
-0.47587,3.92094,5.92612,-1.16923,3.70623,9.00373,-0.2532,-0.24609,-0.80746,0.22503,0.44873,1.41077,-7.725,16.95,-33.45,25.037,-22.55,8.803,48.84388,2.353338,91.5,NaN,,13.113,,0 / 18,,560,2022-01-20 17:57:42:427
-0.47587,3.92094,5.92612,-1.16923,3.70623,9.00373,-0.2532,-0.24609,-0.80746,0.22503,0.44873,1.41077,-7.725,16.95,-33.45,25.037,-22.55,8.803,48.84388,2.353338,91.5,NaN,,13.113,,0 / 18,,564,2022-01-20 17:57:42:431
-0.47587,3.92094,5.92612,-1.16923,3.70623,9.00373,-0.2532,-0.24609,-0.80746,0.22503,0.44873,1.41077,-7.725,16.95,-33.45,25.037,-22.55,8.803,48.84388,2.353338,91.5,NaN,,13.113,,0 / 18,,570,2022-01-20 17:57:42:437
-0.47587,3.92094,5.92612,-1.16923,3.70623,9.00373,-0.2532,-0.24609,-0.80746,0.22503,0.44873,1.41077,-7.725,16.95,-33.45,25.037,-22.55,8.803,48.84388,2.353338,91.5,NaN,,13.113,,0 / 18,,574,2022-01-20 17:57:42:441
-0.47587,3.92094,5.92612,-1.16923,3.70623,9.00373,-0.2532,-0.24609,-0.80746,0.22503,0.44873,1.41077,-7.725,16.95,-33.45,25.037,-22.55,8.803,48.84388,2.353338,91.5,NaN,,13.113,,0 / 18,,579,2022-01-20 17:57:42:446
-0.47587,3.92094,5.92612,-1.16923,3.70623,9.00373,-0.2532,-0.24609,-0.80746,0.22503,0.44873,1.41077,-7.725,16.95,-33.45,25.037,-22.55,8.803,48.84388,2.353338,91.5,NaN,,13.113,,0 / 18,,585,2022-01-20 17:57:42:452
-0.47587,3.92094,5.92612,-1.16923,3.70623,9.00373,-0.2532,-0.24609,-0.80746,0.22503,0.44873,1.41077,-7.725,16.95,-33.45,25.037,-22.55,8.803,48.84388,2.353338,91.5,NaN,,13.113,,0 / 18,,589,2022-01-20 17:57:42:456
-0.47587,3.92094,5.92612,-1.16923,3.70623,9.00373,-0.2532,-0.24609,-0.80746,0.22503,0.44873,1.41077,-7.725,16.95,-33.45,25.037,-22.55,8.803,48.84388,2.353338,91.5,NaN,,13.113,,0 / 18,,594,2022-01-20 17:57:42:461
-0.47587,3.92094,5.92612,-1.16923,3.70623,9.00373,-0.2532,-0.24609,-0.80746,0.22503,0.44873,1.41077,-7.725,16.95,-33.45,25.037,-22.55,8.803,48.84388,2.353338,91.5,NaN,,13.113,,0 / 18,,599,2022-01-20 17:57:42:466
-0.47587,3.92094,5.92612,-1.16923,3.70623,9.00373,-0.2532,-0.24609,-0.80746,0.22503,0.44873,1.41077,-7.725,16.95,-33.45,25.037,-22.55,8.803,48.84388,2.353338,91.5,NaN,,13.113,,0 / 18,,605,2022-01-20 17:57:42:472
-0.47587,3.92094,5.92612,-1.16923,3.70623,9.00373,-0.2532,-0.24609,-0.80746,0.22503,0.44873,1.41077,-7.725,16.95,-33.45,25.037,-22.55,8.803,48.84388,2.353338,91.5,NaN,,13.113,,0 / 18,,610,2022-01-20 17:57:42:477
-0.47587,3.92094,5.92612,-1.16923,3.70623,9.00373,-0.2532,-0.24609,-0.80746,0.22503,0.44873,1.41077,-7.725,16.95,-33.45,25.037,-22.55,8.803,48.84388,2.353338,91.5,NaN,,13.113,,0 / 18,,614,2022-01-20 17:57:42:481
-0.47587,3.92094,5.92612,-1.16923,3.70623,9.00373,-0.2532,-0.24609,-0.80746,0.22503,0.44873,1.41077,-7.725,16.95,-33.45,25.037,-22.55,8.803,48.84388,2.353338,91.5,NaN,,13.113,,0 / 18,,619,2022-01-20 17:57:42:486
1.29811,1.60439,9.00419,-0.02329,2.24781,9.54553,-0.4243,1.03995,-3.51836,-3.05083,-1.49279,1.73087,-7.725,16.95,-33.45,25.037,-22.55,8.803,48.84388,2.353338,91.5,NaN,,13.113,,0 / 18,,625,2022-01-20 17:57:42:492
1.29811,1.60439,9.00419,-0.02329,2.24781,9.54553,-0.4243,1.03995,-3.51836,-3.05083,-1.49279,1.73087,-7.725,16.95,-33.45,25.037,-22.55,8.803,48.84388,2.353338,91.5,NaN,,13.113,,0 / 18,,629,2022-01-20 17:57:42:496
1.29811,1.60439,9.00419,-0.02329,2.24781,9.54553,-0.4243,1.03995,-3.51836,-3.05083,-1.49279,1.73087,-7.725,16.95,-33.45,25.037,-22.55,8.803,48.84388,2.353338,91.5,NaN,,13.113,,0 / 18,,635,2022-01-20 17:57:42:502
1.29811,1.60439,9.00419,-0.02329,2.24781,9.54553,-0.4243,1.03995,-3.51836,-3.05083,-1.49279,1.73087,-7.725,16.95,-33.45,25.037,-22.55,8.803,48.84388,2.353338,91.5,NaN,,13.113,,0 / 18,,639,2022-01-20 17:57:42:506
1.29811,1.60439,9.00419,-0.02329,2.24781,9.54553,-0.4243,1.03995,-3.51836,-3.05083,-1.49279,1.73087,-7.725,16.95,-33.45,25.037,-22.55,8.803,48.84388,2.353338,91.5,NaN,,13.113,,0 / 18,,644,2022-01-20 17:57:42:511
1.29811,1.60439,9.00419,-0.02329,2.24781,9.54553,-0.4243,1.03995,-3.51836,-3.05083,-1.49279,1.73087,-5.925,21.0,-33.375,12.251,-13.251,0.14,48.84388,2.353338,91.5,NaN,,13.113,,0 / 18,,649,2022-01-20 17:57:42:516
1.29811,1.60439,9.00419,-0.02329,2.24781,9.54553,-0.4243,1.03995,-3.51836,-3.05083,-1.49279,1.73087,-5.925,21.0,-33.375,12.251,-13.251,0.14,48.84388,2.353338,91.5,NaN,,13.113,,0 / 18,,654,2022-01-20 17:57:42:521
1.29811,1.60439,9.00419,-0.02329,2.24781,9.54553,-0.4243,1.03995,-3.51836,-3.05083,-1.49279,1.73087,-5.925,21.0,-33.375,12.251,-13.251,0.14,48.84388,2.353338,91.5,NaN,,13.113,,0 / 18,,659,2022-01-20 17:57:42:526
1.29811,1.60439,9.00419,-0.02329,2.24781,9.54553,-0.4243,1.03995,-3.51836,-3.05083,-1.49279,1.73087,-5.925,21.0,-33.375,12.251,-13.251,0.14,48.84388,2.353338,91.5,NaN,,13.113,,0 / 18,,664,2022-01-20 17:57:42:531
1.29811,1.60439,9.00419,-0.02329,2.24781,9.54553,-0.4243,1.03995,-3.51836,-3.05083,-1.49279,1.73087,-5.925,21.0,-33.375,12.251,-13.251,0.14,48.84388,2.353338,91.5,NaN,,13.113,,0 / 18,,669,2022-01-20 17:57:42:536
1.29811,1.60439,9.00419,-0.02329,2.24781,9.54553,-0.4243,1.03995,-3.51836,-3.05083,-1.49279,1.73087,-5.925,21.0,-33.375,12.251,-13.251,0.14,48.84388,2.353338,91.5,NaN,,13.113,,0 / 18,,674,2022-01-20 17:57:42:541
1.29811,1.60439,9.00419,-0.02329,2.24781,9.54553,-0.4243,1.03995,-3.51836,-3.05083,-1.49279,1.73087,-5.925,21.0,-33.375,12.251,-13.251,0.14,48.84388,2.353338,91.5,NaN,,13.113,,0 / 18,,680,2022-01-20 17:57:42:547
2.40957,1.49312,10.18744,0.4121,1.06112,9.74036,0.84008,0.57161,-0.40626,-3.05083,-1.49279,1.73087,-5.925,21.0,-33.375,12.251,-13.251,0.14,48.84388,2.353338,91.5,NaN,,13.113,,0 / 18,,684,2022-01-20 17:57:42:551
2.40957,1.49312,10.18744,0.4121,1.06112,9.74036,0.84008,0.57161,-0.40626,-3.05083,-1.49279,1.73087,-5.925,21.0,-33.375,12.251,-13.251,0.14,48.84388,2.353338,91.5,NaN,,13.113,,0 / 18,,689,2022-01-20 17:57:42:556
2.40957,1.49312,10.18744,0.4121,1.06112,9.74036,0.84008,0.57161,-0.40626,-3.05083,-1.49279,1.73087,-5.925,21.0,-33.375,12.251,-13.251,0.14,48.84388,2.353338,91.5,NaN,,13.113,,0 / 18,,694,2022-01-20 17:57:42:561
2.40957,1.49312,10.18744,0.4121,1.06112,9.74036,0.84008,0.57161,-0.40626,-3.05083,-1.49279,1.73087,-5.925,21.0,-33.375,12.251,-13.251,0.14,48.84388,2.353338,91.5,NaN,,13.113,,0 / 18,,700,2022-01-20 17:57:42:567
2.40957,1.49312,10.18744,0.4121,1.06112,9.74036,0.84008,0.57161,-0.40626,-3.05083,-1.49279,1.73087,-5.925,21.0,-33.375,12.251,-13.251,0.14,48.84388,2.353338,91.5,NaN,,13.113,,0 / 18,,704,2022-01-20 17:57:42:571
2.40957,1.49312,10.18744,0.4121,1.06112,9.74036,0.84008,0.57161,-0.40626,-3.05083,-1.49279,1.73087,-5.925,21.0,-33.375,12.251,-13.251,0.14,48.84388,2.353338,91.5,NaN,,13.113,,0 / 18,,709,2022-01-20 17:57:42:576
2.40957,1.49312,10.18744,0.4121,1.06112,9.74036,0.84008,0.57161,-0.40626,-3.05083,-1.49279,1.73087,-5.925,21.0,-33.375,12.251,-13.251,0.14,48.84388,2.353338,91.5,NaN,,13.113,,0 / 18,,714,2022-01-20 17:57:42:581
2.40957,1.49312,10.18744,0.4121,1.06112,9.74036,0.84008,0.57161,-0.40626,-3.05083,-1.49279,1.73087,-5.925,21.0,-33.375,12.251,-13.251,0.14,48.84388,2.353338,91.5,NaN,,13.113,,0 / 18,,719,2022-01-20 17:57:42:586
2.40957,1.49312,10.18744,0.4121,1.06112,9.74036,0.84008,0.57161,-0.40626,-3.05083,-1.49279,1.73087,-5.925,21.0,-33.375,12.251,-13.251,0.14,48.84388,2.353338,91.5,NaN,,13.113,,0 / 18,,724,2022-01-20 17:57:42:591
2.40957,1.49312,10.18744,0.4121,1.06112,9.74036,0.84008,0.57161,-0.40626,-3.05083,-1.49279,1.73087,-5.925,21.0,-33.375,12.251,-13.251,0.14,48.84388,2.353338,91.5,NaN,,13.113,,0 / 18,,729,2022-01-20 17:57:42:596
2.40957,1.49312,10.18744,0.4121,1.06112,9.74036,0.84008,0.57161,-0.40626,-3.05083,-1.49279,1.73087,-5.925,21.0,-33.375,12.251,-13.251,0.14,48.84388,2.353338,91.5,NaN,,13.113,,0 / 18,,734,2022-01-20 17:57:42:601
2.40957,1.49312,10.18744,0.4121,1.06112,9.74036,0.84008,0.57161,-0.40626,-3.05083,-1.49279,1.73087,-5.925,21.0,-33.375,12.251,-13.251,0.14,48.84388,2.353338,91.5,NaN,,13.113,,0 / 18,,739,2022-01-20 17:57:42:606
2.40957,1.49312,10.18744,0.4121,1.06112,9.74036,0.84008,0.57161,-0.40626,-3.05083,-1.49279,1.73087,-5.925,21.0,-33.375,12.251,-13.251,0.14,48.84388,2.353338,91.5,NaN,,13.113,,0 / 18,,745,2022-01-20 17:57:42:612
2.40957,1.49312,10.18744,0.4121,1.06112,9.74036,0.84008,0.57161,-0.40626,-3.05083,-1.49279,1.73087,-5.925,21.0,-33.375,12.251,-13.251,0.14,48.84388,2.353338,91.5,NaN,,13.113,,0 / 18,,749,2022-01-20 17:57:42:616
2.40957,1.49312,10.18744,0.4121,1.06112,9.74036,0.84008,0.57161,-0.40626,-2.3049,1.45071,-0.0012,-5.025,23.625,-33.15,7.473,-6.212,-2.423,48.84388,2.353338,91.5,NaN,,13.113,,0 / 18,,754,2022-01-20 17:57:42:621
-0.31765,-0.99332,13.08366,0.4121,1.06112,9.74036,0.84008,0.57161,-0.40626,-2.3049,1.45071,-0.0012,-5.025,23.625,-33.15,7.473,-6.212,-2.423,48.84388,2.353338,91.5,NaN,,13.113,,0 / 18,,759,2022-01-20 17:57:42:626
-0.31765,-0.99332,13.08366,0.4121,1.06112,9.74036,0.84008,0.57161,-0.40626,-2.3049,1.45071,-0.0012,-5.025,23.625,-33.15,7.473,-6.212,-2.423,48.84388,2.353338,91.5,NaN,,13.113,,0 / 18,,764,2022-01-20 17:57:42:631
-0.31765,-0.99332,13.08366,0.4121,1.06112,9.74036,0.84008,0.57161,-0.40626,-2.3049,1.45071,-0.0012,-5.025,23.625,-33.15,7.473,-6.212,-2.423,48.84388,2.353338,91.5,NaN,,13.113,,0 / 18,,769,2022-01-20 17:57:42:636
-0.31765,-0.99332,13.08366,0.4121,1.06112,9.74036,0.84008,0.57161,-0.40626,-2.3049,1.45071,-0.0012,-5.025,23.625,-33.15,7.473,-6.212,-2.423,48.84388,2.353338,91.5,NaN,,13.113,,0 / 18,,775,2022-01-20 17:57:42:642
-0.31765,-0.99332,13.08366,0.4121,1.06112,9.74036,0.84008,0.57161,-0.40626,-2.3049,1.45071,-0.0012,-5.025,23.625,-33.15,7.473,-6.212,-2.423,48.84388,2.353338,91.5,NaN,,13.113,,0 / 18,,779,2022-01-20 17:57:42:646
-0.31765,-0.99332,13.08366,0.4121,1.06112,9.74036,0.84008,0.57161,-0.40626,-2.3049,1.45071,-0.0012,-5.025,23.625,-33.15,7.473,-6.212,-2.423,48.84388,2.353338,91.5,NaN,,13.113,,0 / 18,,785,2022-01-20 17:57:42:652
-0.31765,-0.99332,13.08366,0.4121,1.06112,9.74036,0.84008,0.57161,-0.40626,-2.3049,1.45071,-0.0012,-5.025,23.625,-33.15,7.473,-6.212,-2.423,48.84388,2.353338,91.5,NaN,,13.113,,0 / 18,,790,2022-01-20 17:57:42:657
-0.31765,-0.99332,13.08366,-0.66147,-1.30122,9.69741,1.63161,0.88577,0.12309,-2.3049,1.45071,-0.0012,-5.025,23.625,-33.15,7.473,-6.212,-2.423,48.84388,2.353338,91.5,NaN,,13.113,,0 / 18,,794,2022-01-20 17:57:42:661
-0.31765,-0.99332,13.08366,-0.66147,-1.30122,9.69741,1.63161,0.88577,0.12309,-2.3049,1.45071,-0.0012,-5.025,23.625,-33.15,7.473,-6.212,-2.423,48.84388,2.353338,91.5,NaN,,13.113,,0 / 18,,800,2022-01-20 17:57:42:667
-0.31765,-0.99332,13.08366,-0.66147,-1.30122,9.69741,1.63161,0.88577,0.12309,-2.3049,1.45071,-0.0012,-5.025,23.625,-33.15,7.473,-6.212,-2.423,48.84388,2.353338,91.5,NaN,,13.113,,0 / 18,,804,2022-01-20 17:57:42:671
-0.31765,-0.99332,13.08366,-0.66147,-1.30122,9.69741,1.63161,0.88577,0.12309,-2.3049,1.45071,-0.0012,-5.025,23.625,-33.15,7.473,-6.212,-2.423,48.84388,2.353338,91.5,NaN,,13.113,,0 / 18,,809,2022-01-20 17:57:42:676
-1.00289,-2.53131,9.69183,-0.66147,-1.30122,9.69741,1.63161,0.88577,0.12309,-2.3049,1.45071,-0.0012,-5.025,23.625,-33.15,7.473,-6.212,-2.423,48.84388,2.353338,91.5,NaN,,13.113,,0 / 18,,814,2022-01-20 17:57:42:681
-1.00289,-2.53131,9.69183,-0.66147,-1.30122,9.69741,1.63161,0.88577,0.12309,-2.3049,1.45071,-0.0012,-5.025,23.625,-33.15,7.473,-6.212,-2.423,48.84388,2.353338,91.5,NaN,,13.113,,0 / 18,,819,2022-01-20 17:57:42:686
-1.00289,-2.53131,9.69183,-0.66147,-1.30122,9.69741,1.63161,0.88577,0.12309,-2.3049,1.45071,-0.0012,-5.025,23.625,-33.15,7.473,-6.212,-2.423,48.84388,2.353338,91.5,NaN,,13.113,,0 / 18,,824,2022-01-20 17:57:42:691
-1.00289,-2.53131,9.69183,-0.66147,-1.30122,9.69741,1.63161,0.88577,0.12309,-2.3049,1.45071,-0.0012,-5.025,23.625,-33.15,7.473,-6.212,-2.423,48.84388,2.353338,91.5,NaN,,13.113,,0 / 18,,829,2022-01-20 17:57:42:696
-1.00289,-2.53131,9.69183,-0.66147,-1.30122,9.69741,1.63161,0.88577,0.12309,-2.3049,1.45071,-0.0012,-5.025,23.625,-33.15,7.473,-6.212,-2.423,48.84388,2.353338,91.5,NaN,,13.113,,0 / 18,,837,2022-01-20 17:57:42:704
-1.00289,-2.53131,9.69183,-0.66147,-1.30122,9.69741,1.63161,0.88577,0.12309,-2.3049,1.45071,-0.0012,-5.025,23.625,-33.15,7.473,-6.212,-2.423,48.84388,2.353338,91.5,NaN,,13.113,,0 / 18,,839,2022-01-20 17:57:42:706
-1.00289,-2.53131,9.69183,-0.66147,-1.30122,9.69741,1.63161,0.88577,0.12309,-2.3049,1.45071,-0.0012,-5.025,23.625,-33.15,7.473,-6.212,-2.423,48.84388,2.353338,91.5,NaN,,13.113,,0 / 18,,844,2022-01-20 17:57:42:711
-1.00289,-2.53131,9.69183,-0.66147,-1.30122,9.69741,1.63161,0.88577,0.12309,-2.3049,1.45071,-0.0012,-5.025,23.625,-33.15,7.473,-6.212,-2.423,48.84388,2.353338,91.5,NaN,,13.113,,0 / 18,,849,2022-01-20 17:57:42:716
-1.00289,-2.53131,9.69183,-0.66147,-1.30122,9.69741,1.63161,0.88577,0.12309,-2.3049,1.45071,-0.0012,-3.3,29.775,-31.95,11.451,7.625,3.902,48.84388,2.353338,91.5,NaN,,13.113,,0 / 18,,854,2022-01-20 17:57:42:721
-1.00289,-2.53131,9.69183,-0.66147,-1.30122,9.69741,1.63161,0.88577,0.12309,-2.3049,1.45071,-0.0012,-3.3,29.775,-31.95,11.451,7.625,3.902,48.84388,2.353338,91.5,NaN,,13.113,,0 / 18,,859,2022-01-20 17:57:42:726
-1.00289,-2.53131,9.69183,-0.66147,-1.30122,9.69741,1.63161,0.88577,0.12309,-2.3049,1.45071,-0.0012,-3.3,29.775,-31.95,11.451,7.625,3.902,48.84388,2.353338,91.5,NaN,,13.113,,0 / 18,,864,2022-01-20 17:57:42:731
-1.04836,-2.54686,10.42583,-0.29038,-1.32799,9.71198,0.06831,-0.00558,2.85998,-2.3049,1.45071,-0.0012,-3.3,29.775,-31.95,11.451,7.625,3.902,48.84388,2.353338,91.5,NaN,,13.113,,0 / 18,,869,2022-01-20 17:57:42:736
-1.04836,-2.54686,10.42583,-0.29038,-1.32799,9.71198,0.06831,-0.00558,2.85998,-2.3049,1.45071,-0.0012,-3.3,29.775,-31.95,11.451,7.625,3.902,48.84388,2.353338,91.5,NaN,,13.113,,0 / 18,,874,2022-01-20 17:57:42:741
-1.04836,-2.54686,10.42583,-0.29038,-1.32799,9.71198,0.06831,-0.00558,2.85998,-2.3049,1.45071,-0.0012,-3.3,29.775,-31.95,11.451,7.625,3.902,48.84388,2.353338,91.5,NaN,,13.113,,0 / 18,,879,2022-01-20 17:57:42:746
-1.04836,-2.54686,10.42583,-0.29038,-1.32799,9.71198,0.06831,-0.00558,2.85998,-2.3049,1.45071,-0.0012,-3.3,29.775,-31.95,11.451,7.625,3.902,48.84388,2.353338,91.5,NaN,,13.113,,0 / 18,,884,2022-01-20 17:57:42:751
-1.04836,-2.54686,10.42583,-0.29038,-1.32799,9.71198,0.06831,-0.00558,2.85998,-0.29507,-0.2016,0.08282,-3.3,29.775,-31.95,11.451,7.625,3.902,48.84388,2.353338,91.5,NaN,,13.113,,0 / 18,,889,2022-01-20 17:57:42:756
-1.04836,-2.54686,10.42583,-0.29038,-1.32799,9.71198,0.06831,-0.00558,2.85998,-0.29507,-0.2016,0.08282,-3.3,29.775,-31.95,11.451,7.625,3.902,48.84388,2.353338,91.5,NaN,,13.113,,0 / 18,,894,2022-01-20 17:57:42:761
-1.04836,-2.54686,10.42583,-0.29038,-1.32799,9.71198,0.06831,-0.00558,2.85998,-0.29507,-0.2016,0.08282,-3.3,29.775,-31.95,11.451,7.625,3.902,48.84388,2.353338,91.5,NaN,,13.113,,0 / 18,,899,2022-01-20 17:57:42:766
-1.04836,-2.54686,10.42583,-0.29038,-1.32799,9.71198,0.06831,-0.00558,2.85998,-0.29507,-0.2016,0.08282,-3.3,29.775,-31.95,11.451,7.625,3.902,48.84388,2.353338,91.5,NaN,,13.113,,0 / 18,,904,2022-01-20 17:57:42:771
-1.04836,-2.54686,10.42583,-0.29038,-1.32799,9.71198,0.06831,-0.00558,2.85998,-0.29507,-0.2016,0.08282,-3.3,29.775,-31.95,11.451,7.625,3.902,48.84388,2.353338,91.5,NaN,,13.113,,0 / 18,,909,2022-01-20 17:57:42:776
-1.04836,-2.54686,10.42583,-0.29038,-1.32799,9.71198,0.06831,-0.00558,2.85998,-0.29507,-0.2016,0.08282,-3.3,29.775,-31.95,11.451,7.625,3.902,48.84388,2.353338,91.5,NaN,,13.113,,0 / 18,,914,2022-01-20 17:57:42:781
-1.04836,-2.54686,10.42583,-0.29038,-1.32799,9.71198,0.06831,-0.00558,2.85998,-0.29507,-0.2016,0.08282,-3.3,29.775,-31.95,11.451,7.625,3.902,48.84388,2.353338,91.5,NaN,,13.113,,0 / 18,,919,2022-01-20 17:57:42:786
-1.04836,-2.54686,10.42583,-0.29038,-1.32799,9.71198,0.06831,-0.00558,2.85998,-0.29507,-0.2016,0.08282,-3.3,29.775,-31.95,11.451,7.625,3.902,48.84388,2.353338,91.5,NaN,,13.113,,0 / 18,,924,2022-01-20 17:57:42:791
-1.04836,-2.54686,10.42583,-0.29038,-1.32799,9.71198,0.06831,-0.00558,2.85998,-0.29507,-0.2016,0.08282,-3.3,29.775,-31.95,11.451,7.625,3.902,48.84388,2.353338,91.5,NaN,,13.113,,0 / 18,,929,2022-01-20 17:57:42:796
-1.04836,-2.54686,10.42583,-0.29038,-1.32799,9.71198,0.06831,-0.00558,2.85998,-0.29507,-0.2016,0.08282,-3.3,29.775,-31.95,11.451,7.625,3.902,48.84388,2.353338,91.5,NaN,,13.113,,0 / 18,,934,2022-01-20 17:57:42:801
-1.04836,-2.54686,10.42583,-0.29038,-1.32799,9.71198,0.06831,-0.00558,2.85998,-0.29507,-0.2016,0.08282,-3.3,29.775,-31.95,11.451,7.625,3.902,48.84388,2.353338,91.5,NaN,,13.113,,0 / 18,,939,2022-01-20 17:57:42:806
-1.04836,-2.54686,10.42583,-0.29038,-1.32799,9.71198,0.06831,-0.00558,2.85998,-0.29507,-0.2016,0.08282,-3.3,29.775,-31.95,11.451,7.625,3.902,48.84388,2.353338,91.5,NaN,,13.113,,0 / 18,,944,2022-01-20 17:57:42:811
-1.04836,-2.54686,10.42583,-0.29038,-1.32799,9.71198,0.06831,-0.00558,2.85998,-0.29507,-0.2016,0.08282,-3.3,29.775,-31.95,11.451,7.625,3.902,48.84388,2.353338,91.5,NaN,,13.113,,0 / 18,,949,2022-01-20 17:57:42:816
-1.38485,-2.00309,9.469,-0.29038,-1.32799,9.71198,0.06831,-0.00558,2.85998,-0.29507,-0.2016,0.08282,-2.475,32.475,-31.05,6.069,7.783,1.713,48.84388,2.353338,91.5,NaN,,13.113,,0 / 18,,954,2022-01-20 17:57:42:821
-1.38485,-2.00309,9.469,-0.29038,-1.32799,9.71198,0.06831,-0.00558,2.85998,-0.29507,-0.2016,0.08282,-2.475,32.475,-31.05,6.069,7.783,1.713,48.84388,2.353338,91.5,NaN,,13.113,,0 / 18,,960,2022-01-20 17:57:42:827
-1.38485,-2.00309,9.469,-0.29038,-1.32799,9.71198,0.06831,-0.00558,2.85998,-0.29507,-0.2016,0.08282,-2.475,32.475,-31.05,6.069,7.783,1.713,48.84388,2.353338,91.5,NaN,,13.113,,0 / 18,,964,2022-01-20 17:57:42:831
-1.38485,-2.00309,9.469,-0.29038,-1.32799,9.71198,0.06831,-0.00558,2.85998,-0.29507,-0.2016,0.08282,-2.475,32.475,-31.05,6.069,7.783,1.713,48.84388,2.353338,91.5,NaN,,13.113,,0 / 18,,969,2022-01-20 17:57:42:836
-1.38485,-2.00309,9.469,-0.29038,-1.32799,9.71198,0.06831,-0.00558,2.85998,-0.29507,-0.2016,0.08282,-2.475,32.475,-31.05,6.069,7.783,1.713,48.84388,2.353338,91.5,NaN,,13.113,,0 / 18,,974,2022-01-20 17:57:42:841
-1.38485,-2.00309,9.469,-0.29038,-1.32799,9.71198,0.06831,-0.00558,2.85998,-0.29507,-0.2016,0.08282,-2.475,32.475,-31.05,6.069,7.783,1.713,48.84388,2.353338,91.5,NaN,,13.113,,0 / 18,,979,2022-01-20 17:57:42:846
-1.38485,-2.00309,9.469,-0.29038,-1.32799,9.71198,0.06831,-0.00558,2.85998,-0.29507,-0.2016,0.08282,-2.475,32.475,-31.05,6.069,7.783,1.713,48.84388,2.353338,91.5,NaN,,13.113,,0 / 18,,984,2022-01-20 17:57:42:851
-1.38485,-2.00309,9.469,-0.41379,-1.65023,9.65795,-0.84033,-0.45515,0.40105,-0.29507,-0.2016,0.08282,-2.475,32.475,-31.05,6.069,7.783,1.713,48.84388,2.353338,91.5,NaN,,13.113,,0 / 18,,989,2022-01-20 17:57:42:856
-1.38485,-2.00309,9.469,-0.41379,-1.65023,9.65795,-0.84033,-0.45515,0.40105,-0.29507,-0.2016,0.08282,-2.475,32.475,-31.05,6.069,7.783,1.713,48.84388,2.353338,91.5,NaN,,13.113,,0 / 18,,994,2022-01-20 17:57:42:861
-1.38485,-2.00309,9.469,-0.41379,-1.65023,9.65795,-0.84033,-0.45515,0.40105,-0.29507,-0.2016,0.08282,-2.475,32.475,-31.05,6.069,7.783,1.713,48.84388,2.353338,91.5,NaN,,13.113,,0 / 18,,999,2022-01-20 17:57:42:866
-1.38485,-2.00309,9.469,-0.41379,-1.65023,9.65795,-0.84033,-0.45515,0.40105,-0.29507,-0.2016,0.08282,-2.475,32.475,-31.05,6.069,7.783,1.713,48.84388,2.353338,91.5,NaN,,13.113,,0 / 18,,1004,2022-01-20 17:57:42:871
-1.38485,-2.00309,9.469,-0.41379,-1.65023,9.65795,-0.84033,-0.45515,0.40105,-0.29507,-0.2016,0.08282,-2.475,32.475,-31.05,6.069,7.783,1.713,48.84388,2.353338,91.5,NaN,,13.113,,0 / 18,,1009,2022-01-20 17:57:42:876
-1.38485,-2.00309,9.469,-0.41379,-1.65023,9.65795,-0.84033,-0.45515,0.40105,-0.29507,-0.2016,0.08282,-2.475,32.475,-31.05,6.069,7.783,1.713,48.84388,2.353338,91.5,NaN,,13.113,,0 / 18,,1014,2022-01-20 17:57:42:881
-1.38485,-2.00309,9.469,-0.41379,-1.65023,9.65795,-0.84033,-0.45515,0.40105,-0.29507,-0.2016,0.08282,-2.475,32.475,-31.05,6.069,7.783,1.713,48.84388,2.353338,91.5,NaN,,13.113,,0 / 18,,1019,2022-01-20 17:57:42:886
-1.38485,-2.00309,9.469,-0.41379,-1.65023,9.65795,-0.84033,-0.45515,0.40105,-0.29507,-0.2016,0.08282,-2.475,32.475,-31.05,6.069,7.783,1.713,48.84388,2.353338,91.5,NaN,,13.113,,0 / 18,,1025,2022-01-20 17:57:42:892
0.16002,-1.4988,9.55634,-0.41379,-1.65023,9.65795,-0.84033,-0.45515,0.40105,-0.03928,-0.06937,0.38921,-2.475,32.475,-31.05,6.069,7.783,1.713,48.84388,2.353338,91.5,NaN,,13.113,,0 / 18,,1030,2022-01-20 17:57:42:897
0.16002,-1.4988,9.55634,-0.41379,-1.65023,9.65795,-0.84033,-0.45515,0.40105,-0.03928,-0.06937,0.38921,-2.475,32.475,-31.05,6.069,7.783,1.713,48.84388,2.353338,91.5,NaN,,13.113,,0 / 18,,1035,2022-01-20 17:57:42:902
0.16002,-1.4988,9.55634,-0.41379,-1.65023,9.65795,-0.84033,-0.45515,0.40105,-0.03928,-0.06937,0.38921,-2.475,32.475,-31.05,6.069,7.783,1.713,48.84388,2.353338,91.5,NaN,,13.113,,0 / 18,,1040,2022-01-20 17:57:42:907
0.16002,-1.4988,9.55634,-0.41379,-1.65023,9.65795,-0.84033,-0.45515,0.40105,-0.03928,-0.06937,0.38921,-2.475,32.475,-31.05,6.069,7.783,1.713,48.84388,2.353338,91.5,NaN,,13.113,,0 / 18,,1045,2022-01-20 17:57:42:912
0.16002,-1.4988,9.55634,-0.46013,-1.68186,9.65039,-0.84033,-0.45515,0.40105,-0.03928,-0.06937,0.38921,-2.475,32.475,-31.05,6.069,7.783,1.713,48.84388,2.353338,91.5,NaN,,13.113,,0 / 18,,1049,2022-01-20 17:57:42:916
0.16002,-1.4988,9.55634,-0.46013,-1.68186,9.65039,-0.84033,-0.45515,0.40105,-0.03928,-0.06937,0.38921,-2.175,37.875,-28.95,5.938,9.875,2.73,48.84388,2.353338,91.5,NaN,,13.113,,0 / 18,,1055,2022-01-20 17:57:42:922
0.16002,-1.4988,9.55634,-0.46013,-1.68186,9.65039,-0.84033,-0.45515,0.40105,-0.03928,-0.06937,0.38921,-2.175,37.875,-28.95,5.938,9.875,2.73,48.84388,2.353338,91.5,NaN,,13.113,,0 / 18,,1060,2022-01-20 17:57:42:927
0.16002,-1.4988,9.55634,-0.46013,-1.68186,9.65039,-0.84033,-0.45515,0.40105,-0.03928,-0.06937,0.38921,-2.175,37.875,-28.95,5.938,9.875,2.73,48.84388,2.353338,91.5,NaN,,13.113,,0 / 18,,1065,2022-01-20 17:57:42:932
0.16002,-1.4988,9.55634,-0.46013,-1.68186,9.65039,-0.84033,-0.45515,0.40105,-0.03928,-0.06937,0.38921,-2.175,37.875,-28.95,5.938,9.875,2.73,48.84388,2.353338,91.5,NaN,,13.113,,0 / 18,,1070,2022-01-20 17:57:42:937
0.16002,-1.4988,9.55634,-0.46013,-1.68186,9.65039,-0.84033,-0.45515,0.40105,-0.03928,-0.06937,0.38921,-2.175,37.875,-28.95,5.938,9.875,2.73,48.84388,2.353338,91.5,NaN,,13.113,,0 / 18,,1074,2022-01-20 17:57:42:941
0.16002,-1.4988,9.55634,-0.46013,-1.68186,9.65039,-0.84033,-0.45515,0.40105,-0.03928,-0.06937,0.38921,-2.175,37.875,-28.95,5.938,9.875,2.73,48.84388,2.353338,91.5,NaN,,13.113,,0 / 18,,1080,2022-01-20 17:57:42:947
0.16002,-1.4988,9.55634,-0.46013,-1.68186,9.65039,-0.84033,-0.45515,0.40105,-0.03928,-0.06937,0.38921,-2.175,37.875,-28.95,5.938,9.875,2.73,48.84388,2.353338,91.5,NaN,,13.113,,0 / 18,,1084,2022-01-20 17:57:42:951
0.16002,-1.4988,9.55634,-0.46013,-1.68186,9.65039,-0.84033,-0.45515,0.40105,-0.03928,-0.06937,0.38921,-2.175,37.875,-28.95,5.938,9.875,2.73,48.84388,2.353338,91.5,NaN,,13.113,,0 / 18,,1090,2022-01-20 17:57:42:957
-0.02303,-1.88584,9.44148,-0.46013,-1.68186,9.65039,-0.84033,-0.45515,0.40105,-0.03928,-0.06937,0.38921,-2.175,37.875,-28.95,5.938,9.875,2.73,48.84388,2.353338,91.5,NaN,,13.113,,0 / 18,,1094,2022-01-20 17:57:42:961
-0.02303,-1.88584,9.44148,-0.46013,-1.68186,9.65039,-0.84033,-0.45515,0.40105,-0.03928,-0.06937,0.38921,-2.175,37.875,-28.95,5.938,9.875,2.73,48.84388,2.353338,91.5,NaN,,13.113,,0 / 18,,1100,2022-01-20 17:57:42:967
-0.02303,-1.88584,9.44148,-0.46013,-1.68186,9.65039,-0.84033,-0.45515,0.40105,-0.03928,-0.06937,0.38921,-2.175,37.875,-28.95,5.938,9.875,2.73,48.84388,2.353338,91.5,NaN,,13.113,,0 / 18,,1104,2022-01-20 17:57:42:971
-0.02303,-1.88584,9.44148,-0.46013,-1.68186,9.65039,-0.84033,-0.45515,0.40105,-0.03928,-0.06937,0.38921,-2.175,37.875,-28.95,5.938,9.875,2.73,48.84388,2.353338,91.5,NaN,,13.113,,0 / 18,,1109,2022-01-20 17:57:42:976
-0.02303,-1.88584,9.44148,-0.41437,-1.68882,9.65125,0.29014,-0.06983,-0.20268,-0.03928,-0.06937,0.38921,-2.175,37.875,-28.95,5.938,9.875,2.73,48.84388,2.353338,91.5,NaN,,13.113,,0 / 18,,1114,2022-01-20 17:57:42:981
-0.02303,-1.88584,9.44148,-0.41437,-1.68882,9.65125,0.29014,-0.06983,-0.20268,-0.03928,-0.06937,0.38921,-2.175,37.875,-28.95,5.938,9.875,2.73,48.84388,2.353338,91.5,NaN,,13.113,,0 / 18,,1121,2022-01-20 17:57:42:988
-0.02303,-1.88584,9.44148,-0.41437,-1.68882,9.65125,0.29014,-0.06983,-0.20268,-0.03928,-0.06937,0.38921,-2.175,37.875,-28.95,5.938,9.875,2.73,48.84388,2.353338,91.5,NaN,,13.113,,0 / 18,,1124,2022-01-20 17:57:42:991
-0.02303,-1.88584,9.44148,-0.41437,-1.68882,9.65125,0.29014,-0.06983,-0.20268,-0.03928,-0.06937,0.38921,-2.175,37.875,-28.95,5.938,9.875,2.73,48.84388,2.353338,91.5,NaN,,13.113,,0 / 18,,1129,2022-01-20 17:57:42:996
-0.02303,-1.88584,9.44148,-0.41437,-1.68882,9.65125,0.29014,-0.06983,-0.20268,-0.03928,-0.06937,0.38921,-2.175,37.875,-28.95,5.938,9.875,2.73,48.84388,2.353338,91.5,NaN,,13.113,,0 / 18,,1134,2022-01-20 17:57:43:001
-0.02303,-1.88584,9.44148,-0.41437,-1.68882,9.65125,0.29014,-0.06983,-0.20268,-0.03928,-0.06937,0.38921,-2.175,37.875,-28.95,5.938,9.875,2.73,48.84388,2.353338,91.5,NaN,,13.113,,0 / 18,,1139,2022-01-20 17:57:43:006
-0.02303,-1.88584,9.44148,-0.41437,-1.68882,9.65125,0.29014,-0.06983,-0.20268,-0.03928,-0.06937,0.38921,-2.175,37.875,-28.95,5.938,9.875,2.73,48.84388,2.353338,91.5,NaN,,13.113,,0 / 18,,1145,2022-01-20 17:57:43:012
-1.22812,-2.20917,9.42593,-0.41437,-1.68882,9.65125,0.29014,-0.06983,-0.20268,-0.12117,0.11265,0.19321,-1.95,39.825,-27.75,5.283,9.916,2.458,48.84388,2.353338,91.5,NaN,,13.113,,0 / 18,,1149,2022-01-20 17:57:43:016
-1.22812,-2.20917,9.42593,-0.41437,-1.68882,9.65125,0.29014,-0.06983,-0.20268,-0.12117,0.11265,0.19321,-1.95,39.825,-27.75,5.283,9.916,2.458,48.84388,2.353338,91.5,NaN,,13.113,,0 / 18,,1155,2022-01-20 17:57:43:022
-1.22812,-2.20917,9.42593,-0.41437,-1.68882,9.65125,0.29014,-0.06983,-0.20268,-0.12117,0.11265,0.19321,-1.95,39.825,-27.75,5.283,9.916,2.458,48.84388,2.353338,91.5,NaN,,13.113,,0 / 18,,1161,2022-01-20 17:57:43:028
-1.22812,-2.20917,9.42593,-0.41437,-1.68882,9.65125,0.29014,-0.06983,-0.20268,-0.12117,0.11265,0.19321,-1.95,39.825,-27.75,5.283,9.916,2.458,48.84388,2.353338,91.5,NaN,,13.113,,0 / 18,,1164,2022-01-20 17:57:43:031
-1.22812,-2.20917,9.42593,-0.41437,-1.68882,9.65125,0.29014,-0.06983,-0.20268,-0.12117,0.11265,0.19321,-1.95,39.825,-27.75,5.283,9.916,2.458,48.84388,2.353338,91.5,NaN,,13.113,,0 / 18,,1169,2022-01-20 17:57:43:036
-1.22812,-2.20917,9.42593,-0.41437,-1.68882,9.65125,0.29014,-0.06983,-0.20268,-0.12117,0.11265,0.19321,-1.95,39.825,-27.75,5.283,9.916,2.458,48.84388,2.353338,91.5,NaN,,13.113,,0 / 18,,1175,2022-01-20 17:57:43:042
-1.22812,-2.20917,9.42593,-0.41437,-1.68882,9.65125,0.29014,-0.06983,-0.20268,-0.12117,0.11265,0.19321,-1.95,39.825,-27.75,5.283,9.916,2.458,48.84388,2.353338,91.5,NaN,,13.113,,0 / 18,,1180,2022-01-20 17:57:43:047
-1.22812,-2.20917,9.42593,-0.41437,-1.68882,9.65125,0.29014,-0.06983,-0.20268,-0.12117,0.11265,0.19321,-1.95,39.825,-27.75,5.283,9.916,2.458,48.84388,2.353338,91.5,NaN,,13.113,,0 / 18,,1184,2022-01-20 17:57:43:051
-1.22812,-2.20917,9.42593,-0.41437,-1.68882,9.65125,0.29014,-0.06983,-0.20268,-0.12117,0.11265,0.19321,-1.95,39.825,-27.75,5.283,9.916,2.458,48.84388,2.353338,91.5,NaN,,13.113,,0 / 18,,1189,2022-01-20 17:57:43:056
-1.22812,-2.20917,9.42593,-0.41437,-1.68882,9.65125,0.29014,-0.06983,-0.20268,-0.12117,0.11265,0.19321,-1.95,39.825,-27.75,5.283,9.916,2.458,48.84388,2.353338,91.5,NaN,,13.113,,0 / 18,,1194,2022-01-20 17:57:43:061
-1.22812,-2.20917,9.42593,-0.41437,-1.68882,9.65125,0.29014,-0.06983,-0.20268,-0.12117,0.11265,0.19321,-1.95,39.825,-27.75,5.283,9.916,2.458,48.84388,2.353338,91.5,NaN,,13.113,,0 / 18,,1199,2022-01-20 17:57:43:066
-1.22812,-2.20917,9.42593,-0.41437,-1.68882,9.65125,0.29014,-0.06983,-0.20268,-0.12117,0.11265,0.19321,-1.95,39.825,-27.75,5.283,9.916,2.458,48.84388,2.353338,91.5,NaN,,13.113,,0 / 18,,1204,2022-01-20 17:57:43:071
-1.22812,-2.20917,9.42593,-0.41437,-1.68882,9.65125,0.29014,-0.06983,-0.20268,-0.12117,0.11265,0.19321,-1.95,39.825,-27.75,5.283,9.916,2.458,48.84388,2.353338,91.5,NaN,,13.113,,0 / 18,,1209,2022-01-20 17:57:43:076
-1.22812,-2.20917,9.42593,-0.41437,-1.68882,9.65125,0.29014,-0.06983,-0.20268,-0.12117,0.11265,0.19321,-1.95,39.825,-27.75,5.283,9.916,2.458,48.84388,2.353338,91.5,NaN,,13.113,,0 / 18,,1215,2022-01-20 17:57:43:082
0.12891,-1.70967,9.3694,-0.63332,-1.95577,9.58876,-0.51208,-0.28063,-0.1363,-0.35366,0.14434,0.25392,-1.95,39.825,-27.75,5.283,9.916,2.458,48.84388,2.353338,91.5,NaN,,13.113,,0 / 18,,1219,2022-01-20 17:57:43:086
0.12891,-1.70967,9.3694,-0.63332,-1.95577,9.58876,-0.51208,-0.28063,-0.1363,-0.35366,0.14434,0.25392,-1.95,39.825,-27.75,5.283,9.916,2.458,48.84388,2.353338,91.5,NaN,,13.113,,0 / 18,,1226,2022-01-20 17:57:43:093
0.12891,-1.70967,9.3694,-0.63332,-1.95577,9.58876,-0.51208,-0.28063,-0.1363,-0.35366,0.14434,0.25392,-1.95,39.825,-27.75,5.283,9.916,2.458,48.84388,2.353338,91.5,NaN,,13.113,,0 / 18,,1229,2022-01-20 17:57:43:096
0.12891,-1.70967,9.3694,-0.63332,-1.95577,9.58876,-0.51208,-0.28063,-0.1363,-0.35366,0.14434,0.25392,-1.95,39.825,-27.75,5.283,9.916,2.458,48.84388,2.353338,91.5,NaN,,13.113,,0 / 18,,1235,2022-01-20 17:57:43:102
0.12891,-1.70967,9.3694,-0.63332,-1.95577,9.58876,-0.51208,-0.28063,-0.1363,-0.35366,0.14434,0.25392,-1.95,39.825,-27.75,5.283,9.916,2.458,48.84388,2.353338,91.5,NaN,,13.113,,0 / 18,,1241,2022-01-20 17:57:43:108
0.12891,-1.70967,9.3694,-0.63332,-1.95577,9.58876,-0.51208,-0.28063,-0.1363,-0.35366,0.14434,0.25392,-1.95,39.825,-27.75,5.283,9.916,2.458,48.84388,2.353338,91.5,NaN,,13.113,,0 / 18,,1244,2022-01-20 17:57:43:111
0.12891,-1.70967,9.3694,-0.63332,-1.95577,9.58876,-0.51208,-0.28063,-0.1363,-0.35366,0.14434,0.25392,-1.95,39.825,-27.75,5.283,9.916,2.458,48.84388,2.353338,91.5,NaN,,13.113,,0 / 18,,1249,2022-01-20 17:57:43:116
0.12891,-1.70967,9.3694,-0.63332,-1.95577,9.58876,-0.51208,-0.28063,-0.1363,-0.35366,0.14434,0.25392,-0.825,42.3,-25.95,4.308,11.504,3.779,48.84388,2.353338,91.5,NaN,,13.113,,0 / 18,,1254,2022-01-20 17:57:43:121
0.12891,-1.70967,9.3694,-0.63332,-1.95577,9.58876,-0.51208,-0.28063,-0.1363,-0.35366,0.14434,0.25392,-0.825,42.3,-25.95,4.308,11.504,3.779,48.84388,2.353338,91.5,NaN,,13.113,,0 / 18,,1259,2022-01-20 17:57:43:126
0.12891,-1.70967,9.3694,-0.63332,-1.95577,9.58876,-0.51208,-0.28063,-0.1363,-0.35366,0.14434,0.25392,-0.825,42.3,-25.95,4.308,11.504,3.779,48.84388,2.353338,91.5,NaN,,13.113,,0 / 18,,1265,2022-01-20 17:57:43:132
0.12891,-1.70967,9.3694,-0.63332,-1.95577,9.58876,-0.51208,-0.28063,-0.1363,-0.35366,0.14434,0.25392,-0.825,42.3,-25.95,4.308,11.504,3.779,48.84388,2.353338,91.5,NaN,,13.113,,0 / 18,,1269,2022-01-20 17:57:43:136
0.12891,-1.70967,9.3694,-0.63332,-1.95577,9.58876,-0.51208,-0.28063,-0.1363,-0.35366,0.14434,0.25392,-0.825,42.3,-25.95,4.308,11.504,3.779,48.84388,2.353338,91.5,NaN,,13.113,,0 / 18,,1275,2022-01-20 17:57:43:142
0.12891,-1.70967,9.3694,-0.63332,-1.95577,9.58876,-0.51208,-0.28063,-0.1363,-0.35366,0.14434,0.25392,-0.825,42.3,-25.95,4.308,11.504,3.779,48.84388,2.353338,91.5,NaN,,13.113,,0 / 18,,1279,2022-01-20 17:57:43:146
-0.70469,-2.3674,9.84258,-0.63332,-1.95577,9.58876,-0.51208,-0.28063,-0.1363,-0.35366,0.14434,0.25392,-0.825,42.3,-25.95,4.308,11.504,3.779,48.84388,2.353338,91.5,NaN,,13.113,,0 / 18,,1284,2022-01-20 17:57:43:151
-0.70469,-2.3674,9.84258,-0.62065,-2.15782,9.54615,0.46044,0.23439,-0.11438,-0.35366,0.14434,0.25392,-0.825,42.3,-25.95,4.308,11.504,3.779,48.84388,2.353338,91.5,NaN,,13.113,,0 / 18,,1289,2022-01-20 17:57:43:156
-0.70469,-2.3674,9.84258,-0.62065,-2.15782,9.54615,0.46044,0.23439,-0.11438,-0.35366,0.14434,0.25392,-0.825,42.3,-25.95,4.308,11.504,3.779,48.84388,2.353338,91.5,NaN,,13.113,,0 / 18,,1294,2022-01-20 17:57:43:161
-0.70469,-2.3674,9.84258,-0.62065,-2.15782,9.54615,0.46044,0.23439,-0.11438,-0.35366,0.14434,0.25392,-0.825,42.3,-25.95,4.308,11.504,3.779,48.84388,2.353338,91.5,NaN,,13.113,,0 / 18,,1300,2022-01-20 17:57:43:167
-0.70469,-2.3674,9.84258,-0.62065,-2.15782,9.54615,0.46044,0.23439,-0.11438,-0.35366,0.14434,0.25392,-0.825,42.3,-25.95,4.308,11.504,3.779,48.84388,2.353338,91.5,NaN,,13.113,,0 / 18,,1304,2022-01-20 17:57:43:171
-0.70469,-2.3674,9.84258,-0.62065,-2.15782,9.54615,0.46044,0.23439,-0.11438,-0.35366,0.14434,0.25392,-0.825,42.3,-25.95,4.308,11.504,3.779,48.84388,2.353338,91.5,NaN,,13.113,,0 / 18,,1309,2022-01-20 17:57:43:176
-0.70469,-2.3674,9.84258,-0.62065,-2.15782,9.54615,0.46044,0.23439,-0.11438,-0.35366,0.14434,0.25392,-0.825,42.3,-25.95,4.308,11.504,3.779,48.84388,2.353338,91.5,NaN,,13.113,,0 / 18,,1314,2022-01-20 17:57:43:181
-0.70469,-2.3674,9.84258,-0.62065,-2.15782,9.54615,0.46044,0.23439,-0.11438,-0.35366,0.14434,0.25392,-0.825,42.3,-25.95,4.308,11.504,3.779,48.84388,2.353338,91.5,NaN,,13.113,,0 / 18,,1319,2022-01-20 17:57:43:186
-0.70469,-2.3674,9.84258,-0.62065,-2.15782,9.54615,0.46044,0.23439,-0.11438,-0.35366,0.14434,0.25392,-0.825,42.3,-25.95,4.308,11.504,3.779,48.84388,2.353338,91.5,NaN,,13.113,,0 / 18,,1325,2022-01-20 17:57:43:192
-0.70469,-2.3674,9.84258,-0.62065,-2.15782,9.54615,0.46044,0.23439,-0.11438,-0.35366,0.14434,0.25392,-0.825,42.3,-25.95,4.308,11.504,3.779,48.84388,2.353338,91.5,NaN,,13.113,,0 / 18,,1330,2022-01-20 17:57:43:197
-0.70469,-2.3674,9.84258,-0.62065,-2.15782,9.54615,0.46044,0.23439,-0.11438,-0.35366,0.14434,0.25392,-0.825,42.3,-25.95,4.308,11.504,3.779,48.84388,2.353338,91.5,NaN,,13.113,,0 / 18,,1334,2022-01-20 17:57:43:201
-0.70469,-2.3674,9.84258,-0.62065,-2.15782,9.54615,0.46044,0.23439,-0.11438,-0.35366,0.14434,0.25392,-0.825,42.3,-25.95,4.308,11.504,3.779,48.84388,2.353338,91.5,NaN,,13.113,,0 / 18,,1339,2022-01-20 17:57:43:206
-0.70469,-2.3674,9.84258,-0.62065,-2.15782,9.54615,0.46044,0.23439,-0.11438,-0.35366,0.14434,0.25392,-0.825,42.3,-25.95,4.308,11.504,3.779,48.84388,2.353338,91.5,NaN,,13.113,,0 / 18,,1345,2022-01-20 17:57:43:212
-0.70469,-2.3674,9.84258,-0.62065,-2.15782,9.54615,0.46044,0.23439,-0.11438,-0.35366,0.14434,0.25392,-0.45,42.825,-25.425,2.547,12.711,3.72,48.84388,2.353338,91.5,NaN,,13.113,,0 / 18,,1350,2022-01-20 17:57:43:217
-1.22453,-1.75155,9.65564,-0.70761,-2.2213,9.52552,-0.09168,-0.12138,0.34439,-0.06738,0.21877,-0.02037,-0.45,42.825,-25.425,2.547,12.711,3.72,48.84388,2.353338,91.5,NaN,,13.113,,0 / 18,,1355,2022-01-20 17:57:43:222
-1.22453,-1.75155,9.65564,-0.70761,-2.2213,9.52552,-0.09168,-0.12138,0.34439,-0.06738,0.21877,-0.02037,-0.45,42.825,-25.425,2.547,12.711,3.72,48.84388,2.353338,91.5,NaN,,13.113,,0 / 18,,1359,2022-01-20 17:57:43:226
-1.22453,-1.75155,9.65564,-0.70761,-2.2213,9.52552,-0.09168,-0.12138,0.34439,-0.06738,0.21877,-0.02037,-0.45,42.825,-25.425,2.547,12.711,3.72,48.84388,2.353338,91.5,NaN,,13.113,,0 / 18,,1364,2022-01-20 17:57:43:231
-1.22453,-1.75155,9.65564,-0.70761,-2.2213,9.52552,-0.09168,-0.12138,0.34439,-0.06738,0.21877,-0.02037,-0.45,42.825,-25.425,2.547,12.711,3.72,48.84388,2.353338,91.5,NaN,,13.113,,0 / 18,,1369,2022-01-20 17:57:43:236
-1.22453,-1.75155,9.65564,-0.70761,-2.2213,9.52552,-0.09168,-0.12138,0.34439,-0.06738,0.21877,-0.02037,-0.45,42.825,-25.425,2.547,12.711,3.72,48.84388,2.353338,91.5,NaN,,13.113,,0 / 18,,1374,2022-01-20 17:57:43:241
-1.22453,-1.75155,9.65564,-0.70761,-2.2213,9.52552,-0.09168,-0.12138,0.34439,-0.06738,0.21877,-0.02037,-0.45,42.825,-25.425,2.547,12.711,3.72,48.84388,2.353338,91.5,NaN,,13.113,,0 / 18,,1379,2022-01-20 17:57:43:246
-1.22453,-1.75155,9.65564,-0.70761,-2.2213,9.52552,-0.09168,-0.12138,0.34439,-0.06738,0.21877,-0.02037,-0.45,42.825,-25.425,2.547,12.711,3.72,48.84388,2.353338,91.5,NaN,,13.113,,0 / 18,,1384,2022-01-20 17:57:43:251
-1.22453,-1.75155,9.65564,-0.70761,-2.2213,9.52552,-0.09168,-0.12138,0.34439,-0.06738,0.21877,-0.02037,-0.45,42.825,-25.425,2.547,12.711,3.72,48.84388,2.353338,91.5,NaN,,13.113,,0 / 18,,1389,2022-01-20 17:57:43:256
-1.22453,-1.75155,9.65564,-0.70761,-2.2213,9.52552,-0.09168,-0.12138,0.34439,-0.06738,0.21877,-0.02037,-0.45,42.825,-25.425,2.547,12.711,3.72,48.84388,2.353338,91.5,NaN,,13.113,,0 / 18,,1394,2022-01-20 17:57:43:261
-1.22453,-1.75155,9.65564,-0.70761,-2.2213,9.52552,-0.09168,-0.12138,0.34439,-0.06738,0.21877,-0.02037,-0.45,42.825,-25.425,2.547,12.711,3.72,48.84388,2.353338,91.5,NaN,,13.113,,0 / 18,,1399,2022-01-20 17:57:43:266
-1.22453,-1.75155,9.65564,-0.70761,-2.2213,9.52552,-0.09168,-0.12138,0.34439,-0.06738,0.21877,-0.02037,-0.45,42.825,-25.425,2.547,12.711,3.72,48.84388,2.353338,91.5,NaN,,13.113,,0 / 18,,1404,2022-01-20 17:57:43:271
-1.22453,-1.75155,9.65564,-0.70761,-2.2213,9.52552,-0.09168,-0.12138,0.34439,-0.06738,0.21877,-0.02037,-0.45,42.825,-25.425,2.547,12.711,3.72,48.84388,2.353338,91.5,NaN,,13.113,,0 / 18,,1409,2022-01-20 17:57:43:276
-0.96461,-2.59591,9.31915,-0.97177,-2.2948,9.48472,-0.30349,-0.03444,0.32815,-0.06738,0.21877,-0.02037,-0.45,42.825,-25.425,2.547,12.711,3.72,48.84388,2.353338,91.5,NaN,,13.113,,0 / 18,,1415,2022-01-20 17:57:43:282
-0.96461,-2.59591,9.31915,-0.97177,-2.2948,9.48472,-0.30349,-0.03444,0.32815,-0.06738,0.21877,-0.02037,-0.45,42.825,-25.425,2.547,12.711,3.72,48.84388,2.353338,91.5,NaN,,13.113,,0 / 18,,1419,2022-01-20 17:57:43:286
-0.96461,-2.59591,9.31915,-0.97177,-2.2948,9.48472,-0.30349,-0.03444,0.32815,-0.06738,0.21877,-0.02037,-0.45,42.825,-25.425,2.547,12.711,3.72,48.84388,2.353338,91.5,NaN,,13.113,,0 / 18,,1424,2022-01-20 17:57:43:291
-0.96461,-2.59591,9.31915,-0.97177,-2.2948,9.48472,-0.30349,-0.03444,0.32815,-0.06738,0.21877,-0.02037,-0.45,42.825,-25.425,2.547,12.711,3.72,48.84388,2.353338,91.5,NaN,,13.113,,0 / 18,,1430,2022-01-20 17:57:43:297
-0.96461,-2.59591,9.31915,-0.97177,-2.2948,9.48472,-0.30349,-0.03444,0.32815,-0.06738,0.21877,-0.02037,-0.45,42.825,-25.425,2.547,12.711,3.72,48.84388,2.353338,91.5,NaN,,13.113,,0 / 18,,1434,2022-01-20 17:57:43:301
-0.96461,-2.59591,9.31915,-0.97177,-2.2948,9.48472,-0.30349,-0.03444,0.32815,-0.06738,0.21877,-0.02037,-0.45,42.825,-25.425,2.547,12.711,3.72,48.84388,2.353338,91.5,NaN,,13.113,,0 / 18,,1439,2022-01-20 17:57:43:306
-0.96461,-2.59591,9.31915,-0.97177,-2.2948,9.48472,-0.30349,-0.03444,0.32815,-0.06738,0.21877,-0.02037,-0.45,42.825,-25.425,2.547,12.711,3.72,48.84388,2.353338,91.5,NaN,,13.113,,0 / 18,,1444,2022-01-20 17:57:43:311
-0.96461,-2.59591,9.31915,-0.97177,-2.2948,9.48472,-0.30349,-0.03444,0.32815,-0.06738,0.21877,-0.02037,0.15,43.425,-24.375,3.864,13.533,5.85,48.84388,2.353338,91.5,NaN,,13.113,,0 / 18,,1450,2022-01-20 17:57:43:317
-0.96461,-2.59591,9.31915,-0.97177,-2.2948,9.48472,-0.30349,-0.03444,0.32815,-0.06738,0.21877,-0.02037,0.15,43.425,-24.375,3.864,13.533,5.85,48.84388,2.353338,91.5,NaN,,13.113,,0 / 18,,1456,2022-01-20 17:57:43:323
-0.96461,-2.59591,9.31915,-0.97177,-2.2948,9.48472,-0.30349,-0.03444,0.32815,-0.06738,0.21877,-0.02037,0.15,43.425,-24.375,3.864,13.533,5.85,48.84388,2.353338,91.5,NaN,,13.113,,0 / 18,,1460,2022-01-20 17:57:43:327
-0.96461,-2.59591,9.31915,-0.97177,-2.2948,9.48472,-0.30349,-0.03444,0.32815,-0.06738,0.21877,-0.02037,0.15,43.425,-24.375,3.864,13.533,5.85,48.84388,2.353338,91.5,NaN,,13.113,,0 / 18,,1465,2022-01-20 17:57:43:332
-0.96461,-2.59591,9.31915,-0.97177,-2.2948,9.48472,-0.30349,-0.03444,0.32815,-0.06738,0.21877,-0.02037,0.15,43.425,-24.375,3.864,13.533,5.85,48.84388,2.353338,91.5,NaN,,13.113,,0 / 18,,1470,2022-01-20 17:57:43:337
-0.96461,-2.59591,9.31915,-0.97177,-2.2948,9.48472,-0.30349,-0.03444,0.32815,-0.06738,0.21877,-0.02037,0.15,43.425,-24.375,3.864,13.533,5.85,48.84388,2.353338,91.5,NaN,,13.113,,0 / 18,,1475,2022-01-20 17:57:43:342
-0.96461,-2.59591,9.31915,-0.97177,-2.2948,9.48472,-0.30349,-0.03444,0.32815,-0.06738,0.21877,-0.02037,0.15,43.425,-24.375,3.864,13.533,5.85,48.84388,2.353338,91.5,NaN,,13.113,,0 / 18,,1480,2022-01-20 17:57:43:347
-0.96461,-2.59591,9.31915,-0.97177,-2.2948,9.48472,-0.30349,-0.03444,0.32815,-0.06738,0.21877,-0.02037,0.15,43.425,-24.375,3.864,13.533,5.85,48.84388,2.353338,91.5,NaN,,13.113,,0 / 18,,1484,2022-01-20 17:57:43:351
-0.96461,-2.59591,9.31915,-0.97177,-2.2948,9.48472,-0.30349,-0.03444,0.32815,-0.19068,0.17377,-0.06232,0.15,43.425,-24.375,3.864,13.533,5.85,48.84388,2.353338,91.5,NaN,,13.113,,0 / 18,,1489,2022-01-20 17:57:43:356
-1.83051,-3.20937,8.99223,-0.97177,-2.2948,9.48472,-0.30349,-0.03444,0.32815,-0.19068,0.17377,-0.06232,0.15,43.425,-24.375,3.864,13.533,5.85,48.84388,2.353338,91.5,NaN,,13.113,,0 / 18,,1494,2022-01-20 17:57:43:361
-1.83051,-3.20937,8.99223,-0.97177,-2.2948,9.48472,-0.30349,-0.03444,0.32815,-0.19068,0.17377,-0.06232,0.15,43.425,-24.375,3.864,13.533,5.85,48.84388,2.353338,91.5,NaN,,13.113,,0 / 18,,1499,2022-01-20 17:57:43:366
-1.83051,-3.20937,8.99223,-0.97177,-2.2948,9.48472,-0.30349,-0.03444,0.32815,-0.19068,0.17377,-0.06232,0.15,43.425,-24.375,3.864,13.533,5.85,48.84388,2.353338,91.5,NaN,,13.113,,0 / 18,,1504,2022-01-20 17:57:43:371
-1.83051,-3.20937,8.99223,-0.97177,-2.2948,9.48472,-0.30349,-0.03444,0.32815,-0.19068,0.17377,-0.06232,0.15,43.425,-24.375,3.864,13.533,5.85,48.84388,2.353338,91.5,NaN,,13.113,,0 / 18,,1509,2022-01-20 17:57:43:376
-1.83051,-3.20937,8.99223,-0.97177,-2.2948,9.48472,-0.30349,-0.03444,0.32815,-0.19068,0.17377,-0.06232,0.15,43.425,-24.375,3.864,13.533,5.85,48.84388,2.353338,91.5,NaN,,13.113,,0 / 18,,1514,2022-01-20 17:57:43:381
-1.83051,-3.20937,8.99223,-0.97177,-2.2948,9.48472,-0.30349,-0.03444,0.32815,-0.19068,0.17377,-0.06232,0.15,43.425,-24.375,3.864,13.533,5.85,48.84388,2.353338,91.5,NaN,,13.113,,0 / 18,,1519,2022-01-20 17:57:43:386
-1.83051,-3.20937,8.99223,-0.97177,-2.2948,9.48472,-0.30349,-0.03444,0.32815,-0.19068,0.17377,-0.06232,0.15,43.425,-24.375,3.864,13.533,5.85,48.84388,2.353338,91.5,NaN,,13.113,,0 / 18,,1524,2022-01-20 17:57:43:391
-1.83051,-3.20937,8.99223,-0.97177,-2.2948,9.48472,-0.30349,-0.03444,0.32815,-0.19068,0.17377,-0.06232,0.15,43.425,-24.375,3.864,13.533,5.85,48.84388,2.353338,91.5,NaN,,13.113,,0 / 18,,1529,2022-01-20 17:57:43:396
-1.83051,-3.20937,8.99223,-0.97177,-2.2948,9.48472,-0.30349,-0.03444,0.32815,-0.19068,0.17377,-0.06232,0.15,43.425,-24.375,3.864,13.533,5.85,48.84388,2.353338,91.5,NaN,,13.113,,0 / 18,,1534,2022-01-20 17:57:43:401
-1.83051,-3.20937,8.99223,-1.14876,-2.48687,9.41627,-0.3124,-0.29188,0.05172,-0.19068,0.17377,-0.06232,0.15,43.425,-24.375,3.864,13.533,5.85,48.84388,2.353338,91.5,NaN,,13.113,,0 / 18,,1539,2022-01-20 17:57:43:406
-1.83051,-3.20937,8.99223,-1.14876,-2.48687,9.41627,-0.3124,-0.29188,0.05172,-0.19068,0.17377,-0.06232,0.15,43.425,-24.375,3.864,13.533,5.85,48.84388,2.353338,91.5,NaN,,13.113,,0 / 18,,1544,2022-01-20 17:57:43:411
-1.83051,-3.20937,8.99223,-1.14876,-2.48687,9.41627,-0.3124,-0.29188,0.05172,-0.19068,0.17377,-0.06232,0.675,43.575,-23.925,3.002,14.69,6.956,48.84388,2.353338,91.5,NaN,,13.113,,0 / 18,,1549,2022-01-20 17:57:43:416
-1.83051,-3.20937,8.99223,-1.14876,-2.48687,9.41627,-0.3124,-0.29188,0.05172,-0.19068,0.17377,-0.06232,0.675,43.575,-23.925,3.002,14.69,6.956,48.84388,2.353338,91.5,NaN,,13.113,,0 / 18,,1554,2022-01-20 17:57:43:421
-1.13569,-3.32782,9.40918,-1.14876,-2.48687,9.41627,-0.3124,-0.29188,0.05172,-0.19068,0.17377,-0.06232,0.675,43.575,-23.925,3.002,14.69,6.956,48.84388,2.353338,91.5,NaN,,13.113,,0 / 18,,1559,2022-01-20 17:57:43:426
-1.13569,-3.32782,9.40918,-1.14876,-2.48687,9.41627,-0.3124,-0.29188,0.05172,-0.19068,0.17377,-0.06232,0.675,43.575,-23.925,3.002,14.69,6.956,48.84388,2.353338,91.5,NaN,,13.113,,0 / 18,,1564,2022-01-20 17:57:43:431
-1.13569,-3.32782,9.40918,-1.14876,-2.48687,9.41627,-0.3124,-0.29188,0.05172,-0.19068,0.17377,-0.06232,0.675,43.575,-23.925,3.002,14.69,6.956,48.84388,2.353338,91.5,NaN,,13.113,,0 / 18,,1569,2022-01-20 17:57:43:436
-1.13569,-3.32782,9.40918,-1.14876,-2.48687,9.41627,-0.3124,-0.29188,0.05172,-0.19068,0.17377,-0.06232,0.675,43.575,-23.925,3.002,14.69,6.956,48.84388,2.353338,91.5,NaN,,13.113,,0 / 18,,1575,2022-01-20 17:57:43:442
-1.13569,-3.32782,9.40918,-1.14876,-2.48687,9.41627,-0.3124,-0.29188,0.05172,-0.19068,0.17377,-0.06232,0.675,43.575,-23.925,3.002,14.69,6.956,48.84388,2.353338,91.5,NaN,,13.113,,0 / 18,,1579,2022-01-20 17:57:43:446
-1.13569,-3.32782,9.40918,-1.14876,-2.48687,9.41627,-0.3124,-0.29188,0.05172,-0.19068,0.17377,-0.06232,0.675,43.575,-23.925,3.002,14.69,6.956,48.84388,2.353338,91.5,NaN,,13.113,,0 / 18,,1584,2022-01-20 17:57:43:451
-1.13569,-3.32782,9.40918,-1.14876,-2.48687,9.41627,-0.3124,-0.29188,0.05172,-0.19068,0.17377,-0.06232,0.675,43.575,-23.925,3.002,14.69,6.956,48.84388,2.353338,91.5,NaN,,13.113,,0 / 18,,1589,2022-01-20 17:57:43:456
-1.13569,-3.32782,9.40918,-1.14876,-2.48687,9.41627,-0.3124,-0.29188,0.05172,-0.19068,0.17377,-0.06232,0.675,43.575,-23.925,3.002,14.69,6.956,48.84388,2.353338,91.5,NaN,,13.113,,0 / 18,,1594,2022-01-20 17:57:43:461
-1.13569,-3.32782,9.40918,-1.14876,-2.48687,9.41627,-0.3124,-0.29188,0.05172,-0.19068,0.17377,-0.06232,0.675,43.575,-23.925,3.002,14.69,6.956,48.84388,2.353338,91.5,NaN,,13.113,,0 / 18,,1599,2022-01-20 17:57:43:466
-1.13569,-3.32782,9.40918,-1.14876,-2.48687,9.41627,-0.3124,-0.29188,0.05172,-0.19068,0.17377,-0.06232,0.675,43.575,-23.925,3.002,14.69,6.956,48.84388,2.353338,91.5,NaN,,13.113,,0 / 18,,1604,2022-01-20 17:57:43:471
-1.13569,-3.32782,9.40918,-1.14876,-2.48687,9.41627,-0.3124,-0.29188,0.05172,-0.19068,0.17377,-0.06232,0.675,43.575,-23.925,3.002,14.69,6.956,48.84388,2.353338,91.5,NaN,,13.113,,0 / 18,,1609,2022-01-20 17:57:43:476
-1.13569,-3.32782,9.40918,-1.14876,-2.48687,9.41627,-0.3124,-0.29188,0.05172,-0.19068,0.17377,-0.06232,0.675,43.575,-23.925,3.002,14.69,6.956,48.84388,2.353338,91.5,NaN,,13.113,,0 / 18,,1615,2022-01-20 17:57:43:482
-1.13569,-3.32782,9.40918,-1.14876,-2.48687,9.41627,-0.3124,-0.29188,0.05172,-0.19068,0.17377,-0.06232,0.675,43.575,-23.925,3.002,14.69,6.956,48.84388,2.353338,91.5,NaN,,13.113,,0 / 18,,1619,2022-01-20 17:57:43:486
-1.13569,-3.32782,9.40918,-1.14876,-2.48687,9.41627,-0.3124,-0.29188,0.05172,-0.19068,0.17377,-0.06232,0.675,43.575,-23.925,3.002,14.69,6.956,48.84388,2.353338,91.5,NaN,,13.113,,0 / 18,,1624,2022-01-20 17:57:43:491
-1.94178,-3.11695,9.28086,-1.14876,-2.48687,9.41627,-0.3124,-0.29188,0.05172,-0.2209,0.07843,0.13129,0.675,43.575,-23.925,3.002,14.69,6.956,48.84388,2.353338,91.5,NaN,,13.113,,0 / 18,,1629,2022-01-20 17:57:43:496
-1.94178,-3.11695,9.28086,-1.14876,-2.48687,9.41627,-0.3124,-0.29188,0.05172,-0.2209,0.07843,0.13129,0.675,43.575,-23.925,3.002,14.69,6.956,48.84388,2.353338,91.5,NaN,,13.113,,0 / 18,,1635,2022-01-20 17:57:43:502
-1.94178,-3.11695,9.28086,-1.14876,-2.48687,9.41627,-0.3124,-0.29188,0.05172,-0.2209,0.07843,0.13129,0.675,43.575,-23.925,3.002,14.69,6.956,48.84388,2.353338,91.5,NaN,,13.113,,0 / 18,,1639,2022-01-20 17:57:43:506
-1.94178,-3.11695,9.28086,-1.14876,-2.48687,9.41627,-0.3124,-0.29188,0.05172,-0.2209,0.07843,0.13129,0.675,43.575,-23.925,3.002,14.69,6.956,48.84388,2.353338,91.5,NaN,,13.113,,0 / 18,,1644,2022-01-20 17:57:43:511
-1.94178,-3.11695,9.28086,-1.27775,-2.7408,9.32876,0.15959,-0.51773,0.00257,-0.2209,0.07843,0.13129,1.35,44.325,-23.475,3.402,16.229,7.799,48.84388,2.353338,91.5,NaN,,13.113,,0 / 18,,1650,2022-01-20 17:57:43:517
-1.94178,-3.11695,9.28086,-1.27775,-2.7408,9.32876,0.15959,-0.51773,0.00257,-0.2209,0.07843,0.13129,1.35,44.325,-23.475,3.402,16.229,7.799,48.84388,2.353338,91.5,NaN,,13.113,,0 / 18,,1654,2022-01-20 17:57:43:521
-1.94178,-3.11695,9.28086,-1.27775,-2.7408,9.32876,0.15959,-0.51773,0.00257,-0.2209,0.07843,0.13129,1.35,44.325,-23.475,3.402,16.229,7.799,48.84388,2.353338,91.5,NaN,,13.113,,0 / 18,,1659,2022-01-20 17:57:43:526
-1.94178,-3.11695,9.28086,-1.27775,-2.7408,9.32876,0.15959,-0.51773,0.00257,-0.2209,0.07843,0.13129,1.35,44.325,-23.475,3.402,16.229,7.799,48.84388,2.353338,91.5,NaN,,13.113,,0 / 18,,1664,2022-01-20 17:57:43:531
-1.94178,-3.11695,9.28086,-1.27775,-2.7408,9.32876,0.15959,-0.51773,0.00257,-0.2209,0.07843,0.13129,1.35,44.325,-23.475,3.402,16.229,7.799,48.84388,2.353338,91.5,NaN,,13.113,,0 / 18,,1669,2022-01-20 17:57:43:536
-1.94178,-3.11695,9.28086,-1.27775,-2.7408,9.32876,0.15959,-0.51773,0.00257,-0.2209,0.07843,0.13129,1.35,44.325,-23.475,3.402,16.229,7.799,48.84388,2.353338,91.5,NaN,,13.113,,0 / 18,,1674,2022-01-20 17:57:43:541
-1.94178,-3.11695,9.28086,-1.27775,-2.7408,9.32876,0.15959,-0.51773,0.00257,-0.2209,0.07843,0.13129,1.35,44.325,-23.475,3.402,16.229,7.799,48.84388,2.353338,91.5,NaN,,13.113,,0 / 18,,1680,2022-01-20 17:57:43:547
-1.94178,-3.11695,9.28086,-1.27775,-2.7408,9.32876,0.15959,-0.51773,0.00257,-0.2209,0.07843,0.13129,1.35,44.325,-23.475,3.402,16.229,7.799,48.84388,2.353338,91.5,NaN,,13.113,,0 / 18,,1684,2022-01-20 17:57:43:551
-1.94178,-3.11695,9.28086,-1.27775,-2.7408,9.32876,0.15959,-0.51773,0.00257,-0.2209,0.07843,0.13129,1.35,44.325,-23.475,3.402,16.229,7.799,48.84388,2.353338,91.5,NaN,,13.113,,0 / 18,,1689,2022-01-20 17:57:43:556
-1.03161,-3.06909,9.05803,-1.27775,-2.7408,9.32876,0.15959,-0.51773,0.00257,-0.2209,0.07843,0.13129,1.35,44.325,-23.475,3.402,16.229,7.799,48.84388,2.353338,91.5,NaN,,13.113,,0 / 18,,1694,2022-01-20 17:57:43:561
-1.03161,-3.06909,9.05803,-1.27775,-2.7408,9.32876,0.15959,-0.51773,0.00257,-0.2209,0.07843,0.13129,1.35,44.325,-23.475,3.402,16.229,7.799,48.84388,2.353338,91.5,NaN,,13.113,,0 / 18,,1699,2022-01-20 17:57:43:566
-1.03161,-3.06909,9.05803,-1.27775,-2.7408,9.32876,0.15959,-0.51773,0.00257,-0.2209,0.07843,0.13129,1.35,44.325,-23.475,3.402,16.229,7.799,48.84388,2.353338,91.5,NaN,,13.113,,0 / 18,,1704,2022-01-20 17:57:43:571
-1.03161,-3.06909,9.05803,-1.08196,-2.78177,9.34139,-0.57245,-0.32683,-0.21193,-0.2209,0.07843,0.13129,1.35,44.325,-23.475,3.402,16.229,7.799,48.84388,2.353338,91.5,NaN,,13.113,,0 / 18,,1710,2022-01-20 17:57:43:577
-1.03161,-3.06909,9.05803,-1.08196,-2.78177,9.34139,-0.57245,-0.32683,-0.21193,-0.2209,0.07843,0.13129,1.35,44.325,-23.475,3.402,16.229,7.799,48.84388,2.353338,91.5,NaN,,13.113,,0 / 18,,1714,2022-01-20 17:57:43:581
-1.03161,-3.06909,9.05803,-1.08196,-2.78177,9.34139,-0.57245,-0.32683,-0.21193,-0.2209,0.07843,0.13129,1.35,44.325,-23.475,3.402,16.229,7.799,48.84388,2.353338,91.5,NaN,,13.113,,0 / 18,,1720,2022-01-20 17:57:43:587
-1.03161,-3.06909,9.05803,-1.08196,-2.78177,9.34139,-0.57245,-0.32683,-0.21193,-0.2209,0.07843,0.13129,1.35,44.325,-23.475,3.402,16.229,7.799,48.84388,2.353338,91.5,NaN,,13.113,,0 / 18,,1724,2022-01-20 17:57:43:591
-1.03161,-3.06909,9.05803,-1.08196,-2.78177,9.34139,-0.57245,-0.32683,-0.21193,-0.2209,0.07843,0.13129,1.35,44.325,-23.475,3.402,16.229,7.799,48.84388,2.353338,91.5,NaN,,13.113,,0 / 18,,1731,2022-01-20 17:57:43:598
-1.03161,-3.06909,9.05803,-1.08196,-2.78177,9.34139,-0.57245,-0.32683,-0.21193,-0.2209,0.07843,0.13129,1.35,44.325,-23.475,3.402,16.229,7.799,48.84388,2.353338,91.5,NaN,,13.113,,0 / 18,,1734,2022-01-20 17:57:43:601
-1.03161,-3.06909,9.05803,-1.08196,-2.78177,9.34139,-0.57245,-0.32683,-0.21193,-0.2209,0.07843,0.13129,1.35,44.325,-23.475,3.402,16.229,7.799,48.84388,2.353338,91.5,NaN,,13.113,,0 / 18,,1739,2022-01-20 17:57:43:606
-1.03161,-3.06909,9.05803,-1.08196,-2.78177,9.34139,-0.57245,-0.32683,-0.21193,-0.2209,0.07843,0.13129,1.35,44.325,-23.475,3.402,16.229,7.799,48.84388,2.353338,91.5,NaN,,13.113,,0 / 18,,1744,2022-01-20 17:57:43:611
-0.03858,-3.03799,8.75025,-1.08196,-2.78177,9.34139,-0.57245,-0.32683,-0.21193,-0.17164,-0.55006,0.14687,1.5,44.475,-23.1,1.06,16.479,6.607,48.84388,2.353338,91.5,NaN,,13.113,,0 / 18,,1749,2022-01-20 17:57:43:616
-0.03858,-3.03799,8.75025,-1.08196,-2.78177,9.34139,-0.57245,-0.32683,-0.21193,-0.17164,-0.55006,0.14687,1.5,44.475,-23.1,1.06,16.479,6.607,48.84388,2.353338,91.5,NaN,,13.113,,0 / 18,,1754,2022-01-20 17:57:43:621
-0.03858,-3.03799,8.75025,-1.08196,-2.78177,9.34139,-0.57245,-0.32683,-0.21193,-0.17164,-0.55006,0.14687,1.5,44.475,-23.1,1.06,16.479,6.607,48.84388,2.353338,91.5,NaN,,13.113,,0 / 18,,1759,2022-01-20 17:57:43:626
-0.03858,-3.03799,8.75025,-1.08196,-2.78177,9.34139,-0.57245,-0.32683,-0.21193,-0.17164,-0.55006,0.14687,1.5,44.475,-23.1,1.06,16.479,6.607,48.84388,2.353338,91.5,NaN,,13.113,,0 / 18,,1764,2022-01-20 17:57:43:631
-0.03858,-3.03799,8.75025,-1.08196,-2.78177,9.34139,-0.57245,-0.32683,-0.21193,-0.17164,-0.55006,0.14687,1.5,44.475,-23.1,1.06,16.479,6.607,48.84388,2.353338,91.5,NaN,,13.113,,0 / 18,,1769,2022-01-20 17:57:43:636
-0.03858,-3.03799,8.75025,-1.08196,-2.78177,9.34139,-0.57245,-0.32683,-0.21193,-0.17164,-0.55006,0.14687,1.5,44.475,-23.1,1.06,16.479,6.607,48.84388,2.353338,91.5,NaN,,13.113,,0 / 18,,1774,2022-01-20 17:57:43:641
-0.03858,-3.03799,8.75025,-1.08196,-2.78177,9.34139,-0.57245,-0.32683,-0.21193,-0.17164,-0.55006,0.14687,1.5,44.475,-23.1,1.06,16.479,6.607,48.84388,2.353338,91.5,NaN,,13.113,,0 / 18,,1779,2022-01-20 17:57:43:646
-0.03858,-3.03799,8.75025,-0.84113,-2.90941,9.32728,-0.61377,0.06067,-0.14423,-0.17164,-0.55006,0.14687,1.5,44.475,-23.1,1.06,16.479,6.607,48.84388,2.353338,91.5,NaN,,13.113,,0 / 18,,1784,2022-01-20 17:57:43:651
-0.03858,-3.03799,8.75025,-0.84113,-2.90941,9.32728,-0.61377,0.06067,-0.14423,-0.17164,-0.55006,0.14687,1.5,44.475,-23.1,1.06,16.479,6.607,48.84388,2.353338,91.5,NaN,,13.113,,0 / 18,,1789,2022-01-20 17:57:43:656
-0.03858,-3.03799,8.75025,-0.84113,-2.90941,9.32728,-0.61377,0.06067,-0.14423,-0.17164,-0.55006,0.14687,1.5,44.475,-23.1,1.06,16.479,6.607,48.84388,2.353338,91.5,NaN,,13.113,,0 / 18,,1794,2022-01-20 17:57:43:661
-0.03858,-3.03799,8.75025,-0.84113,-2.90941,9.32728,-0.61377,0.06067,-0.14423,-0.17164,-0.55006,0.14687,1.5,44.475,-23.1,1.06,16.479,6.607,48.84388,2.353338,91.5,NaN,,13.113,,0 / 18,,1799,2022-01-20 17:57:43:666
-0.03858,-3.03799,8.75025,-0.84113,-2.90941,9.32728,-0.61377,0.06067,-0.14423,-0.17164,-0.55006,0.14687,1.5,44.475,-23.1,1.06,16.479,6.607,48.84388,2.353338,91.5,NaN,,13.113,,0 / 18,,1804,2022-01-20 17:57:43:671
-0.03858,-3.03799,8.75025,-0.84113,-2.90941,9.32728,-0.61377,0.06067,-0.14423,-0.17164,-0.55006,0.14687,1.5,44.475,-23.1,1.06,16.479,6.607,48.84388,2.353338,91.5,NaN,,13.113,,0 / 18,,1809,2022-01-20 17:57:43:676
-0.03858,-3.03799,8.75025,-0.84113,-2.90941,9.32728,-0.61377,0.06067,-0.14423,-0.17164,-0.55006,0.14687,1.5,44.475,-23.1,1.06,16.479,6.607,48.84388,2.353338,91.5,NaN,,13.113,,0 / 18,,1815,2022-01-20 17:57:43:682
-0.03858,-3.03799,8.75025,-0.84113,-2.90941,9.32728,-0.61377,0.06067,-0.14423,-0.55152,0.04754,-0.11518,1.5,44.475,-23.1,1.06,16.479,6.607,48.84388,2.353338,91.5,NaN,,13.113,,0 / 18,,1819,2022-01-20 17:57:43:686
-0.03858,-3.03799,8.75025,-0.84113,-2.90941,9.32728,-0.61377,0.06067,-0.14423,-0.55152,0.04754,-0.11518,1.5,44.475,-23.1,1.06,16.479,6.607,48.84388,2.353338,91.5,NaN,,13.113,,0 / 18,,1824,2022-01-20 17:57:43:691
-1.31665,-4.29571,9.19592,-0.84113,-2.90941,9.32728,-0.61377,0.06067,-0.14423,-0.55152,0.04754,-0.11518,1.5,44.475,-23.1,1.06,16.479,6.607,48.84388,2.353338,91.5,NaN,,13.113,,0 / 18,,1829,2022-01-20 17:57:43:696
-1.31665,-4.29571,9.19592,-0.84113,-2.90941,9.32728,-0.61377,0.06067,-0.14423,-0.55152,0.04754,-0.11518,1.5,44.475,-23.1,1.06,16.479,6.607,48.84388,2.353338,91.5,NaN,,13.113,,0 / 18,,1834,2022-01-20 17:57:43:701
-1.31665,-4.29571,9.19592,-0.84113,-2.90941,9.32728,-0.61377,0.06067,-0.14423,-0.55152,0.04754,-0.11518,1.5,44.475,-23.1,1.06,16.479,6.607,48.84388,2.353338,91.5,NaN,,13.113,,0 / 18,,1840,2022-01-20 17:57:43:707
-1.31665,-4.29571,9.19592,-0.861,-3.23443,9.21779,-0.61377,0.06067,-0.14423,-0.55152,0.04754,-0.11518,1.5,44.475,-23.1,1.06,16.479,6.607,48.84388,2.353338,91.5,NaN,,13.113,,0 / 18,,1844,2022-01-20 17:57:43:711
-1.31665,-4.29571,9.19592,-0.861,-3.23443,9.21779,-0.61377,0.06067,-0.14423,-0.55152,0.04754,-0.11518,1.8,45.075,-22.35,0.089,19.258,5.336,48.84388,2.353338,91.5,NaN,,13.113,,0 / 18,,1850,2022-01-20 17:57:43:717
-1.31665,-4.29571,9.19592,-0.861,-3.23443,9.21779,-0.61377,0.06067,-0.14423,-0.55152,0.04754,-0.11518,1.8,45.075,-22.35,0.089,19.258,5.336,48.84388,2.353338,91.5,NaN,,13.113,,0 / 18,,1854,2022-01-20 17:57:43:721
-1.31665,-4.29571,9.19592,-0.861,-3.23443,9.21779,-0.61377,0.06067,-0.14423,-0.55152,0.04754,-0.11518,1.8,45.075,-22.35,0.089,19.258,5.336,48.84388,2.353338,91.5,NaN,,13.113,,0 / 18,,1860,2022-01-20 17:57:43:727
-1.31665,-4.29571,9.19592,-0.861,-3.23443,9.21779,-0.61377,0.06067,-0.14423,-0.55152,0.04754,-0.11518,1.8,45.075,-22.35,0.089,19.258,5.336,48.84388,2.353338,91.5,NaN,,13.113,,0 / 18,,1864,2022-01-20 17:57:43:731
-1.31665,-4.29571,9.19592,-0.861,-3.23443,9.21779,-0.61377,0.06067,-0.14423,-0.55152,0.04754,-0.11518,1.8,45.075,-22.35,0.089,19.258,5.336,48.84388,2.353338,91.5,NaN,,13.113,,0 / 18,,1871,2022-01-20 17:57:43:738
-1.31665,-4.29571,9.19592,-0.861,-3.23443,9.21779,-0.61377,0.06067,-0.14423,-0.55152,0.04754,-0.11518,1.8,45.075,-22.35,0.089,19.258,5.336,48.84388,2.353338,91.5,NaN,,13.113,,0 / 18,,1874,2022-01-20 17:57:43:741
-1.31665,-4.29571,9.19592,-0.861,-3.23443,9.21779,-0.61377,0.06067,-0.14423,-0.55152,0.04754,-0.11518,1.8,45.075,-22.35,0.089,19.258,5.336,48.84388,2.353338,91.5,NaN,,13.113,,0 / 18,,1879,2022-01-20 17:57:43:746
-1.31665,-4.29571,9.19592,-0.861,-3.23443,9.21779,-0.61377,0.06067,-0.14423,-0.55152,0.04754,-0.11518,1.8,45.075,-22.35,0.089,19.258,5.336,48.84388,2.353338,91.5,NaN,,13.113,,0 / 18,,1884,2022-01-20 17:57:43:751
-1.79103,-3.95773,9.35025,-0.861,-3.23443,9.21779,-0.61377,0.06067,-0.14423,-0.55152,0.04754,-0.11518,1.8,45.075,-22.35,0.089,19.258,5.336,48.84388,2.353338,91.5,NaN,,13.113,,0 / 18,,1889,2022-01-20 17:57:43:756
-1.79103,-3.95773,9.35025,-0.861,-3.23443,9.21779,0.35759,-0.18553,0.35625,-0.55152,0.04754,-0.11518,1.8,45.075,-22.35,0.089,19.258,5.336,48.84388,2.353338,91.5,NaN,,13.113,,0 / 18,,1894,2022-01-20 17:57:43:761
-1.79103,-3.95773,9.35025,-0.861,-3.23443,9.21779,0.35759,-0.18553,0.35625,-0.55152,0.04754,-0.11518,1.8,45.075,-22.35,0.089,19.258,5.336,48.84388,2.353338,91.5,NaN,,13.113,,0 / 18,,1899,2022-01-20 17:57:43:766
-1.79103,-3.95773,9.35025,-0.861,-3.23443,9.21779,0.35759,-0.18553,0.35625,-0.55152,0.04754,-0.11518,1.8,45.075,-22.35,0.089,19.258,5.336,48.84388,2.353338,91.5,NaN,,13.113,,0 / 18,,1904,2022-01-20 17:57:43:771
-1.79103,-3.95773,9.35025,-0.861,-3.23443,9.21779,0.35759,-0.18553,0.35625,-0.55152,0.04754,-0.11518,1.8,45.075,-22.35,0.089,19.258,5.336,48.84388,2.353338,91.5,NaN,,13.113,,0 / 18,,1910,2022-01-20 17:57:43:777
-1.79103,-3.95773,9.35025,-0.861,-3.23443,9.21779,0.35759,-0.18553,0.35625,-0.55152,0.04754,-0.11518,1.8,45.075,-22.35,0.089,19.258,5.336,48.84388,2.353338,91.5,NaN,,13.113,,0 / 18,,1914,2022-01-20 17:57:43:781
-1.79103,-3.95773,9.35025,-0.861,-3.23443,9.21779,0.35759,-0.18553,0.35625,-0.55152,0.04754,-0.11518,1.8,45.075,-22.35,0.089,19.258,5.336,48.84388,2.353338,91.5,NaN,,13.113,,0 / 18,,1922,2022-01-20 17:57:43:789
-1.79103,-3.95773,9.35025,-0.861,-3.23443,9.21779,0.35759,-0.18553,0.35625,-0.55152,0.04754,-0.11518,1.8,45.075,-22.35,0.089,19.258,5.336,48.84388,2.353338,91.5,NaN,,13.113,,0 / 18,,1924,2022-01-20 17:57:43:791
-1.79103,-3.95773,9.35025,-0.861,-3.23443,9.21779,0.35759,-0.18553,0.35625,-0.55152,0.04754,-0.11518,1.8,45.075,-22.35,0.089,19.258,5.336,48.84388,2.353338,91.5,NaN,,13.113,,0 / 18,,1929,2022-01-20 17:57:43:796
-1.79103,-3.95773,9.35025,-0.861,-3.23443,9.21779,0.35759,-0.18553,0.35625,-0.55152,0.04754,-0.11518,1.8,45.075,-22.35,0.089,19.258,5.336,48.84388,2.353338,91.5,NaN,,13.113,,0 / 18,,1937,2022-01-20 17:57:43:804
-1.79103,-3.95773,9.35025,-0.861,-3.23443,9.21779,0.35759,-0.18553,0.35625,-0.55152,0.04754,-0.11518,1.8,45.075,-22.35,0.089,19.258,5.336,48.84388,2.353338,91.5,NaN,,13.113,,0 / 18,,1939,2022-01-20 17:57:43:806
-2.633,-4.65853,8.37428,-0.861,-3.23443,9.21779,0.35759,-0.18553,0.35625,-0.55152,0.04754,-0.11518,1.8,45.075,-22.35,0.089,19.258,5.336,48.84388,2.353338,91.5,NaN,,13.113,,0 / 18,,1944,2022-01-20 17:57:43:811
-2.633,-4.65853,8.37428,-0.861,-3.23443,9.21779,0.35759,-0.18553,0.35625,-0.55152,0.04754,-0.11518,2.1,45.6,-21.525,0.087,19.258,5.336,48.84388,2.353338,91.5,NaN,,13.113,,0 / 18,,1949,2022-01-20 17:57:43:816
-2.633,-4.65853,8.37428,-2.18886,-4.05688,8.65569,0.35759,-0.18553,0.35625,-0.5956,0.82928,0.21491,2.1,45.6,-21.525,0.087,19.258,5.336,48.84388,2.353338,91.5,NaN,,13.113,,0 / 18,,1954,2022-01-20 17:57:43:821
-2.633,-4.65853,8.37428,-2.18886,-4.05688,8.65569,0.35759,-0.18553,0.35625,-0.5956,0.82928,0.21491,2.1,45.6,-21.525,0.087,19.258,5.336,48.84388,2.353338,91.5,NaN,,13.113,,0 / 18,,1959,2022-01-20 17:57:43:826
-2.633,-4.65853,8.37428,-2.18886,-4.05688,8.65569,0.35759,-0.18553,0.35625,-0.5956,0.82928,0.21491,2.1,45.6,-21.525,0.087,19.258,5.336,48.84388,2.353338,91.5,NaN,,13.113,,0 / 18,,1964,2022-01-20 17:57:43:831
-2.633,-4.65853,8.37428,-2.18886,-4.05688,8.65569,0.35759,-0.18553,0.35625,-0.5956,0.82928,0.21491,2.1,45.6,-21.525,0.087,19.258,5.336,48.84388,2.353338,91.5,NaN,,13.113,,0 / 18,,1969,2022-01-20 17:57:43:836
-2.633,-4.65853,8.37428,-2.18886,-4.05688,8.65569,0.35759,-0.18553,0.35625,-0.5956,0.82928,0.21491,2.1,45.6,-21.525,0.087,19.258,5.336,48.84388,2.353338,91.5,NaN,,13.113,,0 / 18,,1974,2022-01-20 17:57:43:841
-2.633,-4.65853,8.37428,-2.18886,-4.05688,8.65569,0.35759,-0.18553,0.35625,-0.5956,0.82928,0.21491,2.1,45.6,-21.525,0.087,19.258,5.336,48.84388,2.353338,91.5,NaN,,13.113,,0 / 18,,1979,2022-01-20 17:57:43:846
-2.633,-4.65853,8.37428,-2.18886,-4.05688,8.65569,0.35759,-0.18553,0.35625,-0.5956,0.82928,0.21491,2.1,45.6,-21.525,0.087,19.258,5.336,48.84388,2.353338,91.5,NaN,,13.113,,0 / 18,,1984,2022-01-20 17:57:43:851
-2.633,-4.65853,8.37428,-2.18886,-4.05688,8.65569,0.35759,-0.18553,0.35625,-0.5956,0.82928,0.21491,2.1,45.6,-21.525,0.087,19.258,5.336,48.84388,2.353338,91.5,NaN,,13.113,,0 / 18,,1991,2022-01-20 17:57:43:858
-2.633,-4.65853,8.37428,-2.18886,-4.05688,8.65569,0.35759,-0.18553,0.35625,-0.5956,0.82928,0.21491,2.1,45.6,-21.525,0.087,19.258,5.336,48.84388,2.353338,91.5,NaN,,13.113,,0 / 18,,1995,2022-01-20 17:57:43:862
-2.633,-4.65853,8.37428,-2.18886,-4.05688,8.65569,0.35759,-0.18553,0.35625,-0.5956,0.82928,0.21491,2.1,45.6,-21.525,0.087,19.258,5.336,48.84388,2.353338,91.5,NaN,,13.113,,0 / 18,,1999,2022-01-20 17:57:43:866
-2.633,-4.65853,8.37428,-2.18886,-4.05688,8.65569,0.35759,-0.18553,0.35625,-0.5956,0.82928,0.21491,2.1,45.6,-21.525,0.087,19.258,5.336,48.84388,2.353338,91.5,NaN,,13.113,,0 / 18,,2005,2022-01-20 17:57:43:872
-2.633,-4.65853,8.37428,-2.18886,-4.05688,8.65569,0.35759,-0.18553,0.35625,-0.5956,0.82928,0.21491,2.1,45.6,-21.525,0.087,19.258,5.336,48.84388,2.353338,91.5,NaN,,13.113,,0 / 18,,2009,2022-01-20 17:57:43:876
-2.633,-4.65853,8.37428,-2.18886,-4.05688,8.65569,0.35759,-0.18553,0.35625,-0.5956,0.82928,0.21491,2.1,45.6,-21.525,0.087,19.258,5.336,48.84388,2.353338,91.5,NaN,,13.113,,0 / 18,,2015,2022-01-20 17:57:43:882
-2.633,-4.65853,8.37428,-2.18886,-4.05688,8.65569,0.35759,-0.18553,0.35625,-0.5956,0.82928,0.21491,2.1,45.6,-21.525,0.087,19.258,5.336,48.84388,2.353338,91.5,NaN,,13.113,,0 / 18,,2019,2022-01-20 17:57:43:886
-2.01984,-4.84786,7.96571,-2.15629,-4.34969,8.52062,0.54939,-0.03881,-0.56589,-0.67309,-0.36205,0.34101,2.1,45.6,-21.525,0.087,19.258,5.336,48.84388,2.353338,91.5,NaN,,13.113,,0 / 18,,2025,2022-01-20 17:57:43:892
-2.01984,-4.84786,7.96571,-2.15629,-4.34969,8.52062,0.54939,-0.03881,-0.56589,-0.67309,-0.36205,0.34101,2.1,45.6,-21.525,0.087,19.258,5.336,48.84388,2.353338,91.5,NaN,,13.113,,0 / 18,,2029,2022-01-20 17:57:43:896
-2.01984,-4.84786,7.96571,-2.15629,-4.34969,8.52062,0.54939,-0.03881,-0.56589,-0.67309,-0.36205,0.34101,2.1,45.6,-21.525,0.087,19.258,5.336,48.84388,2.353338,91.5,NaN,,13.113,,0 / 18,,2034,2022-01-20 17:57:43:901
-2.01984,-4.84786,7.96571,-2.15629,-4.34969,8.52062,0.54939,-0.03881,-0.56589,-0.67309,-0.36205,0.34101,2.1,45.6,-21.525,0.087,19.258,5.336,48.84388,2.353338,91.5,NaN,,13.113,,0 / 18,,2039,2022-01-20 17:57:43:906
-2.01984,-4.84786,7.96571,-2.15629,-4.34969,8.52062,0.54939,-0.03881,-0.56589,-0.67309,-0.36205,0.34101,2.1,45.6,-21.525,0.087,19.258,5.336,48.84388,2.353338,91.5,NaN,,13.113,,0 / 18,,2044,2022-01-20 17:57:43:911
-2.01984,-4.84786,7.96571,-2.15629,-4.34969,8.52062,0.54939,-0.03881,-0.56589,-0.67309,-0.36205,0.34101,2.1,45.6,-21.525,0.087,19.258,5.336,48.84388,2.353338,91.5,NaN,,13.113,,0 / 18,,2049,2022-01-20 17:57:43:916
-2.01984,-4.84786,7.96571,-2.15629,-4.34969,8.52062,0.54939,-0.03881,-0.56589,-0.67309,-0.36205,0.34101,3.0,46.725,-19.875,3.445,26.33,14.202,48.84388,2.353338,91.5,NaN,,13.113,,0 / 18,,2055,2022-01-20 17:57:43:922
-2.01984,-4.84786,7.96571,-2.15629,-4.34969,8.52062,0.54939,-0.03881,-0.56589,-0.67309,-0.36205,0.34101,3.0,46.725,-19.875,3.445,26.33,14.202,48.84388,2.353338,91.5,NaN,,13.113,,0 / 18,,2059,2022-01-20 17:57:43:926
-2.01984,-4.84786,7.96571,-2.15629,-4.34969,8.52062,0.54939,-0.03881,-0.56589,-0.67309,-0.36205,0.34101,3.0,46.725,-19.875,3.445,26.33,14.202,48.84388,2.353338,91.5,NaN,,13.113,,0 / 18,,2065,2022-01-20 17:57:43:932
-2.01984,-4.84786,7.96571,-2.15629,-4.34969,8.52062,0.54939,-0.03881,-0.56589,-0.67309,-0.36205,0.34101,3.0,46.725,-19.875,3.445,26.33,14.202,48.84388,2.353338,91.5,NaN,,13.113,,0 / 18,,2069,2022-01-20 17:57:43:936
-2.01984,-4.84786,7.96571,-2.15629,-4.34969,8.52062,0.54939,-0.03881,-0.56589,-0.67309,-0.36205,0.34101,3.0,46.725,-19.875,3.445,26.33,14.202,48.84388,2.353338,91.5,NaN,,13.113,,0 / 18,,2074,2022-01-20 17:57:43:941
-2.01984,-4.84786,7.96571,-2.15629,-4.34969,8.52062,0.54939,-0.03881,-0.56589,-0.67309,-0.36205,0.34101,3.0,46.725,-19.875,3.445,26.33,14.202,48.84388,2.353338,91.5,NaN,,13.113,,0 / 18,,2080,2022-01-20 17:57:43:947
-2.01984,-4.84786,7.96571,-2.15629,-4.34969,8.52062,0.54939,-0.03881,-0.56589,-0.67309,-0.36205,0.34101,3.0,46.725,-19.875,3.445,26.33,14.202,48.84388,2.353338,91.5,NaN,,13.113,,0 / 18,,2085,2022-01-20 17:57:43:952
-3.21386,-5.90668,8.77538,-1.78451,-4.64706,8.44931,-0.28083,-0.20358,-0.39655,-0.67309,-0.36205,0.34101,3.0,46.725,-19.875,3.445,26.33,14.202,48.84388,2.353338,91.5,NaN,,13.113,,0 / 18,,2090,2022-01-20 17:57:43:957
-3.21386,-5.90668,8.77538,-1.78451,-4.64706,8.44931,-0.28083,-0.20358,-0.39655,-0.67309,-0.36205,0.34101,3.0,46.725,-19.875,3.445,26.33,14.202,48.84388,2.353338,91.5,NaN,,13.113,,0 / 18,,2094,2022-01-20 17:57:43:961
-3.21386,-5.90668,8.77538,-1.78451,-4.64706,8.44931,-0.28083,-0.20358,-0.39655,-0.67309,-0.36205,0.34101,3.0,46.725,-19.875,3.445,26.33,14.202,48.84388,2.353338,91.5,NaN,,13.113,,0 / 18,,2099,2022-01-20 17:57:43:966
-3.21386,-5.90668,8.77538,-1.78451,-4.64706,8.44931,-0.28083,-0.20358,-0.39655,-0.67309,-0.36205,0.34101,3.0,46.725,-19.875,3.445,26.33,14.202,48.84388,2.353338,91.5,NaN,,13.113,,0 / 18,,2105,2022-01-20 17:57:43:972
-3.21386,-5.90668,8.77538,-1.78451,-4.64706,8.44931,-0.28083,-0.20358,-0.39655,-0.67309,-0.36205,0.34101,3.0,46.725,-19.875,3.445,26.33,14.202,48.84388,2.353338,91.5,NaN,,13.113,,0 / 18,,2109,2022-01-20 17:57:43:976
-3.21386,-5.90668,8.77538,-1.78451,-4.64706,8.44931,-0.28083,-0.20358,-0.39655,-0.67309,-0.36205,0.34101,3.0,46.725,-19.875,3.445,26.33,14.202,48.84388,2.353338,91.5,NaN,,13.113,,0 / 18,,2114,2022-01-20 17:57:43:981
-3.21386,-5.90668,8.77538,-1.78451,-4.64706,8.44931,-0.28083,-0.20358,-0.39655,-0.67309,-0.36205,0.34101,3.0,46.725,-19.875,3.445,26.33,14.202,48.84388,2.353338,91.5,NaN,,13.113,,0 / 18,,2121,2022-01-20 17:57:43:988
-3.21386,-5.90668,8.77538,-1.78451,-4.64706,8.44931,-0.28083,-0.20358,-0.39655,-0.67309,-0.36205,0.34101,3.0,46.725,-19.875,3.445,26.33,14.202,48.84388,2.353338,91.5,NaN,,13.113,,0 / 18,,2124,2022-01-20 17:57:43:991
-3.21386,-5.90668,8.77538,-1.78451,-4.64706,8.44931,-0.28083,-0.20358,-0.39655,-0.67309,-0.36205,0.34101,3.0,46.725,-19.875,3.445,26.33,14.202,48.84388,2.353338,91.5,NaN,,13.113,,0 / 18,,2129,2022-01-20 17:57:43:996
-3.21386,-5.90668,8.77538,-1.78451,-4.64706,8.44931,-0.28083,-0.20358,-0.39655,-0.67309,-0.36205,0.34101,3.0,46.725,-19.875,3.445,26.33,14.202,48.84388,2.353338,91.5,NaN,,13.113,,0 / 18,,2134,2022-01-20 17:57:44:001
-3.21386,-5.90668,8.77538,-1.78451,-4.64706,8.44931,-0.28083,-0.20358,-0.39655,-0.67309,-0.36205,0.34101,3.0,46.725,-19.875,3.445,26.33,14.202,48.84388,2.353338,91.5,NaN,,13.113,,0 / 18,,2139,2022-01-20 17:57:44:006
-3.21386,-5.90668,8.77538,-1.78451,-4.64706,8.44931,-0.28083,-0.20358,-0.39655,-0.67309,-0.36205,0.34101,3.0,46.725,-19.875,3.445,26.33,14.202,48.84388,2.353338,91.5,NaN,,13.113,,0 / 18,,2145,2022-01-20 17:57:44:012
-3.21386,-5.90668,8.77538,-1.78451,-4.64706,8.44931,-0.28083,-0.20358,-0.39655,-0.67309,-0.36205,0.34101,3.675,47.55,-18.75,0.022,28.286,11.926,48.84388,2.353338,91.5,NaN,,13.113,,0 / 18,,2149,2022-01-20 17:57:44:016
-3.21386,-5.90668,8.77538,-1.78451,-4.64706,8.44931,-0.28083,-0.20358,-0.39655,-0.89946,-0.29147,1.09666,3.675,47.55,-18.75,0.022,28.286,11.926,48.84388,2.353338,91.5,NaN,,13.113,,0 / 18,,2154,2022-01-20 17:57:44:021
-1.32503,-4.46082,8.27707,-1.78451,-4.64706,8.44931,-0.28083,-0.20358,-0.39655,-0.89946,-0.29147,1.09666,3.675,47.55,-18.75,0.022,28.286,11.926,48.84388,2.353338,91.5,NaN,,13.113,,0 / 18,,2159,2022-01-20 17:57:44:026
-1.32503,-4.46082,8.27707,-1.78451,-4.64706,8.44931,-0.28083,-0.20358,-0.39655,-0.89946,-0.29147,1.09666,3.675,47.55,-18.75,0.022,28.286,11.926,48.84388,2.353338,91.5,NaN,,13.113,,0 / 18,,2164,2022-01-20 17:57:44:031
-1.32503,-4.46082,8.27707,-1.78451,-4.64706,8.44931,-0.28083,-0.20358,-0.39655,-0.89946,-0.29147,1.09666,3.675,47.55,-18.75,0.022,28.286,11.926,48.84388,2.353338,91.5,NaN,,13.113,,0 / 18,,2169,2022-01-20 17:57:44:036
-1.32503,-4.46082,8.27707,-1.78451,-4.64706,8.44931,-0.28083,-0.20358,-0.39655,-0.89946,-0.29147,1.09666,3.675,47.55,-18.75,0.022,28.286,11.926,48.84388,2.353338,91.5,NaN,,13.113,,0 / 18,,2175,2022-01-20 17:57:44:042
-1.32503,-4.46082,8.27707,-1.78451,-4.64706,8.44931,-0.28083,-0.20358,-0.39655,-0.89946,-0.29147,1.09666,3.675,47.55,-18.75,0.022,28.286,11.926,48.84388,2.353338,91.5,NaN,,13.113,,0 / 18,,2179,2022-01-20 17:57:44:046
-1.32503,-4.46082,8.27707,-1.78451,-4.64706,8.44931,-0.28083,-0.20358,-0.39655,-0.89946,-0.29147,1.09666,3.675,47.55,-18.75,0.022,28.286,11.926,48.84388,2.353338,91.5,NaN,,13.113,,0 / 18,,2184,2022-01-20 17:57:44:051
-1.32503,-4.46082,8.27707,-1.78451,-4.64706,8.44931,-0.28083,-0.20358,-0.39655,-0.89946,-0.29147,1.09666,3.675,47.55,-18.75,0.022,28.286,11.926,48.84388,2.353338,91.5,NaN,,13.113,,0 / 18,,2189,2022-01-20 17:57:44:056
-1.32503,-4.46082,8.27707,-1.78451,-4.64706,8.44931,-0.28083,-0.20358,-0.39655,-0.89946,-0.29147,1.09666,3.675,47.55,-18.75,0.022,28.286,11.926,48.84388,2.353338,91.5,NaN,,13.113,,0 / 18,,2194,2022-01-20 17:57:44:061
-1.32503,-4.46082,8.27707,-2.2115,-5.31162,7.94143,0.10505,0.20407,0.88752,-0.89946,-0.29147,1.09666,3.675,47.55,-18.75,0.022,28.286,11.926,48.84388,2.353338,91.5,NaN,,13.113,,0 / 18,,2199,2022-01-20 17:57:44:066
-1.32503,-4.46082,8.27707,-2.2115,-5.31162,7.94143,0.10505,0.20407,0.88752,-0.89946,-0.29147,1.09666,3.675,47.55,-18.75,0.022,28.286,11.926,48.84388,2.353338,91.5,NaN,,13.113,,0 / 18,,2204,2022-01-20 17:57:44:071
-1.32503,-4.46082,8.27707,-2.2115,-5.31162,7.94143,0.10505,0.20407,0.88752,-0.89946,-0.29147,1.09666,3.675,47.55,-18.75,0.022,28.286,11.926,48.84388,2.353338,91.5,NaN,,13.113,,0 / 18,,2209,2022-01-20 17:57:44:076
-1.32503,-4.46082,8.27707,-2.2115,-5.31162,7.94143,0.10505,0.20407,0.88752,-0.89946,-0.29147,1.09666,3.675,47.55,-18.75,0.022,28.286,11.926,48.84388,2.353338,91.5,NaN,,13.113,,0 / 18,,2214,2022-01-20 17:57:44:081
-2.10359,-4.93639,7.58375,-2.2115,-5.31162,7.94143,0.10505,0.20407,0.88752,-0.89946,-0.29147,1.09666,3.675,47.55,-18.75,0.022,28.286,11.926,48.84388,2.353338,91.5,NaN,,13.113,,0 / 18,,2219,2022-01-20 17:57:44:086
-2.10359,-4.93639,7.58375,-2.2115,-5.31162,7.94143,0.10505,0.20407,0.88752,-0.89946,-0.29147,1.09666,3.675,47.55,-18.75,0.022,28.286,11.926,48.84388,2.353338,91.5,NaN,,13.113,,0 / 18,,2224,2022-01-20 17:57:44:091
-2.10359,-4.93639,7.58375,-2.2115,-5.31162,7.94143,0.10505,0.20407,0.88752,-0.89946,-0.29147,1.09666,3.675,47.55,-18.75,0.022,28.286,11.926,48.84388,2.353338,91.5,NaN,,13.113,,0 / 18,,2229,2022-01-20 17:57:44:096
-2.10359,-4.93639,7.58375,-2.2115,-5.31162,7.94143,0.10505,0.20407,0.88752,-0.89946,-0.29147,1.09666,3.675,47.55,-18.75,0.022,28.286,11.926,48.84388,2.353338,91.5,NaN,,13.113,,0 / 18,,2234,2022-01-20 17:57:44:101
-2.10359,-4.93639,7.58375,-2.2115,-5.31162,7.94143,0.10505,0.20407,0.88752,-0.89946,-0.29147,1.09666,3.675,47.55,-18.75,0.022,28.286,11.926,48.84388,2.353338,91.5,NaN,,13.113,,0 / 18,,2239,2022-01-20 17:57:44:106
-2.10359,-4.93639,7.58375,-2.2115,-5.31162,7.94143,0.10505,0.20407,0.88752,-0.89946,-0.29147,1.09666,3.675,47.55,-18.75,0.022,28.286,11.926,48.84388,2.353338,91.5,NaN,,13.113,,0 / 18,,2244,2022-01-20 17:57:44:111
-2.10359,-4.93639,7.58375,-2.2115,-5.31162,7.94143,0.10505,0.20407,0.88752,-0.89946,-0.29147,1.09666,3.675,47.55,-18.75,0.022,28.286,11.926,48.84388,2.353338,91.5,NaN,,13.113,,0 / 18,,2249,2022-01-20 17:57:44:116
-2.10359,-4.93639,7.58375,-2.2115,-5.31162,7.94143,0.10505,0.20407,0.88752,-0.89946,-0.29147,1.09666,5.55,49.2,-15.675,357.336,32.795,15.561,48.84388,2.353338,91.5,NaN,,13.113,,0 / 18,,2255,2022-01-20 17:57:44:122
-2.10359,-4.93639,7.58375,-2.2115,-5.31162,7.94143,0.10505,0.20407,0.88752,-0.89946,-0.29147,1.09666,5.55,49.2,-15.675,357.336,32.795,15.561,48.84388,2.353338,91.5,NaN,,13.113,,0 / 18,,2260,2022-01-20 17:57:44:127
-2.10359,-4.93639,7.58375,-2.2115,-5.31162,7.94143,0.10505,0.20407,0.88752,-0.89946,-0.29147,1.09666,5.55,49.2,-15.675,357.336,32.795,15.561,48.84388,2.353338,91.5,NaN,,13.113,,0 / 18,,2264,2022-01-20 17:57:44:131
-2.10359,-4.93639,7.58375,-2.2115,-5.31162,7.94143,0.10505,0.20407,0.88752,-0.89946,-0.29147,1.09666,5.55,49.2,-15.675,357.336,32.795,15.561,48.84388,2.353338,91.5,NaN,,13.113,,0 / 18,,2269,2022-01-20 17:57:44:136
-3.29282,-5.68864,8.04258,-2.75886,-5.51956,7.62191,1.14612,0.82466,0.26786,-0.89946,-0.29147,1.09666,5.55,49.2,-15.675,357.336,32.795,15.561,48.84388,2.353338,91.5,NaN,,13.113,,0 / 18,,2276,2022-01-20 17:57:44:143
-3.29282,-5.68864,8.04258,-2.75886,-5.51956,7.62191,1.14612,0.82466,0.26786,-0.89946,-0.29147,1.09666,5.55,49.2,-15.675,357.336,32.795,15.561,48.84388,2.353338,91.5,NaN,,13.113,,0 / 18,,2280,2022-01-20 17:57:44:147
-3.29282,-5.68864,8.04258,-2.75886,-5.51956,7.62191,1.14612,0.82466,0.26786,-0.89946,-0.29147,1.09666,5.55,49.2,-15.675,357.336,32.795,15.561,48.84388,2.353338,91.5,NaN,,13.113,,0 / 18,,2284,2022-01-20 17:57:44:151
-3.29282,-5.68864,8.04258,-2.75886,-5.51956,7.62191,1.14612,0.82466,0.26786,-0.5221,0.58308,0.67656,5.55,49.2,-15.675,357.336,32.795,15.561,48.84388,2.353338,91.5,NaN,,13.113,,0 / 18,,2289,2022-01-20 17:57:44:156
-3.29282,-5.68864,8.04258,-2.75886,-5.51956,7.62191,1.14612,0.82466,0.26786,-0.5221,0.58308,0.67656,5.55,49.2,-15.675,357.336,32.795,15.561,48.84388,2.353338,91.5,NaN,,13.113,,0 / 18,,2294,2022-01-20 17:57:44:161
-3.29282,-5.68864,8.04258,-2.75886,-5.51956,7.62191,1.14612,0.82466,0.26786,-0.5221,0.58308,0.67656,5.55,49.2,-15.675,357.336,32.795,15.561,48.84388,2.353338,91.5,NaN,,13.113,,0 / 18,,2299,2022-01-20 17:57:44:166
-3.29282,-5.68864,8.04258,-2.75886,-5.51956,7.62191,1.14612,0.82466,0.26786,-0.5221,0.58308,0.67656,5.55,49.2,-15.675,357.336,32.795,15.561,48.84388,2.353338,91.5,NaN,,13.113,,0 / 18,,2305,2022-01-20 17:57:44:172
-3.29282,-5.68864,8.04258,-2.75886,-5.51956,7.62191,1.14612,0.82466,0.26786,-0.5221,0.58308,0.67656,5.55,49.2,-15.675,357.336,32.795,15.561,48.84388,2.353338,91.5,NaN,,13.113,,0 / 18,,2309,2022-01-20 17:57:44:176
-3.29282,-5.68864,8.04258,-2.75886,-5.51956,7.62191,1.14612,0.82466,0.26786,-0.5221,0.58308,0.67656,5.55,49.2,-15.675,357.336,32.795,15.561,48.84388,2.353338,91.5,NaN,,13.113,,0 / 18,,2316,2022-01-20 17:57:44:183
-3.29282,-5.68864,8.04258,-2.75886,-5.51956,7.62191,1.14612,0.82466,0.26786,-0.5221,0.58308,0.67656,5.55,49.2,-15.675,357.336,32.795,15.561,48.84388,2.353338,91.5,NaN,,13.113,,0 / 18,,2319,2022-01-20 17:57:44:186
-3.29282,-5.68864,8.04258,-2.75886,-5.51956,7.62191,1.14612,0.82466,0.26786,-0.5221,0.58308,0.67656,5.55,49.2,-15.675,357.336,32.795,15.561,48.84388,2.353338,91.5,NaN,,13.113,,0 / 18,,2325,2022-01-20 17:57:44:192
-3.29282,-5.68864,8.04258,-2.75886,-5.51956,7.62191,1.14612,0.82466,0.26786,-0.5221,0.58308,0.67656,5.55,49.2,-15.675,357.336,32.795,15.561,48.84388,2.353338,91.5,NaN,,13.113,,0 / 18,,2330,2022-01-20 17:57:44:197
-3.29282,-5.68864,8.04258,-2.75886,-5.51956,7.62191,1.14612,0.82466,0.26786,-0.5221,0.58308,0.67656,5.55,49.2,-15.675,357.336,32.795,15.561,48.84388,2.353338,91.5,NaN,,13.113,,0 / 18,,2335,2022-01-20 17:57:44:202
-3.29282,-5.68864,8.04258,-2.75886,-5.51956,7.62191,1.14612,0.82466,0.26786,-0.5221,0.58308,0.67656,5.55,49.2,-15.675,357.336,32.795,15.561,48.84388,2.353338,91.5,NaN,,13.113,,0 / 18,,2340,2022-01-20 17:57:44:207
-3.29282,-5.68864,8.04258,-2.75886,-5.51956,7.62191,1.14612,0.82466,0.26786,-0.5221,0.58308,0.67656,5.55,49.2,-15.675,357.336,32.795,15.561,48.84388,2.353338,91.5,NaN,,13.113,,0 / 18,,2345,2022-01-20 17:57:44:212
-3.21506,-5.1329,7.49612,-2.75886,-5.51956,7.62191,1.14612,0.82466,0.26786,-0.5221,0.58308,0.67656,7.275,49.875,-13.95,356.807,34.252,19.898,48.84388,2.353338,91.5,NaN,,13.113,,0 / 18,,2350,2022-01-20 17:57:44:217
-3.21506,-5.1329,7.49612,-2.75886,-5.51956,7.62191,1.14612,0.82466,0.26786,-0.5221,0.58308,0.67656,7.275,49.875,-13.95,356.807,34.252,19.898,48.84388,2.353338,91.5,NaN,,13.113,,0 / 18,,2354,2022-01-20 17:57:44:221
-3.21506,-5.1329,7.49612,-2.75886,-5.51956,7.62191,1.14612,0.82466,0.26786,-0.5221,0.58308,0.67656,7.275,49.875,-13.95,356.807,34.252,19.898,48.84388,2.353338,91.5,NaN,,13.113,,0 / 18,,2359,2022-01-20 17:57:44:226
-3.21506,-5.1329,7.49612,-2.75886,-5.51956,7.62191,1.14612,0.82466,0.26786,-0.5221,0.58308,0.67656,7.275,49.875,-13.95,356.807,34.252,19.898,48.84388,2.353338,91.5,NaN,,13.113,,0 / 18,,2364,2022-01-20 17:57:44:231
-3.21506,-5.1329,7.49612,-2.75886,-5.51956,7.62191,1.14612,0.82466,0.26786,-0.5221,0.58308,0.67656,7.275,49.875,-13.95,356.807,34.252,19.898,48.84388,2.353338,91.5,NaN,,13.113,,0 / 18,,2369,2022-01-20 17:57:44:236
-3.21506,-5.1329,7.49612,-2.75886,-5.51956,7.62191,1.14612,0.82466,0.26786,-0.5221,0.58308,0.67656,7.275,49.875,-13.95,356.807,34.252,19.898,48.84388,2.353338,91.5,NaN,,13.113,,0 / 18,,2374,2022-01-20 17:57:44:241
-3.21506,-5.1329,7.49612,-2.75886,-5.51956,7.62191,1.14612,0.82466,0.26786,-0.5221,0.58308,0.67656,7.275,49.875,-13.95,356.807,34.252,19.898,48.84388,2.353338,91.5,NaN,,13.113,,0 / 18,,2379,2022-01-20 17:57:44:246
-3.21506,-5.1329,7.49612,-3.73598,-5.4379,7.25549,0.63622,0.02043,0.55098,-0.5221,0.58308,0.67656,7.275,49.875,-13.95,356.807,34.252,19.898,48.84388,2.353338,91.5,NaN,,13.113,,0 / 18,,2384,2022-01-20 17:57:44:251
-3.21506,-5.1329,7.49612,-3.73598,-5.4379,7.25549,0.63622,0.02043,0.55098,-0.5221,0.58308,0.67656,7.275,49.875,-13.95,356.807,34.252,19.898,48.84388,2.353338,91.5,NaN,,13.113,,0 / 18,,2389,2022-01-20 17:57:44:256
-3.21506,-5.1329,7.49612,-3.73598,-5.4379,7.25549,0.63622,0.02043,0.55098,-0.5221,0.58308,0.67656,7.275,49.875,-13.95,356.807,34.252,19.898,48.84388,2.353338,91.5,NaN,,13.113,,0 / 18,,2394,2022-01-20 17:57:44:261
-3.21506,-5.1329,7.49612,-3.73598,-5.4379,7.25549,0.63622,0.02043,0.55098,-0.5221,0.58308,0.67656,7.275,49.875,-13.95,356.807,34.252,19.898,48.84388,2.353338,91.5,NaN,,13.113,,0 / 18,,2399,2022-01-20 17:57:44:266
-3.21506,-5.1329,7.49612,-3.73598,-5.4379,7.25549,0.63622,0.02043,0.55098,-0.5221,0.58308,0.67656,7.275,49.875,-13.95,356.807,34.252,19.898,48.84388,2.353338,91.5,NaN,,13.113,,0 / 18,,2405,2022-01-20 17:57:44:272
-3.21506,-5.1329,7.49612,-3.73598,-5.4379,7.25549,0.63622,0.02043,0.55098,-0.5221,0.58308,0.67656,7.275,49.875,-13.95,356.807,34.252,19.898,48.84388,2.353338,91.5,NaN,,13.113,,0 / 18,,2410,2022-01-20 17:57:44:277
-3.21506,-5.1329,7.49612,-3.73598,-5.4379,7.25549,0.63622,0.02043,0.55098,-0.5221,0.58308,0.67656,7.275,49.875,-13.95,356.807,34.252,19.898,48.84388,2.353338,91.5,NaN,,13.113,,0 / 18,,2415,2022-01-20 17:57:44:282
-3.21506,-5.1329,7.49612,-3.73598,-5.4379,7.25549,0.63622,0.02043,0.55098,-0.5221,0.58308,0.67656,7.275,49.875,-13.95,356.807,34.252,19.898,48.84388,2.353338,91.5,NaN,,13.113,,0 / 18,,2419,2022-01-20 17:57:44:286
-3.21506,-5.1329,7.49612,-3.73598,-5.4379,7.25549,0.63622,0.02043,0.55098,0.06245,0.61757,0.64846,7.275,49.875,-13.95,356.807,34.252,19.898,48.84388,2.353338,91.5,NaN,,13.113,,0 / 18,,2424,2022-01-20 17:57:44:291
-3.12054,-4.78415,6.71785,-3.73598,-5.4379,7.25549,0.63622,0.02043,0.55098,0.06245,0.61757,0.64846,7.275,49.875,-13.95,356.807,34.252,19.898,48.84388,2.353338,91.5,NaN,,13.113,,0 / 18,,2430,2022-01-20 17:57:44:297
-3.12054,-4.78415,6.71785,-3.73598,-5.4379,7.25549,0.63622,0.02043,0.55098,0.06245,0.61757,0.64846,7.275,49.875,-13.95,356.807,34.252,19.898,48.84388,2.353338,91.5,NaN,,13.113,,0 / 18,,2434,2022-01-20 17:57:44:301
-3.12054,-4.78415,6.71785,-3.73598,-5.4379,7.25549,0.63622,0.02043,0.55098,0.06245,0.61757,0.64846,7.275,49.875,-13.95,356.807,34.252,19.898,48.84388,2.353338,91.5,NaN,,13.113,,0 / 18,,2440,2022-01-20 17:57:44:307
-3.12054,-4.78415,6.71785,-4.1802,-5.25002,7.15078,0.44083,-0.24459,-0.03321,0.06245,0.61757,0.64846,7.275,49.875,-13.95,356.807,34.252,19.898,48.84388,2.353338,91.5,NaN,,13.113,,0 / 18,,2444,2022-01-20 17:57:44:311
-3.12054,-4.78415,6.71785,-4.1802,-5.25002,7.15078,0.44083,-0.24459,-0.03321,0.06245,0.61757,0.64846,7.275,49.875,-13.95,356.807,34.252,19.898,48.84388,2.353338,91.5,NaN,,13.113,,0 / 18,,2449,2022-01-20 17:57:44:316
-3.12054,-4.78415,6.71785,-4.1802,-5.25002,7.15078,0.44083,-0.24459,-0.03321,0.06245,0.61757,0.64846,10.575,50.55,-10.8,353.573,32.368,30.31,48.84388,2.353338,91.5,NaN,,13.113,,0 / 18,,2454,2022-01-20 17:57:44:321
-3.12054,-4.78415,6.71785,-4.1802,-5.25002,7.15078,0.44083,-0.24459,-0.03321,0.06245,0.61757,0.64846,10.575,50.55,-10.8,353.573,32.368,30.31,48.84388,2.353338,91.5,NaN,,13.113,,0 / 18,,2460,2022-01-20 17:57:44:327
-3.12054,-4.78415,6.71785,-4.1802,-5.25002,7.15078,0.44083,-0.24459,-0.03321,0.06245,0.61757,0.64846,10.575,50.55,-10.8,353.573,32.368,30.31,48.84388,2.353338,91.5,NaN,,13.113,,0 / 18,,2465,2022-01-20 17:57:44:332
-3.12054,-4.78415,6.71785,-4.1802,-5.25002,7.15078,0.44083,-0.24459,-0.03321,0.06245,0.61757,0.64846,10.575,50.55,-10.8,353.573,32.368,30.31,48.84388,2.353338,91.5,NaN,,13.113,,0 / 18,,2470,2022-01-20 17:57:44:337
-3.12054,-4.78415,6.71785,-4.1802,-5.25002,7.15078,0.44083,-0.24459,-0.03321,0.06245,0.61757,0.64846,10.575,50.55,-10.8,353.573,32.368,30.31,48.84388,2.353338,91.5,NaN,,13.113,,0 / 18,,2474,2022-01-20 17:57:44:341
-3.12054,-4.78415,6.71785,-4.1802,-5.25002,7.15078,0.44083,-0.24459,-0.03321,0.06245,0.61757,0.64846,10.575,50.55,-10.8,353.573,32.368,30.31,48.84388,2.353338,91.5,NaN,,13.113,,0 / 18,,2479,2022-01-20 17:57:44:346
-3.12054,-4.78415,6.71785,-4.1802,-5.25002,7.15078,0.44083,-0.24459,-0.03321,0.06245,0.61757,0.64846,10.575,50.55,-10.8,353.573,32.368,30.31,48.84388,2.353338,91.5,NaN,,13.113,,0 / 18,,2484,2022-01-20 17:57:44:351
-4.52064,-5.31117,7.42553,-4.1802,-5.25002,7.15078,0.44083,-0.24459,-0.03321,0.06245,0.61757,0.64846,10.575,50.55,-10.8,353.573,32.368,30.31,48.84388,2.353338,91.5,NaN,,13.113,,0 / 18,,2490,2022-01-20 17:57:44:357
-4.52064,-5.31117,7.42553,-4.1802,-5.25002,7.15078,0.44083,-0.24459,-0.03321,0.06245,0.61757,0.64846,10.575,50.55,-10.8,353.573,32.368,30.31,48.84388,2.353338,91.5,NaN,,13.113,,0 / 18,,2494,2022-01-20 17:57:44:361
-4.52064,-5.31117,7.42553,-4.1802,-5.25002,7.15078,0.44083,-0.24459,-0.03321,0.06245,0.61757,0.64846,10.575,50.55,-10.8,353.573,32.368,30.31,48.84388,2.353338,91.5,NaN,,13.113,,0 / 18,,2499,2022-01-20 17:57:44:366
-4.52064,-5.31117,7.42553,-4.1802,-5.25002,7.15078,0.44083,-0.24459,-0.03321,0.06245,0.61757,0.64846,10.575,50.55,-10.8,353.573,32.368,30.31,48.84388,2.353338,91.5,NaN,,13.113,,0 / 18,,2504,2022-01-20 17:57:44:371
-4.52064,-5.31117,7.42553,-4.1802,-5.25002,7.15078,0.44083,-0.24459,-0.03321,0.06245,0.61757,0.64846,10.575,50.55,-10.8,353.573,32.368,30.31,48.84388,2.353338,91.5,NaN,,13.113,,0 / 18,,2509,2022-01-20 17:57:44:376
-4.52064,-5.31117,7.42553,-4.43312,-5.07993,7.12125,0.77512,-0.12447,-0.19705,0.06245,0.61757,0.64846,10.575,50.55,-10.8,353.573,32.368,30.31,48.84388,2.353338,91.5,NaN,,13.113,,0 / 18,,2514,2022-01-20 17:57:44:381
-4.52064,-5.31117,7.42553,-4.43312,-5.07993,7.12125,0.77512,-0.12447,-0.19705,0.06245,0.61757,0.64846,10.575,50.55,-10.8,353.573,32.368,30.31,48.84388,2.353338,91.5,NaN,,13.113,,0 / 18,,2519,2022-01-20 17:57:44:386
-4.52064,-5.31117,7.42553,-4.43312,-5.07993,7.12125,0.77512,-0.12447,-0.19705,0.06245,0.61757,0.64846,10.575,50.55,-10.8,353.573,32.368,30.31,48.84388,2.353338,91.5,NaN,,13.113,,0 / 18,,2525,2022-01-20 17:57:44:392
-4.52064,-5.31117,7.42553,-4.43312,-5.07993,7.12125,0.77512,-0.12447,-0.19705,0.06245,0.61757,0.64846,10.575,50.55,-10.8,353.573,32.368,30.31,48.84388,2.353338,91.5,NaN,,13.113,,0 / 18,,2530,2022-01-20 17:57:44:397
-4.52064,-5.31117,7.42553,-4.43312,-5.07993,7.12125,0.77512,-0.12447,-0.19705,0.06245,0.61757,0.64846,10.575,50.55,-10.8,353.573,32.368,30.31,48.84388,2.353338,91.5,NaN,,13.113,,0 / 18,,2534,2022-01-20 17:57:44:401
-4.52064,-5.31117,7.42553,-4.43312,-5.07993,7.12125,0.77512,-0.12447,-0.19705,0.06245,0.61757,0.64846,10.575,50.55,-10.8,353.573,32.368,30.31,48.84388,2.353338,91.5,NaN,,13.113,,0 / 18,,2539,2022-01-20 17:57:44:406
-4.52064,-5.31117,7.42553,-4.43312,-5.07993,7.12125,0.77512,-0.12447,-0.19705,0.06245,0.61757,0.64846,10.575,50.55,-10.8,353.573,32.368,30.31,48.84388,2.353338,91.5,NaN,,13.113,,0 / 18,,2544,2022-01-20 17:57:44:411
-4.52064,-5.31117,7.42553,-4.43312,-5.07993,7.12125,0.77512,-0.12447,-0.19705,0.06245,0.61757,0.64846,10.575,50.55,-10.8,353.573,32.368,30.31,48.84388,2.353338,91.5,NaN,,13.113,,0 / 18,,2549,2022-01-20 17:57:44:416
-4.52064,-5.31117,7.42553,-4.43312,-5.07993,7.12125,0.77512,-0.12447,-0.19705,0.06245,0.61757,0.64846,10.575,50.55,-10.8,353.573,32.368,30.31,48.84388,2.353338,91.5,NaN,,13.113,,0 / 18,,2554,2022-01-20 17:57:44:421
-4.4333,-5.17119,7.0005,-4.43312,-5.07993,7.12125,0.77512,-0.12447,-0.19705,0.07989,0.05007,0.41983,12.075,50.55,-9.525,352.233,31.199,31.903,48.84388,2.353338,91.5,NaN,,13.113,,0 / 18,,2559,2022-01-20 17:57:44:426
-4.4333,-5.17119,7.0005,-4.43312,-5.07993,7.12125,0.77512,-0.12447,-0.19705,0.07989,0.05007,0.41983,12.075,50.55,-9.525,352.233,31.199,31.903,48.84388,2.353338,91.5,NaN,,13.113,,0 / 18,,2564,2022-01-20 17:57:44:431
-4.4333,-5.17119,7.0005,-4.43312,-5.07993,7.12125,0.77512,-0.12447,-0.19705,0.07989,0.05007,0.41983,12.075,50.55,-9.525,352.233,31.199,31.903,48.84388,2.353338,91.5,NaN,,13.113,,0 / 18,,2569,2022-01-20 17:57:44:436
-4.4333,-5.17119,7.0005,-4.43312,-5.07993,7.12125,0.77512,-0.12447,-0.19705,0.07989,0.05007,0.41983,12.075,50.55,-9.525,352.233,31.199,31.903,48.84388,2.353338,91.5,NaN,,13.113,,0 / 18,,2575,2022-01-20 17:57:44:442
-4.4333,-5.17119,7.0005,-4.43312,-5.07993,7.12125,0.77512,-0.12447,-0.19705,0.07989,0.05007,0.41983,12.075,50.55,-9.525,352.233,31.199,31.903,48.84388,2.353338,91.5,NaN,,13.113,,0 / 18,,2579,2022-01-20 17:57:44:446
-4.4333,-5.17119,7.0005,-4.43312,-5.07993,7.12125,0.77512,-0.12447,-0.19705,0.07989,0.05007,0.41983,12.075,50.55,-9.525,352.233,31.199,31.903,48.84388,2.353338,91.5,NaN,,13.113,,0 / 18,,2584,2022-01-20 17:57:44:451
-4.4333,-5.17119,7.0005,-4.43312,-5.07993,7.12125,0.77512,-0.12447,-0.19705,0.07989,0.05007,0.41983,12.075,50.55,-9.525,352.233,31.199,31.903,48.84388,2.353338,91.5,NaN,,13.113,,0 / 18,,2589,2022-01-20 17:57:44:456
-4.4333,-5.17119,7.0005,-4.43312,-5.07993,7.12125,0.77512,-0.12447,-0.19705,0.07989,0.05007,0.41983,12.075,50.55,-9.525,352.233,31.199,31.903,48.84388,2.353338,91.5,NaN,,13.113,,0 / 18,,2595,2022-01-20 17:57:44:462
-4.4333,-5.17119,7.0005,-4.43312,-5.07993,7.12125,0.77512,-0.12447,-0.19705,0.07989,0.05007,0.41983,12.075,50.55,-9.525,352.233,31.199,31.903,48.84388,2.353338,91.5,NaN,,13.113,,0 / 18,,2599,2022-01-20 17:57:44:466
-4.4333,-5.17119,7.0005,-4.43312,-5.07993,7.12125,0.77512,-0.12447,-0.19705,0.07989,0.05007,0.41983,12.075,50.55,-9.525,352.233,31.199,31.903,48.84388,2.353338,91.5,NaN,,13.113,,0 / 18,,2604,2022-01-20 17:57:44:471
-4.4333,-5.17119,7.0005,-4.43312,-5.07993,7.12125,0.77512,-0.12447,-0.19705,0.07989,0.05007,0.41983,12.075,50.55,-9.525,352.233,31.199,31.903,48.84388,2.353338,91.5,NaN,,13.113,,0 / 18,,2610,2022-01-20 17:57:44:477
-4.4333,-5.17119,7.0005,-4.43312,-5.07993,7.12125,0.77512,-0.12447,-0.19705,0.07989,0.05007,0.41983,12.075,50.55,-9.525,352.233,31.199,31.903,48.84388,2.353338,91.5,NaN,,13.113,,0 / 18,,2615,2022-01-20 17:57:44:482
-4.4333,-5.17119,7.0005,-4.43312,-5.07993,7.12125,0.77512,-0.12447,-0.19705,0.07989,0.05007,0.41983,12.075,50.55,-9.525,352.233,31.199,31.903,48.84388,2.353338,91.5,NaN,,13.113,,0 / 18,,2619,2022-01-20 17:57:44:486
-5.0022,-5.44307,6.61945,-4.73476,-4.84943,7.0877,-0.1322,-0.24574,-0.11151,0.07989,0.05007,0.41983,12.075,50.55,-9.525,352.233,31.199,31.903,48.84388,2.353338,91.5,NaN,,13.113,,0 / 18,,2625,2022-01-20 17:57:44:492
-5.0022,-5.44307,6.61945,-4.73476,-4.84943,7.0877,-0.1322,-0.24574,-0.11151,0.07989,0.05007,0.41983,12.075,50.55,-9.525,352.233,31.199,31.903,48.84388,2.353338,91.5,NaN,,13.113,,0 / 18,,2630,2022-01-20 17:57:44:497
-5.0022,-5.44307,6.61945,-4.73476,-4.84943,7.0877,-0.1322,-0.24574,-0.11151,0.07989,0.05007,0.41983,12.075,50.55,-9.525,352.233,31.199,31.903,48.84388,2.353338,91.5,NaN,,13.113,,0 / 18,,2635,2022-01-20 17:57:44:502
-5.0022,-5.44307,6.61945,-4.73476,-4.84943,7.0877,-0.1322,-0.24574,-0.11151,0.07989,0.05007,0.41983,12.075,50.55,-9.525,352.233,31.199,31.903,48.84388,2.353338,91.5,NaN,,13.113,,0 / 18,,2639,2022-01-20 17:57:44:506
-5.0022,-5.44307,6.61945,-4.73476,-4.84943,7.0877,-0.1322,-0.24574,-0.11151,0.07989,0.05007,0.41983,12.075,50.55,-9.525,352.233,31.199,31.903,48.84388,2.353338,91.5,NaN,,13.113,,0 / 18,,2644,2022-01-20 17:57:44:511
-5.0022,-5.44307,6.61945,-4.73476,-4.84943,7.0877,-0.1322,-0.24574,-0.11151,0.07989,0.05007,0.41983,12.075,50.55,-9.525,352.233,31.199,31.903,48.84388,2.353338,91.5,NaN,,13.113,,0 / 18,,2649,2022-01-20 17:57:44:516
-5.0022,-5.44307,6.61945,-4.73476,-4.84943,7.0877,-0.1322,-0.24574,-0.11151,0.07989,0.05007,0.41983,15.375,50.025,-7.35,346.751,29.637,33.744,48.84388,2.353338,91.5,NaN,,13.113,,0 / 18,,2655,2022-01-20 17:57:44:522
-5.0022,-5.44307,6.61945,-4.73476,-4.84943,7.0877,-0.1322,-0.24574,-0.11151,0.07989,0.05007,0.41983,15.375,50.025,-7.35,346.751,29.637,33.744,48.84388,2.353338,91.5,NaN,,13.113,,0 / 18,,2659,2022-01-20 17:57:44:526
-5.0022,-5.44307,6.61945,-4.73476,-4.84943,7.0877,-0.1322,-0.24574,-0.11151,0.07989,0.05007,0.41983,15.375,50.025,-7.35,346.751,29.637,33.744,48.84388,2.353338,91.5,NaN,,13.113,,0 / 18,,2664,2022-01-20 17:57:44:531
-5.0022,-5.44307,6.61945,-4.73476,-4.84943,7.0877,-0.1322,-0.24574,-0.11151,0.07989,0.05007,0.41983,15.375,50.025,-7.35,346.751,29.637,33.744,48.84388,2.353338,91.5,NaN,,13.113,,0 / 18,,2669,2022-01-20 17:57:44:536
-5.0022,-5.44307,6.61945,-4.73476,-4.84943,7.0877,-0.1322,-0.24574,-0.11151,0.07989,0.05007,0.41983,15.375,50.025,-7.35,346.751,29.637,33.744,48.84388,2.353338,91.5,NaN,,13.113,,0 / 18,,2674,2022-01-20 17:57:44:541
-5.0022,-5.44307,6.61945,-4.73476,-4.84943,7.0877,-0.1322,-0.24574,-0.11151,0.07989,0.05007,0.41983,15.375,50.025,-7.35,346.751,29.637,33.744,48.84388,2.353338,91.5,NaN,,13.113,,0 / 18,,2680,2022-01-20 17:57:44:547
-5.0022,-5.44307,6.61945,-4.73476,-4.84943,7.0877,-0.1322,-0.24574,-0.11151,0.07989,0.05007,0.41983,15.375,50.025,-7.35,346.751,29.637,33.744,48.84388,2.353338,91.5,NaN,,13.113,,0 / 18,,2684,2022-01-20 17:57:44:551
-5.17926,-5.83819,5.35723,-4.88486,-4.80899,7.013,-0.26013,-0.45537,-0.05992,-0.16351,0.13502,0.34607,15.375,50.025,-7.35,346.751,29.637,33.744,48.84388,2.353338,91.5,NaN,,13.113,,0 / 18,,2689,2022-01-20 17:57:44:556
-5.17926,-5.83819,5.35723,-4.88486,-4.80899,7.013,-0.26013,-0.45537,-0.05992,-0.16351,0.13502,0.34607,15.375,50.025,-7.35,346.751,29.637,33.744,48.84388,2.353338,91.5,NaN,,13.113,,0 / 18,,2694,2022-01-20 17:57:44:561
-5.17926,-5.83819,5.35723,-4.88486,-4.80899,7.013,-0.26013,-0.45537,-0.05992,-0.16351,0.13502,0.34607,15.375,50.025,-7.35,346.751,29.637,33.744,48.84388,2.353338,91.5,NaN,,13.113,,0 / 18,,2699,2022-01-20 17:57:44:566
-5.17926,-5.83819,5.35723,-4.88486,-4.80899,7.013,-0.26013,-0.45537,-0.05992,-0.16351,0.13502,0.34607,15.375,50.025,-7.35,346.751,29.637,33.744,48.84388,2.353338,91.5,NaN,,13.113,,0 / 18,,2705,2022-01-20 17:57:44:572
-5.17926,-5.83819,5.35723,-4.88486,-4.80899,7.013,-0.26013,-0.45537,-0.05992,-0.16351,0.13502,0.34607,15.375,50.025,-7.35,346.751,29.637,33.744,48.84388,2.353338,91.5,NaN,,13.113,,0 / 18,,2709,2022-01-20 17:57:44:576
-5.17926,-5.83819,5.35723,-4.88486,-4.80899,7.013,-0.26013,-0.45537,-0.05992,-0.16351,0.13502,0.34607,15.375,50.025,-7.35,346.751,29.637,33.744,48.84388,2.353338,91.5,NaN,,13.113,,0 / 18,,2715,2022-01-20 17:57:44:582
-5.17926,-5.83819,5.35723,-4.88486,-4.80899,7.013,-0.26013,-0.45537,-0.05992,-0.16351,0.13502,0.34607,15.375,50.025,-7.35,346.751,29.637,33.744,48.84388,2.353338,91.5,NaN,,13.113,,0 / 18,,2719,2022-01-20 17:57:44:586
-5.17926,-5.83819,5.35723,-4.88486,-4.80899,7.013,-0.26013,-0.45537,-0.05992,-0.16351,0.13502,0.34607,15.375,50.025,-7.35,346.751,29.637,33.744,48.84388,2.353338,91.5,NaN,,13.113,,0 / 18,,2724,2022-01-20 17:57:44:591
-5.17926,-5.83819,5.35723,-4.88486,-4.80899,7.013,-0.26013,-0.45537,-0.05992,-0.16351,0.13502,0.34607,15.375,50.025,-7.35,346.751,29.637,33.744,48.84388,2.353338,91.5,NaN,,13.113,,0 / 18,,2730,2022-01-20 17:57:44:597
-5.17926,-5.83819,5.35723,-4.88486,-4.80899,7.013,-0.26013,-0.45537,-0.05992,-0.16351,0.13502,0.34607,15.375,50.025,-7.35,346.751,29.637,33.744,48.84388,2.353338,91.5,NaN,,13.113,,0 / 18,,2734,2022-01-20 17:57:44:601
-5.17926,-5.83819,5.35723,-4.88486,-4.80899,7.013,-0.26013,-0.45537,-0.05992,-0.16351,0.13502,0.34607,15.375,50.025,-7.35,346.751,29.637,33.744,48.84388,2.353338,91.5,NaN,,13.113,,0 / 18,,2739,2022-01-20 17:57:44:606
-5.17926,-5.83819,5.35723,-4.88486,-4.80899,7.013,-0.26013,-0.45537,-0.05992,-0.16351,0.13502,0.34607,15.375,50.025,-7.35,346.751,29.637,33.744,48.84388,2.353338,91.5,NaN,,13.113,,0 / 18,,2744,2022-01-20 17:57:44:611
-5.70389,-6.32692,6.97777,-4.88486,-4.80899,7.013,-0.26013,-0.45537,-0.05992,-0.16351,0.13502,0.34607,17.1,49.425,-6.9,344.185,29.366,34.859,48.84388,2.353338,91.5,NaN,,13.113,,0 / 18,,2750,2022-01-20 17:57:44:617
-5.70389,-6.32692,6.97777,-5.15988,-4.8942,6.75225,-0.41198,-1.08965,-0.66059,-0.16351,0.13502,0.34607,17.1,49.425,-6.9,344.185,29.366,34.859,48.84388,2.353338,91.5,NaN,,13.113,,0 / 18,,2754,2022-01-20 17:57:44:621
-5.70389,-6.32692,6.97777,-5.15988,-4.8942,6.75225,-0.41198,-1.08965,-0.66059,-0.16351,0.13502,0.34607,17.1,49.425,-6.9,344.185,29.366,34.859,48.84388,2.353338,91.5,NaN,,13.113,,0 / 18,,2760,2022-01-20 17:57:44:627
-5.70389,-6.32692,6.97777,-5.15988,-4.8942,6.75225,-0.41198,-1.08965,-0.66059,-0.16351,0.13502,0.34607,17.1,49.425,-6.9,344.185,29.366,34.859,48.84388,2.353338,91.5,NaN,,13.113,,0 / 18,,2764,2022-01-20 17:57:44:631
-5.70389,-6.32692,6.97777,-5.15988,-4.8942,6.75225,-0.41198,-1.08965,-0.66059,-0.16351,0.13502,0.34607,17.1,49.425,-6.9,344.185,29.366,34.859,48.84388,2.353338,91.5,NaN,,13.113,,0 / 18,,2769,2022-01-20 17:57:44:636
-5.70389,-6.32692,6.97777,-5.15988,-4.8942,6.75225,-0.41198,-1.08965,-0.66059,-0.16351,0.13502,0.34607,17.1,49.425,-6.9,344.185,29.366,34.859,48.84388,2.353338,91.5,NaN,,13.113,,0 / 18,,2775,2022-01-20 17:57:44:642
-5.70389,-6.32692,6.97777,-5.15988,-4.8942,6.75225,-0.41198,-1.08965,-0.66059,-0.16351,0.13502,0.34607,17.1,49.425,-6.9,344.185,29.366,34.859,48.84388,2.353338,91.5,NaN,,13.113,,0 / 18,,2779,2022-01-20 17:57:44:646
-5.70389,-6.32692,6.97777,-5.15988,-4.8942,6.75225,-0.41198,-1.08965,-0.66059,-0.16351,0.13502,0.34607,17.1,49.425,-6.9,344.185,29.366,34.859,48.84388,2.353338,91.5,NaN,,13.113,,0 / 18,,2784,2022-01-20 17:57:44:651
-5.70389,-6.32692,6.97777,-5.15988,-4.8942,6.75225,-0.41198,-1.08965,-0.66059,-0.16351,0.13502,0.34607,17.1,49.425,-6.9,344.185,29.366,34.859,48.84388,2.353338,91.5,NaN,,13.113,,0 / 18,,2789,2022-01-20 17:57:44:656
