ACCELEROMETER X (m/s²),ACCELEROMETER Y (m/s²),ACCELEROMETER Z (m/s²),GRAVITY X (m/s²),GRAVITY Y (m/s²),GRAVITY Z (m/s²),LINEAR ACCELERATION X (m/s²),LINEAR ACCELERATION Y (m/s²),LINEAR ACCELERATION Z (m/s²),GYROSCOPE X (rad/s),GYROSCOPE Y (rad/s),GYROSCOPE Z (rad/s),LIGHT (lux),MAGNETIC FIELD X (μT),MAGNETIC FIELD Y (μT),MAGNETIC FIELD Z (μT),ORIENTATION Z (azimuth °),ORIENTATION X (pitch °),ORIENTATION Y (roll °),PROXIMITY (i),SOUND LEVEL (dB),LOCATION Latitude : ,LOCATION Longitude : ,LOCATION Altitude ( m),LOCATION Altitude-google ( m),LOCATION Speed ( Kmh),LOCATION Accuracy ( m),LOCATION ORIENTATION (°),Satellites in range,Time since start in ms ,YYYY-MO-DD HH-MI-SS_SSS
-0.593121,0.356531,9.655638,-0.490349,0.350872,9.788096,-0.11945,0.02979,-0.047428,0.006525,-0.027563,-0.037683,75.0,7.425,-22.35,-30.825,194.6222,-1.9014,2.8216,1.97,20.33786,48.84385,2.352985,480.3461,NaN,0.0,20.748388,,7 / 25,7,2022-01-10 17:27:08:599
-0.593121,0.356531,9.655638,-0.490349,0.350872,9.788096,-0.11945,0.02979,-0.047428,0.006525,-0.027563,-0.037683,75.0,7.425,-22.35,-30.825,194.6222,-1.9014,2.8216,1.97,20.33786,48.84385,2.352985,480.3461,NaN,0.0,20.748388,,7 / 25,11,2022-01-10 17:27:08:603
-0.593121,0.356531,9.655638,-0.490349,0.350872,9.788096,-0.11945,0.02979,-0.047428,0.006525,-0.027563,-0.037683,75.0,7.425,-22.35,-30.825,194.6222,-1.9014,2.8216,1.97,20.33786,48.84385,2.352985,480.3461,NaN,0.0,20.748388,,7 / 25,17,2022-01-10 17:27:08:609
-0.593121,0.356531,9.655638,-0.490349,0.350872,9.788096,-0.11945,0.02979,-0.047428,0.006525,-0.027563,-0.037683,75.0,7.425,-22.35,-30.825,194.6222,-1.9014,2.8216,1.97,20.33786,48.84385,2.352985,480.3461,NaN,0.0,20.748388,,7 / 25,22,2022-01-10 17:27:08:614
-0.515354,0.291625,9.68465,-0.490349,0.350872,9.788096,-0.11945,0.02979,-0.047428,0.006525,-0.027563,-0.037683,75.0,7.425,-22.35,-30.825,194.6222,-1.9014,2.8216,1.97,20.33786,48.84385,2.352985,480.3461,NaN,0.0,20.748388,,7 / 25,28,2022-01-10 17:27:08:620
-0.515354,0.291625,9.68465,-0.490349,0.350872,9.788096,-0.11945,0.02979,-0.047428,0.006525,-0.027563,-0.037683,75.0,7.425,-22.35,-30.825,194.6222,-1.9014,2.8216,1.97,19.8463,48.84385,2.352985,480.3461,NaN,0.0,20.748388,,7 / 25,31,2022-01-10 17:27:08:623
-0.515354,0.291625,9.68465,-0.490349,0.350872,9.788096,-0.11945,0.02979,-0.047428,0.006525,-0.027563,-0.037683,75.0,7.425,-22.35,-30.825,194.6222,-1.9014,2.8216,1.97,19.8463,48.84385,2.352985,480.3461,NaN,0.0,20.748388,,7 / 25,37,2022-01-10 17:27:08:629
-0.515354,0.291625,9.68465,-0.490349,0.350872,9.788096,-0.11945,0.02979,-0.047428,0.006525,-0.027563,-0.037683,75.0,7.425,-22.35,-30.825,194.6222,-1.9014,2.8216,1.97,19.8463,48.84385,2.352985,480.3461,NaN,0.0,20.748388,,7 / 25,42,2022-01-10 17:27:08:634
-0.515354,0.291625,9.68465,-0.490349,0.350872,9.788096,-0.11945,0.02979,-0.047428,0.006525,-0.027563,-0.037683,75.0,7.425,-22.35,-30.825,194.6222,-1.9014,2.8216,1.97,19.8463,48.84385,2.352985,480.3461,NaN,0.0,20.748388,,7 / 25,46,2022-01-10 17:27:08:638
-0.515354,0.291625,9.68465,-0.490349,0.350872,9.788096,-0.11945,0.02979,-0.047428,0.006525,-0.027563,-0.037683,75.0,7.425,-22.35,-30.825,194.6222,-1.9014,2.8216,1.97,19.8463,48.84385,2.352985,480.3461,NaN,0.0,20.748388,,7 / 25,52,2022-01-10 17:27:08:644
-0.515354,0.291625,9.68465,-0.490349,0.350872,9.788096,-0.11945,0.02979,-0.047428,0.006525,-0.027563,-0.037683,75.0,7.425,-22.35,-30.825,194.6222,-1.9014,2.8216,1.97,19.8463,48.84385,2.352985,480.3461,NaN,0.0,20.748388,,7 / 25,57,2022-01-10 17:27:08:649
-0.515354,0.291625,9.68465,-0.490349,0.350872,9.788096,-0.11945,0.02979,-0.047428,0.006525,-0.027563,-0.037683,75.0,7.65,-22.125,-30.9,197.1511,-2.0504,2.8679,1.97,19.8463,48.84385,2.352985,480.3461,NaN,0.0,20.748388,,7 / 25,61,2022-01-10 17:27:08:653
-0.515354,0.291625,9.68465,-0.490349,0.350872,9.788096,-0.11945,0.02979,-0.047428,0.006525,-0.027563,-0.037683,75.0,7.65,-22.125,-30.9,197.1511,-2.0504,2.8679,1.97,19.8463,48.84385,2.352985,480.3461,NaN,0.0,20.748388,,7 / 25,67,2022-01-10 17:27:08:659
-0.515354,0.291625,9.68465,-0.490349,0.350872,9.788096,-0.11945,0.02979,-0.047428,0.006525,-0.027563,-0.037683,75.0,7.65,-22.125,-30.9,197.1511,-2.0504,2.8679,1.97,19.8463,48.84385,2.352985,480.3461,NaN,0.0,20.748388,,7 / 25,72,2022-01-10 17:27:08:664
-0.515354,0.291625,9.68465,-0.48705,0.28038,9.790534,-0.049472,0.007066,-0.028825,-0.088947,-0.005459,0.007457,75.0,7.65,-22.125,-30.9,197.1511,-2.0504,2.8679,1.97,19.8463,48.84385,2.352985,480.3461,NaN,0.0,20.748388,,7 / 25,78,2022-01-10 17:27:08:670
-0.515354,0.291625,9.68465,-0.48705,0.28038,9.790534,-0.049472,0.007066,-0.028825,-0.088947,-0.005459,0.007457,75.0,7.65,-22.125,-30.9,197.1511,-2.0504,2.8679,1.97,19.8463,48.84385,2.352985,480.3461,NaN,0.0,20.748388,,7 / 25,82,2022-01-10 17:27:08:674
-0.515354,0.291625,9.68465,-0.48705,0.28038,9.790534,-0.049472,0.007066,-0.028825,-0.088947,-0.005459,0.007457,75.0,7.65,-22.125,-30.9,197.1511,-2.0504,2.8679,1.97,19.8463,48.84385,2.352985,480.3461,NaN,0.0,20.748388,,7 / 25,87,2022-01-10 17:27:08:679
-0.515354,0.291625,9.68465,-0.48705,0.28038,9.790534,-0.049472,0.007066,-0.028825,-0.088947,-0.005459,0.007457,75.0,7.65,-22.125,-30.9,197.1511,-2.0504,2.8679,1.97,19.8463,48.84385,2.352985,480.3461,NaN,0.0,20.748388,,7 / 25,92,2022-01-10 17:27:08:684
-0.515354,0.291625,9.68465,-0.48705,0.28038,9.790534,-0.049472,0.007066,-0.028825,-0.088947,-0.005459,0.007457,75.0,7.65,-22.125,-30.9,197.1511,-2.0504,2.8679,1.97,19.8463,48.84385,2.352985,480.3461,NaN,0.0,20.748388,,7 / 25,96,2022-01-10 17:27:08:688
-0.515354,0.291625,9.68465,-0.48705,0.28038,9.790534,-0.049472,0.007066,-0.028825,-0.088947,-0.005459,0.007457,75.0,7.65,-22.125,-30.9,197.1511,-2.0504,2.8679,1.97,19.8463,48.84385,2.352985,480.3461,NaN,0.0,20.748388,,7 / 25,102,2022-01-10 17:27:08:694
-0.515354,0.291625,9.68465,-0.48705,0.28038,9.790534,-0.049472,0.007066,-0.028825,-0.088947,-0.005459,0.007457,75.0,7.65,-22.125,-30.9,197.1511,-2.0504,2.8679,1.97,19.8463,48.84385,2.352985,480.3461,NaN,0.0,20.748388,,7 / 25,106,2022-01-10 17:27:08:698
-0.515354,0.291625,9.68465,-0.48705,0.28038,9.790534,-0.049472,0.007066,-0.028825,-0.088947,-0.005459,0.007457,75.0,7.65,-22.125,-30.9,197.1511,-2.0504,2.8679,1.97,19.8463,48.84385,2.352985,480.3461,NaN,0.0,20.748388,,7 / 25,112,2022-01-10 17:27:08:704
-0.515354,0.291625,9.68465,-0.48705,0.28038,9.790534,-0.049472,0.007066,-0.028825,-0.088947,-0.005459,0.007457,75.0,7.65,-22.125,-30.9,197.1511,-2.0504,2.8679,1.97,19.8463,48.84385,2.352985,480.3461,NaN,0.0,20.748388,,7 / 25,117,2022-01-10 17:27:08:709
-0.515354,0.291625,9.68465,-0.48705,0.28038,9.790534,-0.049472,0.007066,-0.028825,-0.088947,-0.005459,0.007457,75.0,7.65,-22.125,-30.9,197.1511,-2.0504,2.8679,1.97,19.8463,48.84385,2.352985,480.3461,NaN,0.0,20.748388,,7 / 25,122,2022-01-10 17:27:08:714
-0.515354,0.291625,9.68465,-0.48705,0.28038,9.790534,-0.049472,0.007066,-0.028825,-0.088947,-0.005459,0.007457,75.0,7.65,-22.125,-30.9,197.1511,-2.0504,2.8679,1.97,19.8463,48.84385,2.352985,480.3461,NaN,0.0,20.748388,,7 / 25,126,2022-01-10 17:27:08:718
-0.515354,0.291625,9.68465,-0.48705,0.28038,9.790534,-0.049472,0.007066,-0.028825,-0.088947,-0.005459,0.007457,75.0,7.65,-22.125,-30.9,197.1511,-2.0504,2.8679,1.97,19.8463,48.84385,2.352985,480.3461,NaN,0.0,20.748388,,7 / 25,132,2022-01-10 17:27:08:724
-0.599103,0.174377,9.594621,-0.48705,0.28038,9.790534,-0.049472,0.007066,-0.028825,-0.088947,-0.005459,0.007457,75.0,7.65,-22.125,-30.9,197.1511,-2.0504,2.8679,1.97,19.8463,48.84385,2.352985,480.3461,NaN,0.0,20.748388,,7 / 25,137,2022-01-10 17:27:08:729
-0.599103,0.174377,9.594621,-0.48705,0.28038,9.790534,-0.049472,0.007066,-0.028825,-0.088947,-0.005459,0.007457,75.0,7.65,-22.125,-30.9,197.1511,-2.0504,2.8679,1.97,19.8463,48.84385,2.352985,480.3461,NaN,0.0,20.748388,,7 / 25,142,2022-01-10 17:27:08:734
-0.599103,0.174377,9.594621,-0.48705,0.28038,9.790534,-0.049472,0.007066,-0.028825,-0.088947,-0.005459,0.007457,75.0,7.65,-22.125,-30.9,197.1511,-2.0504,2.8679,1.97,19.8463,48.84385,2.352985,480.3461,NaN,0.0,20.748388,,7 / 25,146,2022-01-10 17:27:08:738
-0.599103,0.174377,9.594621,-0.48705,0.28038,9.790534,-0.049472,0.007066,-0.028825,-0.088947,-0.005459,0.007457,75.0,7.65,-22.125,-30.9,197.1511,-2.0504,2.8679,1.97,19.8463,48.84385,2.352985,480.3461,NaN,0.0,20.748388,,7 / 25,152,2022-01-10 17:27:08:744
-0.599103,0.174377,9.594621,-0.48705,0.28038,9.790534,-0.049472,0.007066,-0.028825,-0.088947,-0.005459,0.007457,75.0,7.65,-22.125,-30.9,197.1511,-2.0504,2.8679,1.97,19.8463,48.84385,2.352985,480.3461,NaN,0.0,20.748388,,7 / 25,157,2022-01-10 17:27:08:749
-0.599103,0.174377,9.594621,-0.48705,0.28038,9.790534,-0.049472,0.007066,-0.028825,-0.088947,-0.005459,0.007457,75.0,7.65,-22.125,-30.9,197.1511,-2.0504,2.8679,1.97,19.8463,48.84385,2.352985,480.3461,NaN,0.0,20.748388,,7 / 25,162,2022-01-10 17:27:08:754
-0.599103,0.174377,9.594621,-0.48705,0.28038,9.790534,-0.049472,0.007066,-0.028825,-0.088947,-0.005459,0.007457,75.0,7.65,-22.125,-30.9,197.1511,-2.0504,2.8679,1.97,19.8463,48.84385,2.352985,480.3461,NaN,0.0,20.748388,,7 / 25,167,2022-01-10 17:27:08:759
-0.599103,0.174377,9.594621,-0.48705,0.28038,9.790534,-0.049472,0.007066,-0.028825,-0.088947,-0.005459,0.007457,75.0,7.65,-22.125,-30.9,197.1511,-2.0504,2.8679,1.97,19.8463,48.84385,2.352985,480.3461,NaN,0.0,20.748388,,7 / 25,171,2022-01-10 17:27:08:763
-0.599103,0.174377,9.594621,-0.48705,0.28038,9.790534,-0.049472,0.007066,-0.028825,-0.088947,-0.005459,0.007457,75.0,7.65,-22.125,-30.9,197.1511,-2.0504,2.8679,1.97,19.8463,48.84385,2.352985,480.3461,NaN,0.0,20.748388,,7 / 25,177,2022-01-10 17:27:08:769
-0.599103,0.174377,9.594621,-0.48705,0.28038,9.790534,-0.049472,0.007066,-0.028825,-0.088947,-0.005459,0.007457,75.0,7.65,-22.125,-30.9,197.1511,-2.0504,2.8679,1.97,19.8463,48.84385,2.352985,480.3461,NaN,0.0,20.748388,,7 / 25,182,2022-01-10 17:27:08:774
-0.599103,0.174377,9.594621,-0.48705,0.28038,9.790534,-0.049472,0.007066,-0.028825,-0.088947,-0.005459,0.007457,75.0,7.65,-22.125,-30.9,197.1511,-2.0504,2.8679,1.97,19.8463,48.84385,2.352985,480.3461,NaN,0.0,20.748388,,7 / 25,187,2022-01-10 17:27:08:779
-0.599103,0.174377,9.594621,-0.48705,0.28038,9.790534,-0.049472,0.007066,-0.028825,-0.088947,-0.005459,0.007457,75.0,7.65,-22.125,-30.9,197.1511,-2.0504,2.8679,1.97,19.8463,48.84385,2.352985,480.3461,NaN,0.0,20.748388,,7 / 25,192,2022-01-10 17:27:08:784
-0.599103,0.174377,9.594621,-0.48705,0.28038,9.790534,-0.049472,0.007066,-0.028825,-0.088947,-0.005459,0.007457,75.0,7.65,-22.125,-30.9,197.1511,-2.0504,2.8679,1.97,19.8463,48.84385,2.352985,480.3461,NaN,0.0,20.748388,,7 / 25,196,2022-01-10 17:27:08:788
-0.599103,0.174377,9.594621,-0.48705,0.28038,9.790534,-0.049472,0.007066,-0.028825,-0.088947,-0.005459,0.007457,75.0,7.65,-22.125,-30.9,197.1511,-2.0504,2.8679,1.97,19.8463,48.84385,2.352985,480.3461,NaN,0.0,20.748388,,7 / 25,202,2022-01-10 17:27:08:794
-0.599103,0.174377,9.594621,-0.48705,0.28038,9.790534,-0.049472,0.007066,-0.028825,-0.088947,-0.005459,0.007457,75.0,7.65,-22.125,-30.9,197.1511,-2.0504,2.8679,1.97,19.8463,48.84385,2.352985,480.3461,NaN,0.0,20.748388,,7 / 25,207,2022-01-10 17:27:08:799
-0.599103,0.174377,9.594621,-0.431833,0.260148,9.793683,-0.105494,1.1E-4,-0.069447,-0.088947,-0.005459,0.007457,75.0,7.65,-22.125,-30.9,197.1511,-2.0504,2.8679,1.97,19.8463,48.84385,2.352985,480.3461,NaN,0.0,20.748388,,7 / 25,217,2022-01-10 17:27:08:809
-0.599103,0.174377,9.594621,-0.431833,0.260148,9.793683,-0.105494,1.1E-4,-0.069447,-0.088947,-0.005459,0.007457,75.0,7.65,-22.125,-30.9,197.1511,-2.0504,2.8679,1.97,19.8463,48.84385,2.352985,480.3461,NaN,0.0,20.748388,,7 / 25,219,2022-01-10 17:27:08:811
-0.599103,0.174377,9.594621,-0.431833,0.260148,9.793683,-0.105494,1.1E-4,-0.069447,-0.088947,-0.005459,0.007457,75.0,7.65,-22.125,-30.9,197.1511,-2.0504,2.8679,1.97,19.8463,48.84385,2.352985,480.3461,NaN,0.0,20.748388,,7 / 25,221,2022-01-10 17:27:08:813
-0.599103,0.174377,9.594621,-0.431833,0.260148,9.793683,-0.105494,1.1E-4,-0.069447,-0.088947,-0.005459,0.007457,75.0,7.65,-22.125,-30.9,197.1511,-2.0504,2.8679,1.97,19.8463,48.84385,2.352985,480.3461,NaN,0.0,20.748388,,7 / 25,227,2022-01-10 17:27:08:819
-0.599103,0.174377,9.594621,-0.431833,0.260148,9.793683,-0.105494,1.1E-4,-0.069447,-0.088947,-0.005459,0.007457,75.0,7.65,-22.125,-30.9,197.1511,-2.0504,2.8679,1.97,19.8463,48.84385,2.352985,480.3461,NaN,0.0,20.748388,,7 / 25,232,2022-01-10 17:27:08:824
-0.599103,0.174377,9.594621,-0.431833,0.260148,9.793683,-0.105494,1.1E-4,-0.069447,-0.088947,-0.005459,0.007457,75.0,7.65,-22.125,-30.9,197.1511,-2.0504,2.8679,1.97,19.8463,48.84385,2.352985,480.3461,NaN,0.0,20.748388,,7 / 25,237,2022-01-10 17:27:08:829
-0.788435,0.238983,9.944571,-0.431833,0.260148,9.793683,-0.105494,1.1E-4,-0.069447,0.036751,-0.031158,0.25499,75.0,7.65,-22.125,-30.9,197.1511,-2.0504,2.8679,1.97,19.8463,48.84385,2.352985,480.3461,NaN,0.0,20.748388,,7 / 25,242,2022-01-10 17:27:08:834
-0.788435,0.238983,9.944571,-0.431833,0.260148,9.793683,-0.105494,1.1E-4,-0.069447,0.036751,-0.031158,0.25499,75.0,7.65,-22.125,-30.9,197.1511,-2.0504,2.8679,1.97,19.8463,48.84385,2.352985,480.3461,NaN,0.0,20.748388,,7 / 25,247,2022-01-10 17:27:08:839
-0.788435,0.238983,9.944571,-0.431833,0.260148,9.793683,-0.105494,1.1E-4,-0.069447,0.036751,-0.031158,0.25499,75.0,7.65,-22.125,-30.9,197.1511,-2.0504,2.8679,1.97,19.8463,48.84385,2.352985,480.3461,NaN,0.0,20.748388,,7 / 25,252,2022-01-10 17:27:08:844
-0.788435,0.238983,9.944571,-0.431833,0.260148,9.793683,-0.105494,1.1E-4,-0.069447,0.036751,-0.031158,0.25499,75.0,7.65,-22.125,-30.9,197.1511,-2.0504,2.8679,1.97,19.8463,48.84385,2.352985,480.3461,NaN,0.0,20.748388,,7 / 25,256,2022-01-10 17:27:08:848
-0.788435,0.238983,9.944571,-0.431833,0.260148,9.793683,-0.105494,1.1E-4,-0.069447,0.036751,-0.031158,0.25499,75.0,7.65,-22.125,-30.9,197.1511,-2.0504,2.8679,1.97,19.8463,48.84385,2.352985,480.3461,NaN,0.0,20.748388,,7 / 25,262,2022-01-10 17:27:08:854
-0.788435,0.238983,9.944571,-0.431833,0.260148,9.793683,-0.105494,1.1E-4,-0.069447,0.036751,-0.031158,0.25499,75.0,7.35,-22.05,-31.125,194.8917,-1.5201,2.5247,1.97,19.8463,48.84385,2.352985,480.3461,NaN,0.0,20.748388,,7 / 25,266,2022-01-10 17:27:08:858
-0.788435,0.238983,9.944571,-0.431833,0.260148,9.793683,-0.105494,1.1E-4,-0.069447,0.036751,-0.031158,0.25499,75.0,7.35,-22.05,-31.125,194.8917,-1.5201,2.5247,1.97,19.8463,48.84385,2.352985,480.3461,NaN,0.0,20.748388,,7 / 25,273,2022-01-10 17:27:08:865
-0.788435,0.238983,9.944571,-0.431833,0.260148,9.793683,-0.105494,1.1E-4,-0.069447,0.036751,-0.031158,0.25499,75.0,7.35,-22.05,-31.125,194.8917,-1.5201,2.5247,1.97,19.8463,48.84385,2.352985,480.3461,NaN,0.0,20.748388,,7 / 25,277,2022-01-10 17:27:08:869
-0.788435,0.238983,9.944571,-0.431833,0.260148,9.793683,-0.105494,1.1E-4,-0.069447,0.036751,-0.031158,0.25499,75.0,7.35,-22.05,-31.125,194.8917,-1.5201,2.5247,1.97,19.8463,48.84385,2.352985,480.3461,NaN,0.0,20.748388,,7 / 25,282,2022-01-10 17:27:08:874
-0.788435,0.238983,9.944571,-0.431833,0.260148,9.793683,-0.105494,1.1E-4,-0.069447,0.036751,-0.031158,0.25499,75.0,7.35,-22.05,-31.125,194.8917,-1.5201,2.5247,1.97,19.8463,48.84385,2.352985,480.3461,NaN,0.0,20.748388,,7 / 25,287,2022-01-10 17:27:08:879
-0.788435,0.238983,9.944571,-0.431833,0.260148,9.793683,-0.105494,1.1E-4,-0.069447,0.036751,-0.031158,0.25499,75.0,7.35,-22.05,-31.125,194.8917,-1.5201,2.5247,1.97,19.8463,48.84385,2.352985,480.3461,NaN,0.0,20.748388,,7 / 25,292,2022-01-10 17:27:08:884
-0.788435,0.238983,9.944571,-0.431833,0.260148,9.793683,-0.105494,1.1E-4,-0.069447,0.036751,-0.031158,0.25499,75.0,7.35,-22.05,-31.125,194.8917,-1.5201,2.5247,1.97,19.8463,48.84385,2.352985,480.3461,NaN,0.0,20.748388,,7 / 25,296,2022-01-10 17:27:08:888
-0.788435,0.238983,9.944571,-0.431833,0.260148,9.793683,-0.105494,1.1E-4,-0.069447,0.036751,-0.031158,0.25499,75.0,7.35,-22.05,-31.125,194.8917,-1.5201,2.5247,1.97,19.8463,48.84385,2.352985,480.3461,NaN,0.0,20.748388,,7 / 25,303,2022-01-10 17:27:08:895
-0.788435,0.238983,9.944571,-0.431833,0.260148,9.793683,-0.105494,1.1E-4,-0.069447,0.036751,-0.031158,0.25499,75.0,7.35,-22.05,-31.125,194.8917,-1.5201,2.5247,1.97,19.8463,48.84385,2.352985,480.3461,NaN,0.0,20.748388,,7 / 25,307,2022-01-10 17:27:08:899
-0.788435,0.238983,9.944571,-0.431833,0.260148,9.793683,-0.105494,1.1E-4,-0.069447,0.036751,-0.031158,0.25499,75.0,7.35,-22.05,-31.125,194.8917,-1.5201,2.5247,1.97,19.8463,48.84385,2.352985,480.3461,NaN,0.0,20.748388,,7 / 25,312,2022-01-10 17:27:08:904
-0.788435,0.238983,9.944571,-0.431833,0.260148,9.793683,-0.105494,1.1E-4,-0.069447,0.036751,-0.031158,0.25499,75.0,7.35,-22.05,-31.125,194.8917,-1.5201,2.5247,1.97,19.8463,48.84385,2.352985,480.3461,NaN,0.0,20.748388,,7 / 25,316,2022-01-10 17:27:08:908
-0.788435,0.238983,9.944571,-0.609317,0.45661,9.777045,-0.255747,0.055642,0.182364,0.036751,-0.031158,0.25499,75.0,7.35,-22.05,-31.125,194.8917,-1.5201,2.5247,1.97,19.8463,48.84385,2.352985,480.3461,NaN,0.0,20.748388,,7 / 25,323,2022-01-10 17:27:08:915
-0.788435,0.238983,9.944571,-0.609317,0.45661,9.777045,-0.255747,0.055642,0.182364,0.036751,-0.031158,0.25499,75.0,7.35,-22.05,-31.125,194.8917,-1.5201,2.5247,1.97,19.8463,48.84385,2.352985,480.3461,NaN,0.0,20.748388,,7 / 25,327,2022-01-10 17:27:08:919
-0.788435,0.238983,9.944571,-0.609317,0.45661,9.777045,-0.255747,0.055642,0.182364,0.036751,-0.031158,0.25499,75.0,7.35,-22.05,-31.125,194.8917,-1.5201,2.5247,1.97,19.8463,48.84385,2.352985,480.3461,NaN,0.0,20.748388,,7 / 25,333,2022-01-10 17:27:08:925
-0.788435,0.238983,9.944571,-0.609317,0.45661,9.777045,-0.255747,0.055642,0.182364,0.036751,-0.031158,0.25499,75.0,7.35,-22.05,-31.125,194.8917,-1.5201,2.5247,1.97,19.8463,48.84385,2.352985,480.3461,NaN,0.0,20.748388,,7 / 25,337,2022-01-10 17:27:08:929
-0.788435,0.238983,9.944571,-0.609317,0.45661,9.777045,-0.255747,0.055642,0.182364,0.036751,-0.031158,0.25499,75.0,7.35,-22.05,-31.125,194.8917,-1.5201,2.5247,1.97,19.8463,48.84385,2.352985,480.3461,NaN,0.0,20.748388,,7 / 25,342,2022-01-10 17:27:08:934
-0.788435,0.238983,9.944571,-0.609317,0.45661,9.777045,-0.255747,0.055642,0.182364,0.036751,-0.031158,0.25499,75.0,7.35,-22.05,-31.125,194.8917,-1.5201,2.5247,1.97,19.8463,48.84385,2.352985,480.3461,NaN,0.0,20.748388,,7 / 25,346,2022-01-10 17:27:08:938
-0.788435,0.238983,9.944571,-0.609317,0.45661,9.777045,-0.255747,0.055642,0.182364,0.036751,-0.031158,0.25499,75.0,7.35,-22.05,-31.125,194.8917,-1.5201,2.5247,1.97,19.8463,48.84385,2.352985,480.3461,NaN,0.0,20.748388,,7 / 25,352,2022-01-10 17:27:08:944
-0.88684,0.515653,9.986445,-0.609317,0.45661,9.777045,-0.255747,0.055642,0.182364,0.611577,-0.455121,1.879737,75.0,7.35,-22.05,-31.125,194.8917,-1.5201,2.5247,1.97,19.8463,48.84385,2.352985,480.3461,NaN,0.0,20.748388,,7 / 25,357,2022-01-10 17:27:08:949
-0.88684,0.515653,9.986445,-0.609317,0.45661,9.777045,-0.255747,0.055642,0.182364,0.611577,-0.455121,1.879737,75.0,7.35,-22.05,-31.125,194.8917,-1.5201,2.5247,1.97,19.8463,48.84385,2.352985,480.3461,NaN,0.0,20.748388,,7 / 25,362,2022-01-10 17:27:08:954
-0.88684,0.515653,9.986445,-0.609317,0.45661,9.777045,-0.255747,0.055642,0.182364,0.611577,-0.455121,1.879737,75.0,7.35,-22.05,-31.125,194.8917,-1.5201,2.5247,1.97,19.8463,48.84385,2.352985,480.3461,NaN,0.0,20.748388,,7 / 25,368,2022-01-10 17:27:08:960
-0.88684,0.515653,9.986445,-0.609317,0.45661,9.777045,-0.255747,0.055642,0.182364,0.611577,-0.455121,1.879737,75.0,7.35,-22.05,-31.125,194.8917,-1.5201,2.5247,1.97,19.8463,48.84385,2.352985,480.3461,NaN,0.0,20.748388,,7 / 25,372,2022-01-10 17:27:08:964
-0.88684,0.515653,9.986445,-0.609317,0.45661,9.777045,-0.255747,0.055642,0.182364,0.611577,-0.455121,1.879737,34.0,7.35,-22.05,-31.125,194.8917,-1.5201,2.5247,1.97,21.93489,48.84385,2.352985,480.3461,NaN,0.0,20.748388,,7 / 25,378,2022-01-10 17:27:08:970
-0.88684,0.515653,9.986445,-0.609317,0.45661,9.777045,-0.255747,0.055642,0.182364,0.611577,-0.455121,1.879737,34.0,7.35,-22.05,-31.125,194.8917,-1.5201,2.5247,1.97,21.93489,48.84385,2.352985,480.3461,NaN,0.0,20.748388,,7 / 25,382,2022-01-10 17:27:08:974
-0.88684,0.515653,9.986445,-0.609317,0.45661,9.777045,-0.255747,0.055642,0.182364,0.611577,-0.455121,1.879737,34.0,7.35,-22.05,-31.125,194.8917,-1.5201,2.5247,1.97,21.93489,48.84385,2.352985,480.3461,NaN,0.0,20.748388,,7 / 25,389,2022-01-10 17:27:08:981
-0.88684,0.515653,9.986445,-0.609317,0.45661,9.777045,-0.255747,0.055642,0.182364,0.611577,-0.455121,1.879737,34.0,7.35,-22.05,-31.125,194.8917,-1.5201,2.5247,1.97,21.93489,48.84385,2.352985,480.3461,NaN,0.0,20.748388,,7 / 25,392,2022-01-10 17:27:08:984
-0.88684,0.515653,9.986445,-0.609317,0.45661,9.777045,-0.255747,0.055642,0.182364,0.611577,-0.455121,1.879737,34.0,7.35,-22.05,-31.125,194.8917,-1.5201,2.5247,1.97,21.93489,48.84385,2.352985,480.3461,NaN,0.0,20.748388,,7 / 25,397,2022-01-10 17:27:08:989
-0.88684,0.515653,9.986445,-0.609317,0.45661,9.777045,-0.255747,0.055642,0.182364,0.611577,-0.455121,1.879737,34.0,7.35,-22.05,-31.125,194.8917,-1.5201,2.5247,1.97,21.93489,48.84385,2.352985,480.3461,NaN,0.0,20.748388,,7 / 25,403,2022-01-10 17:27:08:995
-0.88684,0.515653,9.986445,-0.609317,0.45661,9.777045,-0.255747,0.055642,0.182364,0.611577,-0.455121,1.879737,34.0,7.35,-22.05,-31.125,194.8917,-1.5201,2.5247,1.97,21.93489,48.84385,2.352985,480.3461,NaN,0.0,20.748388,,7 / 25,407,2022-01-10 17:27:08:999
-0.88684,0.515653,9.986445,-0.609317,0.45661,9.777045,-0.255747,0.055642,0.182364,0.611577,-0.455121,1.879737,34.0,7.35,-22.05,-31.125,194.8917,-1.5201,2.5247,1.97,21.93489,48.84385,2.352985,480.3461,NaN,0.0,20.748388,,7 / 25,412,2022-01-10 17:27:09:004
-0.88684,0.515653,9.986445,-0.609317,0.45661,9.777045,-0.255747,0.055642,0.182364,0.611577,-0.455121,1.879737,34.0,7.35,-22.05,-31.125,194.8917,-1.5201,2.5247,1.97,21.93489,48.84385,2.352985,480.3461,NaN,0.0,20.748388,,7 / 25,418,2022-01-10 17:27:09:010
-0.88684,0.515653,9.986445,-0.609317,0.45661,9.777045,-0.255747,0.055642,0.182364,0.611577,-0.455121,1.879737,34.0,7.35,-22.05,-31.125,194.8917,-1.5201,2.5247,1.97,21.93489,48.84385,2.352985,480.3461,NaN,0.0,20.748388,,7 / 25,422,2022-01-10 17:27:09:014
-0.88684,0.515653,9.986445,-0.609317,0.45661,9.777045,-0.255747,0.055642,0.182364,0.611577,-0.455121,1.879737,34.0,7.35,-22.05,-31.125,194.8917,-1.5201,2.5247,1.97,21.93489,48.84385,2.352985,480.3461,NaN,0.0,20.748388,,7 / 25,427,2022-01-10 17:27:09:019
-0.88684,0.515653,9.986445,-0.609317,0.45661,9.777045,-0.255747,0.055642,0.182364,0.611577,-0.455121,1.879737,34.0,7.35,-22.05,-31.125,194.8917,-1.5201,2.5247,1.97,21.93489,48.84385,2.352985,480.3461,NaN,0.0,20.748388,,7 / 25,434,2022-01-10 17:27:09:026
-0.88684,0.515653,9.986445,-0.609317,0.45661,9.777045,-0.255747,0.055642,0.182364,0.611577,-0.455121,1.879737,34.0,7.35,-22.05,-31.125,194.8917,-1.5201,2.5247,1.97,21.93489,48.84385,2.352985,480.3461,NaN,0.0,20.748388,,7 / 25,437,2022-01-10 17:27:09:029
-0.88684,0.515653,9.986445,-0.609317,0.45661,9.777045,-0.255747,0.055642,0.182364,0.611577,-0.455121,1.879737,34.0,7.35,-22.05,-31.125,194.8917,-1.5201,2.5247,1.97,21.93489,48.84385,2.352985,480.3461,NaN,0.0,20.748388,,7 / 25,442,2022-01-10 17:27:09:034
-0.88684,0.515653,9.986445,-0.609317,0.45661,9.777045,-0.255747,0.055642,0.182364,0.611577,-0.455121,1.879737,34.0,7.35,-22.05,-31.125,194.8917,-1.5201,2.5247,1.97,21.93489,48.84385,2.352985,480.3461,NaN,0.0,20.748388,,7 / 25,448,2022-01-10 17:27:09:040
-1.130908,0.7002,10.5685,0.01958,1.283497,9.722275,-0.529312,-0.123189,0.23458,0.611577,-0.455121,1.879737,34.0,7.35,-22.05,-31.125,194.8917,-1.5201,2.5247,1.97,21.93489,48.84385,2.352985,480.3461,NaN,0.0,20.748388,,7 / 25,453,2022-01-10 17:27:09:045
-1.130908,0.7002,10.5685,0.01958,1.283497,9.722275,-0.529312,-0.123189,0.23458,0.611577,-0.455121,1.879737,34.0,7.35,-22.05,-31.125,194.8917,-1.5201,2.5247,1.97,21.93489,48.84385,2.352985,480.3461,NaN,0.0,20.748388,,7 / 25,457,2022-01-10 17:27:09:049
-1.130908,0.7002,10.5685,0.01958,1.283497,9.722275,-0.529312,-0.123189,0.23458,0.611577,-0.455121,1.879737,34.0,4.5,-22.5,-30.375,195.7978,-7.5205,-0.1154,1.97,21.93489,48.84385,2.352985,480.3461,NaN,0.0,20.748388,,7 / 25,462,2022-01-10 17:27:09:054
-1.130908,0.7002,10.5685,0.01958,1.283497,9.722275,-0.529312,-0.123189,0.23458,0.611577,-0.455121,1.879737,34.0,4.5,-22.5,-30.375,195.7978,-7.5205,-0.1154,1.97,21.93489,48.84385,2.352985,480.3461,NaN,0.0,20.748388,,7 / 25,467,2022-01-10 17:27:09:059
-1.130908,0.7002,10.5685,0.01958,1.283497,9.722275,-0.529312,-0.123189,0.23458,0.611577,-0.455121,1.879737,34.0,4.5,-22.5,-30.375,195.7978,-7.5205,-0.1154,1.97,21.93489,48.84385,2.352985,480.3461,NaN,0.0,20.748388,,7 / 25,472,2022-01-10 17:27:09:064
-1.130908,0.7002,10.5685,0.01958,1.283497,9.722275,-0.529312,-0.123189,0.23458,0.611577,-0.455121,1.879737,34.0,4.5,-22.5,-30.375,195.7978,-7.5205,-0.1154,1.97,21.93489,48.84385,2.352985,480.3461,NaN,0.0,20.748388,,7 / 25,478,2022-01-10 17:27:09:070
-1.130908,0.7002,10.5685,0.01958,1.283497,9.722275,-0.529312,-0.123189,0.23458,0.611577,-0.455121,1.879737,34.0,4.5,-22.5,-30.375,195.7978,-7.5205,-0.1154,1.97,21.93489,48.84385,2.352985,480.3461,NaN,0.0,20.748388,,7 / 25,482,2022-01-10 17:27:09:074
-1.130908,0.7002,10.5685,0.01958,1.283497,9.722275,-0.529312,-0.123189,0.23458,0.611577,-0.455121,1.879737,34.0,4.5,-22.5,-30.375,195.7978,-7.5205,-0.1154,1.97,21.93489,48.84385,2.352985,480.3461,NaN,0.0,20.748388,,7 / 25,487,2022-01-10 17:27:09:079
-1.130908,0.7002,10.5685,0.01958,1.283497,9.722275,-0.529312,-0.123189,0.23458,0.803985,-0.257786,4.038299,34.0,4.5,-22.5,-30.375,195.7978,-7.5205,-0.1154,1.97,21.93489,48.84385,2.352985,480.3461,NaN,0.0,20.748388,,7 / 25,493,2022-01-10 17:27:09:085
-1.130908,0.7002,10.5685,0.01958,1.283497,9.722275,-0.529312,-0.123189,0.23458,0.803985,-0.257786,4.038299,34.0,4.5,-22.5,-30.375,195.7978,-7.5205,-0.1154,1.97,21.93489,48.84385,2.352985,480.3461,NaN,0.0,20.748388,,7 / 25,497,2022-01-10 17:27:09:089
-1.130908,0.7002,10.5685,0.01958,1.283497,9.722275,-0.529312,-0.123189,0.23458,0.803985,-0.257786,4.038299,34.0,4.5,-22.5,-30.375,195.7978,-7.5205,-0.1154,1.97,21.93489,48.84385,2.352985,480.3461,NaN,0.0,20.748388,,7 / 25,503,2022-01-10 17:27:09:095
-1.130908,0.7002,10.5685,0.01958,1.283497,9.722275,-0.529312,-0.123189,0.23458,0.803985,-0.257786,4.038299,34.0,4.5,-22.5,-30.375,195.7978,-7.5205,-0.1154,1.97,21.93489,48.84385,2.352985,480.3461,NaN,0.0,20.748388,,7 / 25,539,2022-01-10 17:27:09:131
-1.130908,0.7002,10.5685,0.01958,1.283497,9.722275,-0.529312,-0.123189,0.23458,0.803985,-0.257786,4.038299,34.0,4.5,-22.5,-30.375,195.7978,-7.5205,-0.1154,1.97,21.93489,48.84385,2.352985,480.3461,NaN,0.0,20.748388,,7 / 25,540,2022-01-10 17:27:09:132
-1.130908,0.7002,10.5685,0.01958,1.283497,9.722275,-0.529312,-0.123189,0.23458,0.803985,-0.257786,4.038299,34.0,4.5,-22.5,-30.375,195.7978,-7.5205,-0.1154,1.97,21.93489,48.84385,2.352985,480.3461,NaN,0.0,20.748388,,7 / 25,540,2022-01-10 17:27:09:132
-1.130908,0.7002,10.5685,0.01958,1.283497,9.722275,-0.529312,-0.123189,0.23458,0.803985,-0.257786,4.038299,34.0,4.5,-22.5,-30.375,195.7978,-7.5205,-0.1154,1.97,21.93489,48.84385,2.352985,480.3461,NaN,0.0,20.748388,,7 / 25,540,2022-01-10 17:27:09:132
-1.130908,0.7002,10.5685,0.01958,1.283497,9.722275,-0.529312,-0.123189,0.23458,0.803985,-0.257786,4.038299,34.0,4.5,-22.5,-30.375,195.7978,-7.5205,-0.1154,1.97,21.93489,48.84385,2.352985,480.3461,NaN,0.0,20.748388,,7 / 25,540,2022-01-10 17:27:09:132
-1.130908,0.7002,10.5685,0.01958,1.283497,9.722275,-0.529312,-0.123189,0.23458,0.803985,-0.257786,4.038299,34.0,4.5,-22.5,-30.375,195.7978,-7.5205,-0.1154,1.97,21.93489,48.84385,2.352985,480.3461,NaN,0.0,20.748388,,7 / 25,540,2022-01-10 17:27:09:132
-1.130908,0.7002,10.5685,0.01958,1.283497,9.722275,-0.529312,-0.123189,0.23458,0.803985,-0.257786,4.038299,34.0,4.5,-22.5,-30.375,195.7978,-7.5205,-0.1154,1.97,21.93489,48.84385,2.352985,480.3461,NaN,0.0,20.748388,,7 / 25,540,2022-01-10 17:27:09:132
1.552045,-0.792323,9.45464,0.01958,1.283497,9.722275,-0.529312,-0.123189,0.23458,0.803985,-0.257786,4.038299,34.0,4.5,-22.5,-30.375,195.7978,-7.5205,-0.1154,1.97,21.93489,48.84385,2.352985,480.3461,NaN,0.0,20.748388,,7 / 25,542,2022-01-10 17:27:09:134
1.552045,-0.792323,9.45464,0.01958,1.283497,9.722275,-0.529312,-0.123189,0.23458,0.803985,-0.257786,4.038299,34.0,4.5,-22.5,-30.375,195.7978,-7.5205,-0.1154,1.97,21.93489,48.84385,2.352985,480.3461,NaN,0.0,20.748388,,7 / 25,547,2022-01-10 17:27:09:139
1.552045,-0.792323,9.45464,0.01958,1.283497,9.722275,-0.529312,-0.123189,0.23458,0.803985,-0.257786,4.038299,34.0,4.5,-22.5,-30.375,195.7978,-7.5205,-0.1154,1.97,21.93489,48.84385,2.352985,480.3461,NaN,0.0,20.748388,,7 / 25,552,2022-01-10 17:27:09:144
1.552045,-0.792323,9.45464,0.01958,1.283497,9.722275,-0.529312,-0.123189,0.23458,0.803985,-0.257786,4.038299,34.0,4.5,-22.5,-30.375,195.7978,-7.5205,-0.1154,1.97,21.93489,48.84385,2.352985,480.3461,NaN,0.0,20.748388,,7 / 25,557,2022-01-10 17:27:09:149
1.552045,-0.792323,9.45464,0.90039,1.906362,9.577341,-0.263005,-1.82797,0.816514,0.803985,-0.257786,4.038299,34.0,4.5,-22.5,-30.375,195.7978,-7.5205,-0.1154,1.97,21.93489,48.84385,2.352985,480.3461,NaN,0.0,20.748388,,7 / 25,562,2022-01-10 17:27:09:154
1.552045,-0.792323,9.45464,0.90039,1.906362,9.577341,-0.263005,-1.82797,0.816514,0.803985,-0.257786,4.038299,34.0,4.5,-22.5,-30.375,195.7978,-7.5205,-0.1154,1.97,21.93489,48.84385,2.352985,480.3461,NaN,0.0,20.748388,,7 / 25,566,2022-01-10 17:27:09:158
1.552045,-0.792323,9.45464,0.90039,1.906362,9.577341,-0.263005,-1.82797,0.816514,0.803985,-0.257786,4.038299,34.0,4.5,-22.5,-30.375,195.7978,-7.5205,-0.1154,1.97,21.93489,48.84385,2.352985,480.3461,NaN,0.0,20.748388,,7 / 25,572,2022-01-10 17:27:09:164
1.552045,-0.792323,9.45464,0.90039,1.906362,9.577341,-0.263005,-1.82797,0.816514,0.803985,-0.257786,4.038299,34.0,4.5,-22.5,-30.375,195.7978,-7.5205,-0.1154,1.97,21.93489,48.84385,2.352985,480.3461,NaN,0.0,20.748388,,7 / 25,577,2022-01-10 17:27:09:169
1.552045,-0.792323,9.45464,0.90039,1.906362,9.577341,-0.263005,-1.82797,0.816514,0.803985,-0.257786,4.038299,34.0,4.5,-22.5,-30.375,195.7978,-7.5205,-0.1154,1.97,21.93489,48.84385,2.352985,480.3461,NaN,0.0,20.748388,,7 / 25,582,2022-01-10 17:27:09:174
1.552045,-0.792323,9.45464,0.90039,1.906362,9.577341,-0.263005,-1.82797,0.816514,0.803985,-0.257786,4.038299,34.0,4.5,-22.5,-30.375,195.7978,-7.5205,-0.1154,1.97,21.93489,48.84385,2.352985,480.3461,NaN,0.0,20.748388,,7 / 25,586,2022-01-10 17:27:09:178
1.552045,-0.792323,9.45464,0.90039,1.906362,9.577341,-0.263005,-1.82797,0.816514,0.803985,-0.257786,4.038299,34.0,4.5,-22.5,-30.375,195.7978,-7.5205,-0.1154,1.97,21.93489,48.84385,2.352985,480.3461,NaN,0.0,20.748388,,7 / 25,592,2022-01-10 17:27:09:184
1.552045,-0.792323,9.45464,0.90039,1.906362,9.577341,-0.263005,-1.82797,0.816514,0.803985,-0.257786,4.038299,34.0,4.5,-22.5,-30.375,195.7978,-7.5205,-0.1154,1.97,21.93489,48.84385,2.352985,480.3461,NaN,0.0,20.748388,,7 / 25,597,2022-01-10 17:27:09:189
1.552045,-0.792323,9.45464,0.90039,1.906362,9.577341,-0.263005,-1.82797,0.816514,0.803985,-0.257786,4.038299,34.0,4.5,-22.5,-30.375,195.7978,-7.5205,-0.1154,1.97,21.93489,48.84385,2.352985,480.3461,NaN,0.0,20.748388,,7 / 25,602,2022-01-10 17:27:09:194
1.552045,-0.792323,9.45464,0.90039,1.906362,9.577341,-0.263005,-1.82797,0.816514,0.803985,-0.257786,4.038299,26.0,4.5,-22.5,-30.375,195.7978,-7.5205,-0.1154,1.97,21.93489,48.84385,2.352985,480.3461,NaN,0.0,20.748388,,7 / 25,606,2022-01-10 17:27:09:198
1.552045,-0.792323,9.45464,0.90039,1.906362,9.577341,-0.263005,-1.82797,0.816514,0.803985,-0.257786,4.038299,26.0,4.5,-22.5,-30.375,195.7978,-7.5205,-0.1154,1.97,21.93489,48.84385,2.352985,480.3461,NaN,0.0,20.748388,,7 / 25,612,2022-01-10 17:27:09:204
1.552045,-0.792323,9.45464,0.90039,1.906362,9.577341,-0.263005,-1.82797,0.816514,0.803985,-0.257786,4.038299,26.0,4.5,-22.5,-30.375,195.7978,-7.5205,-0.1154,1.97,21.93489,48.84385,2.352985,480.3461,NaN,0.0,20.748388,,7 / 25,616,2022-01-10 17:27:09:208
1.552045,-0.792323,9.45464,0.90039,1.906362,9.577341,-0.263005,-1.82797,0.816514,0.803985,-0.257786,4.038299,26.0,4.5,-22.5,-30.375,195.7978,-7.5205,-0.1154,1.97,21.93489,48.84385,2.352985,480.3461,NaN,0.0,20.748388,,7 / 25,621,2022-01-10 17:27:09:213
0.244068,-0.550349,9.588638,0.90039,1.906362,9.577341,-0.263005,-1.82797,0.816514,-0.291874,1.084008,5.465578,26.0,4.5,-22.5,-30.375,195.7978,-7.5205,-0.1154,1.97,21.93489,48.84385,2.352985,480.3461,NaN,0.0,20.748388,,7 / 25,628,2022-01-10 17:27:09:220
0.244068,-0.550349,9.588638,0.90039,1.906362,9.577341,-0.263005,-1.82797,0.816514,-0.291874,1.084008,5.465578,26.0,4.5,-22.5,-30.375,195.7978,-7.5205,-0.1154,1.97,21.93489,48.84385,2.352985,480.3461,NaN,0.0,20.748388,,7 / 25,631,2022-01-10 17:27:09:223
0.244068,-0.550349,9.588638,0.90039,1.906362,9.577341,-0.263005,-1.82797,0.816514,-0.291874,1.084008,5.465578,26.0,4.5,-22.5,-30.375,195.7978,-7.5205,-0.1154,1.97,21.93489,48.84385,2.352985,480.3461,NaN,0.0,20.748388,,7 / 25,637,2022-01-10 17:27:09:229
0.244068,-0.550349,9.588638,0.90039,1.906362,9.577341,-0.263005,-1.82797,0.816514,-0.291874,1.084008,5.465578,26.0,4.5,-22.5,-30.375,195.7978,-7.5205,-0.1154,1.97,21.93489,48.84385,2.352985,480.3461,NaN,0.0,20.748388,,7 / 25,641,2022-01-10 17:27:09:233
0.244068,-0.550349,9.588638,0.90039,1.906362,9.577341,-0.263005,-1.82797,0.816514,-0.291874,1.084008,5.465578,26.0,4.5,-22.5,-30.375,195.7978,-7.5205,-0.1154,1.97,21.93489,48.84385,2.352985,480.3461,NaN,0.0,20.748388,,7 / 25,647,2022-01-10 17:27:09:239
0.244068,-0.550349,9.588638,0.90039,1.906362,9.577341,-0.263005,-1.82797,0.816514,-0.291874,1.084008,5.465578,26.0,4.5,-22.5,-30.375,195.7978,-7.5205,-0.1154,1.97,21.93489,48.84385,2.352985,480.3461,NaN,0.0,20.748388,,7 / 25,651,2022-01-10 17:27:09:243
0.244068,-0.550349,9.588638,0.90039,1.906362,9.577341,-0.263005,-1.82797,0.816514,-0.291874,1.084008,5.465578,26.0,4.5,-22.5,-30.375,195.7978,-7.5205,-0.1154,1.97,21.93489,48.84385,2.352985,480.3461,NaN,0.0,20.748388,,7 / 25,657,2022-01-10 17:27:09:249
0.244068,-0.550349,9.588638,0.90039,1.906362,9.577341,-0.263005,-1.82797,0.816514,-0.291874,1.084008,5.465578,26.0,-4.425,-22.125,-28.875,175.4388,-11.2094,-5.3707,1.97,21.93489,48.84385,2.352985,480.3461,NaN,0.0,20.748388,,7 / 25,662,2022-01-10 17:27:09:254
0.244068,-0.550349,9.588638,0.90039,1.906362,9.577341,-0.263005,-1.82797,0.816514,-0.291874,1.084008,5.465578,26.0,-4.425,-22.125,-28.875,175.4388,-11.2094,-5.3707,1.97,21.93489,48.84385,2.352985,480.3461,NaN,0.0,20.748388,,7 / 25,666,2022-01-10 17:27:09:258
0.244068,-0.550349,9.588638,0.90039,1.906362,9.577341,-0.263005,-1.82797,0.816514,-0.291874,1.084008,5.465578,26.0,-4.425,-22.125,-28.875,175.4388,-11.2094,-5.3707,1.97,21.93489,48.84385,2.352985,480.3461,NaN,0.0,20.748388,,7 / 25,672,2022-01-10 17:27:09:264
0.244068,-0.550349,9.588638,0.90039,1.906362,9.577341,-0.263005,-1.82797,0.816514,-0.291874,1.084008,5.465578,26.0,-4.425,-22.125,-28.875,175.4388,-11.2094,-5.3707,1.97,32.26425,48.84385,2.352985,480.3461,NaN,0.0,20.748388,,7 / 25,677,2022-01-10 17:27:09:269
0.244068,-0.550349,9.588638,0.90039,1.906362,9.577341,-0.263005,-1.82797,0.816514,-0.291874,1.084008,5.465578,26.0,-4.425,-22.125,-28.875,175.4388,-11.2094,-5.3707,1.97,32.26425,48.84385,2.352985,480.3461,NaN,0.0,20.748388,,7 / 25,681,2022-01-10 17:27:09:273
0.244068,-0.550349,9.588638,0.641493,0.654439,9.763739,0.424206,-0.24162,-0.003692,-0.291874,1.084008,5.465578,26.0,-4.425,-22.125,-28.875,175.4388,-11.2094,-5.3707,1.97,32.26425,48.84385,2.352985,480.3461,NaN,0.0,20.748388,,7 / 25,686,2022-01-10 17:27:09:278
0.244068,-0.550349,9.588638,0.641493,0.654439,9.763739,0.424206,-0.24162,-0.003692,-0.291874,1.084008,5.465578,26.0,-4.425,-22.125,-28.875,175.4388,-11.2094,-5.3707,1.97,32.26425,48.84385,2.352985,480.3461,NaN,0.0,20.748388,,7 / 25,692,2022-01-10 17:27:09:284
0.244068,-0.550349,9.588638,0.641493,0.654439,9.763739,0.424206,-0.24162,-0.003692,-0.291874,1.084008,5.465578,26.0,-4.425,-22.125,-28.875,175.4388,-11.2094,-5.3707,1.97,32.26425,48.84385,2.352985,480.3461,NaN,0.0,20.748388,,7 / 25,696,2022-01-10 17:27:09:288
0.244068,-0.550349,9.588638,0.641493,0.654439,9.763739,0.424206,-0.24162,-0.003692,-0.291874,1.084008,5.465578,26.0,-4.425,-22.125,-28.875,175.4388,-11.2094,-5.3707,1.97,32.26425,48.84385,2.352985,480.3461,NaN,0.0,20.748388,,7 / 25,702,2022-01-10 17:27:09:294
0.244068,-0.550349,9.588638,0.641493,0.654439,9.763739,0.424206,-0.24162,-0.003692,-0.291874,1.084008,5.465578,26.0,-4.425,-22.125,-28.875,175.4388,-11.2094,-5.3707,1.97,32.26425,48.84385,2.352985,480.3461,NaN,0.0,20.748388,,7 / 25,707,2022-01-10 17:27:09:299
0.244068,-0.550349,9.588638,0.641493,0.654439,9.763739,0.424206,-0.24162,-0.003692,-0.291874,1.084008,5.465578,26.0,-4.425,-22.125,-28.875,175.4388,-11.2094,-5.3707,1.97,32.26425,48.84385,2.352985,480.3461,NaN,0.0,20.748388,,7 / 25,711,2022-01-10 17:27:09:303
0.244068,-0.550349,9.588638,0.641493,0.654439,9.763739,0.424206,-0.24162,-0.003692,-0.291874,1.084008,5.465578,26.0,-4.425,-22.125,-28.875,175.4388,-11.2094,-5.3707,1.97,32.26425,48.84385,2.352985,480.3461,NaN,0.0,20.748388,,7 / 25,717,2022-01-10 17:27:09:309
0.244068,-0.550349,9.588638,0.641493,0.654439,9.763739,0.424206,-0.24162,-0.003692,-0.291874,1.084008,5.465578,26.0,-4.425,-22.125,-28.875,175.4388,-11.2094,-5.3707,1.97,32.26425,48.84385,2.352985,480.3461,NaN,0.0,20.748388,,7 / 25,721,2022-01-10 17:27:09:313
0.830908,-0.977767,8.59472,0.641493,0.654439,9.763739,0.424206,-0.24162,-0.003692,-0.291874,1.084008,5.465578,26.0,-4.425,-22.125,-28.875,175.4388,-11.2094,-5.3707,1.97,32.26425,48.84385,2.352985,480.3461,NaN,0.0,20.748388,,7 / 25,727,2022-01-10 17:27:09:319
0.830908,-0.977767,8.59472,0.641493,0.654439,9.763739,0.424206,-0.24162,-0.003692,-0.291874,1.084008,5.465578,26.0,-4.425,-22.125,-28.875,175.4388,-11.2094,-5.3707,1.97,32.26425,48.84385,2.352985,480.3461,NaN,0.0,20.748388,,7 / 25,731,2022-01-10 17:27:09:323
0.830908,-0.977767,8.59472,0.641493,0.654439,9.763739,0.424206,-0.24162,-0.003692,-0.291874,1.084008,5.465578,26.0,-4.425,-22.125,-28.875,175.4388,-11.2094,-5.3707,1.97,32.26425,48.84385,2.352985,480.3461,NaN,0.0,20.748388,,7 / 25,737,2022-01-10 17:27:09:329
0.830908,-0.977767,8.59472,0.641493,0.654439,9.763739,0.424206,-0.24162,-0.003692,-0.291874,1.084008,5.465578,26.0,-4.425,-22.125,-28.875,175.4388,-11.2094,-5.3707,1.97,32.26425,48.84385,2.352985,480.3461,NaN,0.0,20.748388,,7 / 25,743,2022-01-10 17:27:09:335
0.830908,-0.977767,8.59472,0.641493,0.654439,9.763739,0.424206,-0.24162,-0.003692,-0.291874,1.084008,5.465578,26.0,-4.425,-22.125,-28.875,175.4388,-11.2094,-5.3707,1.97,32.26425,48.84385,2.352985,480.3461,NaN,0.0,20.748388,,7 / 25,747,2022-01-10 17:27:09:339
0.830908,-0.977767,8.59472,0.641493,0.654439,9.763739,0.424206,-0.24162,-0.003692,-0.291874,1.084008,5.465578,26.0,-4.425,-22.125,-28.875,175.4388,-11.2094,-5.3707,1.97,32.26425,48.84385,2.352985,480.3461,NaN,0.0,20.748388,,7 / 25,753,2022-01-10 17:27:09:345
0.830908,-0.977767,8.59472,0.641493,0.654439,9.763739,0.424206,-0.24162,-0.003692,-0.028894,-1.453643,5.494472,26.0,-11.85,-16.65,-28.575,175.4388,-11.2094,-5.3707,1.97,32.26425,48.84385,2.352985,480.3461,NaN,0.0,20.748388,,7 / 25,763,2022-01-10 17:27:09:355
0.830908,-0.977767,8.59472,0.641493,0.654439,9.763739,0.424206,-0.24162,-0.003692,-0.028894,-1.453643,5.494472,26.0,-11.85,-16.65,-28.575,175.4388,-11.2094,-5.3707,1.97,32.26425,48.84385,2.352985,480.3461,NaN,0.0,20.748388,,7 / 25,765,2022-01-10 17:27:09:357
0.830908,-0.977767,8.59472,0.641493,0.654439,9.763739,0.424206,-0.24162,-0.003692,-0.028894,-1.453643,5.494472,26.0,-11.85,-16.65,-28.575,175.4388,-11.2094,-5.3707,1.97,32.26425,48.84385,2.352985,480.3461,NaN,0.0,20.748388,,7 / 25,767,2022-01-10 17:27:09:359
0.830908,-0.977767,8.59472,0.641493,0.654439,9.763739,0.424206,-0.24162,-0.003692,-0.028894,-1.453643,5.494472,26.0,-11.85,-16.65,-28.575,175.4388,-11.2094,-5.3707,1.97,32.26425,48.84385,2.352985,480.3461,NaN,0.0,20.748388,,7 / 25,772,2022-01-10 17:27:09:364
0.830908,-0.977767,8.59472,0.641493,0.654439,9.763739,0.424206,-0.24162,-0.003692,-0.028894,-1.453643,5.494472,26.0,-11.85,-16.65,-28.575,175.4388,-11.2094,-5.3707,1.97,32.26425,48.84385,2.352985,480.3461,NaN,0.0,20.748388,,7 / 25,777,2022-01-10 17:27:09:369
0.830908,-0.977767,8.59472,0.641493,0.654439,9.763739,0.424206,-0.24162,-0.003692,-0.028894,-1.453643,5.494472,26.0,-11.85,-16.65,-28.575,175.4388,-11.2094,-5.3707,1.97,32.26425,48.84385,2.352985,480.3461,NaN,0.0,20.748388,,7 / 25,782,2022-01-10 17:27:09:374
0.830908,-0.977767,8.59472,0.641493,0.654439,9.763739,0.424206,-0.24162,-0.003692,-0.028894,-1.453643,5.494472,19.0,-11.85,-16.65,-28.575,175.4388,-11.2094,-5.3707,1.97,32.26425,48.84385,2.352985,480.3461,NaN,0.0,20.748388,,7 / 25,786,2022-01-10 17:27:09:378
0.830908,-0.977767,8.59472,0.641493,0.654439,9.763739,0.424206,-0.24162,-0.003692,-0.028894,-1.453643,5.494472,19.0,-11.85,-16.65,-28.575,175.4388,-11.2094,-5.3707,1.97,32.26425,48.84385,2.352985,480.3461,NaN,0.0,20.748388,,6 / 25,792,2022-01-10 17:27:09:384
0.830908,-0.977767,8.59472,0.641493,0.654439,9.763739,0.424206,-0.24162,-0.003692,-0.028894,-1.453643,5.494472,19.0,-11.85,-16.65,-28.575,175.4388,-11.2094,-5.3707,1.97,32.26425,48.84385,2.352985,480.3461,NaN,0.0,20.748388,,6 / 25,798,2022-01-10 17:27:09:390
0.830908,-0.977767,8.59472,0.641493,0.654439,9.763739,0.424206,-0.24162,-0.003692,-0.028894,-1.453643,5.494472,19.0,-11.85,-16.65,-28.575,175.4388,-11.2094,-5.3707,1.97,32.26425,48.84385,2.352985,480.3461,NaN,0.0,20.748388,,6 / 25,802,2022-01-10 17:27:09:394
0.830908,-0.977767,8.59472,2.082457,-0.150981,9.581804,-2.066191,-0.2744,-0.564218,-0.028894,-1.453643,5.494472,19.0,-11.85,-16.65,-28.575,175.4388,-11.2094,-5.3707,1.97,32.26425,48.84384,2.3529935,474.3221,NaN,0.0,31.122583,,6 / 25,807,2022-01-10 17:27:09:399
0.830908,-0.977767,8.59472,2.082457,-0.150981,9.581804,-2.066191,-0.2744,-0.564218,-0.028894,-1.453643,5.494472,19.0,-11.85,-16.65,-28.575,175.4388,-11.2094,-5.3707,1.97,32.26425,48.84384,2.3529935,474.3221,NaN,0.0,31.122583,,6 / 25,812,2022-01-10 17:27:09:404
0.830908,-0.977767,8.59472,2.082457,-0.150981,9.581804,-2.066191,-0.2744,-0.564218,-0.028894,-1.453643,5.494472,19.0,-11.85,-16.65,-28.575,175.4388,-11.2094,-5.3707,1.97,32.26425,48.84384,2.3529935,474.3221,NaN,0.0,31.122583,,6 / 25,817,2022-01-10 17:27:09:409
0.830908,-0.977767,8.59472,2.082457,-0.150981,9.581804,-2.066191,-0.2744,-0.564218,-0.028894,-1.453643,5.494472,19.0,-11.85,-16.65,-28.575,175.4388,-11.2094,-5.3707,1.97,32.26425,48.84384,2.3529935,474.3221,NaN,0.0,31.122583,,6 / 25,822,2022-01-10 17:27:09:414
0.830908,-0.977767,8.59472,2.082457,-0.150981,9.581804,-2.066191,-0.2744,-0.564218,-0.028894,-1.453643,5.494472,19.0,-11.85,-16.65,-28.575,175.4388,-11.2094,-5.3707,1.97,32.26425,48.84384,2.3529935,474.3221,NaN,0.0,31.122583,,6 / 25,827,2022-01-10 17:27:09:419
0.830908,-0.977767,8.59472,2.082457,-0.150981,9.581804,-2.066191,-0.2744,-0.564218,-0.028894,-1.453643,5.494472,19.0,-11.85,-16.65,-28.575,175.4388,-11.2094,-5.3707,1.97,32.26425,48.84384,2.3529935,474.3221,NaN,0.0,31.122583,,6 / 25,832,2022-01-10 17:27:09:424
0.974477,-1.058226,9.043674,2.082457,-0.150981,9.581804,-2.066191,-0.2744,-0.564218,-0.028894,-1.453643,5.494472,19.0,-11.85,-16.65,-28.575,175.4388,-11.2094,-5.3707,1.97,32.26425,48.84384,2.3529935,474.3221,NaN,0.0,31.122583,,6 / 25,837,2022-01-10 17:27:09:429
0.974477,-1.058226,9.043674,2.082457,-0.150981,9.581804,-2.066191,-0.2744,-0.564218,-0.028894,-1.453643,5.494472,19.0,-11.85,-16.65,-28.575,175.4388,-11.2094,-5.3707,1.97,32.26425,48.84384,2.3529935,474.3221,NaN,0.0,31.122583,,6 / 25,842,2022-01-10 17:27:09:434
0.974477,-1.058226,9.043674,2.082457,-0.150981,9.581804,-2.066191,-0.2744,-0.564218,-0.028894,-1.453643,5.494472,19.0,-11.85,-16.65,-28.575,175.4388,-11.2094,-5.3707,1.97,32.26425,48.84384,2.3529935,474.3221,NaN,0.0,31.122583,,6 / 25,847,2022-01-10 17:27:09:439
0.974477,-1.058226,9.043674,2.082457,-0.150981,9.581804,-2.066191,-0.2744,-0.564218,-0.028894,-1.453643,5.494472,19.0,-11.85,-16.65,-28.575,175.4388,-11.2094,-5.3707,1.97,32.26425,48.84384,2.3529935,474.3221,NaN,0.0,31.122583,,6 / 25,852,2022-01-10 17:27:09:444
0.974477,-1.058226,9.043674,2.082457,-0.150981,9.581804,-2.066191,-0.2744,-0.564218,-0.028894,-1.453643,5.494472,19.0,-11.85,-16.65,-28.575,175.4388,-11.2094,-5.3707,1.97,32.26425,48.84384,2.3529935,474.3221,NaN,0.0,31.122583,,6 / 25,857,2022-01-10 17:27:09:449
0.974477,-1.058226,9.043674,2.082457,-0.150981,9.581804,-2.066191,-0.2744,-0.564218,-0.028894,-1.453643,5.494472,19.0,-11.85,-16.65,-28.575,175.4388,-11.2094,-5.3707,1.97,32.26425,48.84384,2.3529935,474.3221,NaN,0.0,31.122583,,6 / 25,862,2022-01-10 17:27:09:454
0.974477,-1.058226,9.043674,2.082457,-0.150981,9.581804,-2.066191,-0.2744,-0.564218,-0.028894,-1.453643,5.494472,19.0,-11.85,-16.65,-28.575,175.4388,-11.2094,-5.3707,1.97,32.26425,48.84384,2.3529935,474.3221,NaN,0.0,31.122583,,6 / 25,867,2022-01-10 17:27:09:459
0.974477,-1.058226,9.043674,2.082457,-0.150981,9.581804,-2.066191,-0.2744,-0.564218,-0.028894,-1.453643,5.494472,19.0,-11.85,-16.65,-28.575,175.4388,-11.2094,-5.3707,1.97,32.26425,48.84384,2.3529935,474.3221,NaN,0.0,31.122583,,6 / 25,873,2022-01-10 17:27:09:465
0.974477,-1.058226,9.043674,2.082457,-0.150981,9.581804,-2.066191,-0.2744,-0.564218,-0.028894,-1.453643,5.494472,19.0,-11.85,-16.65,-28.575,175.4388,-11.2094,-5.3707,1.97,32.26425,48.84384,2.3529935,474.3221,NaN,0.0,31.122583,,6 / 25,877,2022-01-10 17:27:09:469
0.974477,-1.058226,9.043674,2.082457,-0.150981,9.581804,-2.066191,-0.2744,-0.564218,-0.028894,-1.453643,5.494472,19.0,-11.85,-16.65,-28.575,175.4388,-11.2094,-5.3707,1.97,32.26425,48.84384,2.3529935,474.3221,NaN,0.0,31.122583,,6 / 25,882,2022-01-10 17:27:09:474
0.974477,-1.058226,9.043674,2.082457,-0.150981,9.581804,-2.066191,-0.2744,-0.564218,-0.055792,1.101584,6.215102,19.0,-11.85,-16.65,-28.575,175.4388,-11.2094,-5.3707,1.97,32.26425,48.84384,2.3529935,474.3221,NaN,0.0,31.122583,,6 / 25,888,2022-01-10 17:27:09:480
0.974477,-1.058226,9.043674,2.082457,-0.150981,9.581804,-2.066191,-0.2744,-0.564218,-0.055792,1.101584,6.215102,19.0,-11.85,-16.65,-28.575,175.4388,-11.2094,-5.3707,1.97,32.26425,48.84384,2.3529935,474.3221,NaN,0.0,31.122583,,6 / 25,892,2022-01-10 17:27:09:484
0.974477,-1.058226,9.043674,2.082457,-0.150981,9.581804,-2.066191,-0.2744,-0.564218,-0.055792,1.101584,6.215102,19.0,-11.85,-16.65,-28.575,175.4388,-11.2094,-5.3707,1.97,32.26425,48.84384,2.3529935,474.3221,NaN,0.0,31.122583,,6 / 25,897,2022-01-10 17:27:09:489
0.974477,-1.058226,9.043674,2.082457,-0.150981,9.581804,-2.066191,-0.2744,-0.564218,-0.055792,1.101584,6.215102,19.0,-11.85,-16.65,-28.575,175.4388,-11.2094,-5.3707,1.97,32.26425,48.84384,2.3529935,474.3221,NaN,0.0,31.122583,,6 / 25,902,2022-01-10 17:27:09:494
0.974477,-1.058226,9.043674,2.082457,-0.150981,9.581804,-2.066191,-0.2744,-0.564218,-0.055792,1.101584,6.215102,19.0,-11.85,-16.65,-28.575,175.4388,-11.2094,-5.3707,1.97,32.26425,48.84384,2.3529935,474.3221,NaN,0.0,31.122583,,6 / 25,908,2022-01-10 17:27:09:500
0.974477,-1.058226,9.043674,2.082457,-0.150981,9.581804,-2.066191,-0.2744,-0.564218,-0.055792,1.101584,6.215102,19.0,-17.475,-6.675,-28.05,125.0282,0.8822,-12.2617,1.97,32.26425,48.84384,2.3529935,474.3221,NaN,0.0,31.122583,,6 / 25,913,2022-01-10 17:27:09:505
0.974477,-1.058226,9.043674,2.082457,-0.150981,9.581804,-2.066191,-0.2744,-0.564218,-0.055792,1.101584,6.215102,19.0,-17.475,-6.675,-28.05,125.0282,0.8822,-12.2617,1.97,32.26425,48.84384,2.3529935,474.3221,NaN,0.0,31.122583,,6 / 25,917,2022-01-10 17:27:09:509
0.974477,-1.058226,9.043674,2.082457,-0.150981,9.581804,-2.066191,-0.2744,-0.564218,-0.055792,1.101584,6.215102,19.0,-17.475,-6.675,-28.05,125.0282,0.8822,-12.2617,1.97,32.26425,48.84384,2.3529935,474.3221,NaN,0.0,31.122583,,6 / 25,922,2022-01-10 17:27:09:514
0.974477,-1.058226,9.043674,2.082457,-0.150981,9.581804,-2.066191,-0.2744,-0.564218,-0.055792,1.101584,6.215102,19.0,-17.475,-6.675,-28.05,125.0282,0.8822,-12.2617,1.97,32.26425,48.84384,2.3529935,474.3221,NaN,0.0,31.122583,,6 / 25,927,2022-01-10 17:27:09:519
0.974477,-1.058226,9.043674,2.082457,-0.150981,9.581804,-2.066191,-0.2744,-0.564218,-0.055792,1.101584,6.215102,19.0,-17.475,-6.675,-28.05,125.0282,0.8822,-12.2617,1.97,32.26425,48.84384,2.3529935,474.3221,NaN,0.0,31.122583,,6 / 25,932,2022-01-10 17:27:09:524
2.225026,-1.513161,9.514461,0.756716,-1.404814,9.675964,-0.089661,-0.794256,-0.927772,-0.055792,1.101584,6.215102,19.0,-17.475,-6.675,-28.05,125.0282,0.8822,-12.2617,1.97,32.26425,48.84384,2.3529935,474.3221,NaN,0.0,31.122583,,6 / 25,938,2022-01-10 17:27:09:530
2.225026,-1.513161,9.514461,0.756716,-1.404814,9.675964,-0.089661,-0.794256,-0.927772,-0.055792,1.101584,6.215102,19.0,-17.475,-6.675,-28.05,125.0282,0.8822,-12.2617,1.97,32.26425,48.84384,2.3529935,474.3221,NaN,0.0,31.122583,,6 / 25,942,2022-01-10 17:27:09:534
2.225026,-1.513161,9.514461,0.756716,-1.404814,9.675964,-0.089661,-0.794256,-0.927772,-0.055792,1.101584,6.215102,19.0,-17.475,-6.675,-28.05,125.0282,0.8822,-12.2617,1.97,32.26425,48.84384,2.3529935,474.3221,NaN,0.0,31.122583,,6 / 25,948,2022-01-10 17:27:09:540
2.225026,-1.513161,9.514461,0.756716,-1.404814,9.675964,-0.089661,-0.794256,-0.927772,-0.055792,1.101584,6.215102,19.0,-17.475,-6.675,-28.05,125.0282,0.8822,-12.2617,1.97,32.26425,48.84384,2.3529935,474.3221,NaN,0.0,31.122583,,6 / 25,952,2022-01-10 17:27:09:544
2.225026,-1.513161,9.514461,0.756716,-1.404814,9.675964,-0.089661,-0.794256,-0.927772,-0.055792,1.101584,6.215102,14.0,-17.475,-6.675,-28.05,125.0282,0.8822,-12.2617,1.97,32.26425,48.84384,2.3529935,474.3221,NaN,0.0,31.122583,,6 / 25,957,2022-01-10 17:27:09:549
2.225026,-1.513161,9.514461,0.756716,-1.404814,9.675964,-0.089661,-0.794256,-0.927772,-0.055792,1.101584,6.215102,14.0,-17.475,-6.675,-28.05,125.0282,0.8822,-12.2617,1.97,32.26425,48.84384,2.3529935,474.3221,NaN,0.0,31.122583,,6 / 25,963,2022-01-10 17:27:09:555
2.225026,-1.513161,9.514461,0.756716,-1.404814,9.675964,-0.089661,-0.794256,-0.927772,-0.055792,1.101584,6.215102,14.0,-17.475,-6.675,-28.05,125.0282,0.8822,-12.2617,1.97,32.26425,48.84384,2.3529935,474.3221,NaN,0.0,31.122583,,6 / 25,967,2022-01-10 17:27:09:559
2.225026,-1.513161,9.514461,0.756716,-1.404814,9.675964,-0.089661,-0.794256,-0.927772,-0.055792,1.101584,6.215102,14.0,-17.475,-6.675,-28.05,125.0282,0.8822,-12.2617,1.97,32.26425,48.84384,2.3529935,474.3221,NaN,0.0,31.122583,,6 / 25,972,2022-01-10 17:27:09:564
2.225026,-1.513161,9.514461,0.756716,-1.404814,9.675964,-0.089661,-0.794256,-0.927772,-0.055792,1.101584,6.215102,14.0,-17.475,-6.675,-28.05,125.0282,0.8822,-12.2617,1.97,32.26425,48.84384,2.3529935,474.3221,NaN,0.0,31.122583,,6 / 25,977,2022-01-10 17:27:09:569
2.225026,-1.513161,9.514461,0.756716,-1.404814,9.675964,-0.089661,-0.794256,-0.927772,-0.055792,1.101584,6.215102,14.0,-17.475,-6.675,-28.05,125.0282,0.8822,-12.2617,1.97,32.26425,48.84384,2.3529935,474.3221,NaN,0.0,31.122583,,6 / 25,982,2022-01-10 17:27:09:574
2.225026,-1.513161,9.514461,0.756716,-1.404814,9.675964,-0.089661,-0.794256,-0.927772,-0.055792,1.101584,6.215102,14.0,-17.475,-6.675,-28.05,125.0282,0.8822,-12.2617,1.97,32.26425,48.84384,2.3529935,474.3221,NaN,0.0,31.122583,,6 / 25,986,2022-01-10 17:27:09:578
2.225026,-1.513161,9.514461,0.756716,-1.404814,9.675964,-0.089661,-0.794256,-0.927772,-0.055792,1.101584,6.215102,14.0,-17.475,-6.675,-28.05,125.0282,0.8822,-12.2617,1.97,32.26425,48.84384,2.3529935,474.3221,NaN,0.0,31.122583,,6 / 25,993,2022-01-10 17:27:09:585
2.225026,-1.513161,9.514461,0.756716,-1.404814,9.675964,-0.089661,-0.794256,-0.927772,-0.055792,1.101584,6.215102,14.0,-17.475,-6.675,-28.05,125.0282,0.8822,-12.2617,1.97,32.26425,48.84384,2.3529935,474.3221,NaN,0.0,31.122583,,6 / 25,998,2022-01-10 17:27:09:590
2.225026,-1.513161,9.514461,0.756716,-1.404814,9.675964,-0.089661,-0.794256,-0.927772,-0.055792,1.101584,6.215102,14.0,-17.475,-6.675,-28.05,125.0282,0.8822,-12.2617,1.97,32.26425,48.84384,2.3529935,474.3221,NaN,0.0,31.122583,,6 / 25,1002,2022-01-10 17:27:09:594
2.225026,-1.513161,9.514461,0.756716,-1.404814,9.675964,-0.089661,-0.794256,-0.927772,-0.672295,0.848325,4.659063,14.0,-17.475,-6.675,-28.05,125.0282,0.8822,-12.2617,1.97,32.26425,48.84384,2.3529935,474.3221,NaN,0.0,31.122583,,6 / 25,1008,2022-01-10 17:27:09:600
2.225026,-1.513161,9.514461,0.756716,-1.404814,9.675964,-0.089661,-0.794256,-0.927772,-0.672295,0.848325,4.659063,14.0,-17.475,-6.675,-28.05,125.0282,0.8822,-12.2617,1.97,36.08179,48.84384,2.3529935,474.3221,NaN,0.0,31.122583,,6 / 25,1013,2022-01-10 17:27:09:605
2.225026,-1.513161,9.514461,0.756716,-1.404814,9.675964,-0.089661,-0.794256,-0.927772,-0.672295,0.848325,4.659063,14.0,-17.475,-6.675,-28.05,125.0282,0.8822,-12.2617,1.97,36.08179,48.84384,2.3529935,474.3221,NaN,0.0,31.122583,,6 / 25,1018,2022-01-10 17:27:09:610
2.225026,-1.513161,9.514461,0.756716,-1.404814,9.675964,-0.089661,-0.794256,-0.927772,-0.672295,0.848325,4.659063,14.0,-17.475,-6.675,-28.05,125.0282,0.8822,-12.2617,1.97,36.08179,48.84384,2.3529935,474.3221,NaN,0.0,31.122583,,6 / 25,1022,2022-01-10 17:27:09:614
2.225026,-1.513161,9.514461,0.756716,-1.404814,9.675964,-0.089661,-0.794256,-0.927772,-0.672295,0.848325,4.659063,14.0,-17.475,-6.675,-28.05,125.0282,0.8822,-12.2617,1.97,36.08179,48.84384,2.3529935,474.3221,NaN,0.0,31.122583,,6 / 25,1028,2022-01-10 17:27:09:620
2.225026,-1.513161,9.514461,0.756716,-1.404814,9.675964,-0.089661,-0.794256,-0.927772,-0.672295,0.848325,4.659063,14.0,-17.475,-6.675,-28.05,125.0282,0.8822,-12.2617,1.97,36.08179,48.84384,2.3529935,474.3221,NaN,0.0,31.122583,,6 / 25,1031,2022-01-10 17:27:09:623
-3.340978,-3.066701,8.739486,0.756716,-1.404814,9.675964,-0.089661,-0.794256,-0.927772,-0.672295,0.848325,4.659063,14.0,-17.475,-6.675,-28.05,125.0282,0.8822,-12.2617,1.97,36.08179,48.84384,2.3529935,474.3221,NaN,0.0,31.122583,,6 / 25,1037,2022-01-10 17:27:09:629
-3.340978,-3.066701,8.739486,0.756716,-1.404814,9.675964,-0.089661,-0.794256,-0.927772,-0.672295,0.848325,4.659063,14.0,-17.475,-6.675,-28.05,125.0282,0.8822,-12.2617,1.97,36.08179,48.84384,2.3529935,474.3221,NaN,0.0,31.122583,,6 / 25,1041,2022-01-10 17:27:09:633
-3.340978,-3.066701,8.739486,0.756716,-1.404814,9.675964,-0.089661,-0.794256,-0.927772,-0.672295,0.848325,4.659063,14.0,-17.475,-6.675,-28.05,125.0282,0.8822,-12.2617,1.97,36.08179,48.84384,2.3529935,474.3221,NaN,0.0,31.122583,,6 / 25,1047,2022-01-10 17:27:09:639
-3.340978,-3.066701,8.739486,-1.240411,-2.222028,9.47071,0.61465,-0.702266,0.500109,-0.672295,0.848325,4.659063,14.0,-17.475,-6.675,-28.05,125.0282,0.8822,-12.2617,1.97,36.08179,48.84384,2.3529935,474.3221,NaN,0.0,31.122583,,6 / 25,1052,2022-01-10 17:27:09:644
-3.340978,-3.066701,8.739486,-1.240411,-2.222028,9.47071,0.61465,-0.702266,0.500109,-0.672295,0.848325,4.659063,14.0,-17.475,-6.675,-28.05,125.0282,0.8822,-12.2617,1.97,36.08179,48.84384,2.3529935,474.3221,NaN,0.0,31.122583,,6 / 25,1056,2022-01-10 17:27:09:648
-3.340978,-3.066701,8.739486,-1.240411,-2.222028,9.47071,0.61465,-0.702266,0.500109,-0.672295,0.848325,4.659063,14.0,-17.475,-6.675,-28.05,125.0282,0.8822,-12.2617,1.97,36.08179,48.84384,2.3529935,474.3221,NaN,0.0,31.122583,,6 / 25,1061,2022-01-10 17:27:09:653
-3.340978,-3.066701,8.739486,-1.240411,-2.222028,9.47071,0.61465,-0.702266,0.500109,-0.672295,0.848325,4.659063,14.0,-16.05,6.075,-27.975,89.9291,13.096,7.4618,1.97,36.08179,48.84384,2.3529935,474.3221,NaN,0.0,31.122583,,6 / 25,1066,2022-01-10 17:27:09:658
-3.340978,-3.066701,8.739486,-1.240411,-2.222028,9.47071,0.61465,-0.702266,0.500109,-0.672295,0.848325,4.659063,14.0,-16.05,6.075,-27.975,89.9291,13.096,7.4618,1.97,36.08179,48.84384,2.3529935,474.3221,NaN,0.0,31.122583,,6 / 25,1071,2022-01-10 17:27:09:663
-3.340978,-3.066701,8.739486,-1.240411,-2.222028,9.47071,0.61465,-0.702266,0.500109,-0.672295,0.848325,4.659063,14.0,-16.05,6.075,-27.975,89.9291,13.096,7.4618,1.97,36.08179,48.84384,2.3529935,474.3221,NaN,0.0,31.122583,,6 / 25,1077,2022-01-10 17:27:09:669
-3.340978,-3.066701,8.739486,-1.240411,-2.222028,9.47071,0.61465,-0.702266,0.500109,-0.672295,0.848325,4.659063,14.0,-16.05,6.075,-27.975,89.9291,13.096,7.4618,1.97,36.08179,48.84384,2.3529935,474.3221,NaN,0.0,31.122583,,6 / 25,1082,2022-01-10 17:27:09:674
-3.340978,-3.066701,8.739486,-1.240411,-2.222028,9.47071,0.61465,-0.702266,0.500109,-0.672295,0.848325,4.659063,14.0,-16.05,6.075,-27.975,89.9291,13.096,7.4618,1.97,36.08179,48.84384,2.3529935,474.3221,NaN,0.0,31.122583,,6 / 25,1086,2022-01-10 17:27:09:678
-3.340978,-3.066701,8.739486,-1.240411,-2.222028,9.47071,0.61465,-0.702266,0.500109,-0.672295,0.848325,4.659063,14.0,-16.05,6.075,-27.975,89.9291,13.096,7.4618,1.97,36.08179,48.84384,2.3529935,474.3221,NaN,0.0,31.122583,,6 / 25,1092,2022-01-10 17:27:09:684
-3.340978,-3.066701,8.739486,-1.240411,-2.222028,9.47071,0.61465,-0.702266,0.500109,-0.672295,0.848325,4.659063,14.0,-16.05,6.075,-27.975,89.9291,13.096,7.4618,1.97,36.08179,48.84384,2.3529935,474.3221,NaN,0.0,31.122583,,6 / 25,1096,2022-01-10 17:27:09:688
-3.340978,-3.066701,8.739486,-1.240411,-2.222028,9.47071,0.61465,-0.702266,0.500109,-0.672295,0.848325,4.659063,14.0,-16.05,6.075,-27.975,89.9291,13.096,7.4618,1.97,36.08179,48.84384,2.3529935,474.3221,NaN,0.0,31.122583,,6 / 25,1102,2022-01-10 17:27:09:694
-3.340978,-3.066701,8.739486,-1.240411,-2.222028,9.47071,0.61465,-0.702266,0.500109,-0.672295,0.848325,4.659063,14.0,-16.05,6.075,-27.975,89.9291,13.096,7.4618,1.97,36.08179,48.84384,2.3529935,474.3221,NaN,0.0,31.122583,,6 / 25,1106,2022-01-10 17:27:09:698
-3.340978,-3.066701,8.739486,-1.240411,-2.222028,9.47071,0.61465,-0.702266,0.500109,-0.672295,0.848325,4.659063,14.0,-16.05,6.075,-27.975,89.9291,13.096,7.4618,1.97,36.08179,48.84384,2.3529935,474.3221,NaN,0.0,31.122583,,6 / 25,1112,2022-01-10 17:27:09:704
-3.340978,-3.066701,8.739486,-1.240411,-2.222028,9.47071,0.61465,-0.702266,0.500109,-0.672295,0.848325,4.659063,14.0,-16.05,6.075,-27.975,89.9291,13.096,7.4618,1.97,36.08179,48.84384,2.3529935,474.3221,NaN,0.0,31.122583,,6 / 25,1117,2022-01-10 17:27:09:709
-4.481158,-3.969693,9.01137,-1.240411,-2.222028,9.47071,0.61465,-0.702266,0.500109,-0.672295,0.848325,4.659063,14.0,-16.05,6.075,-27.975,89.9291,13.096,7.4618,1.97,36.08179,48.84384,2.3529935,474.3221,NaN,0.0,31.122583,,6 / 25,1122,2022-01-10 17:27:09:714
-4.481158,-3.969693,9.01137,-1.240411,-2.222028,9.47071,0.61465,-0.702266,0.500109,-0.672295,0.848325,4.659063,14.0,-16.05,6.075,-27.975,89.9291,13.096,7.4618,1.97,36.08179,48.84384,2.3529935,474.3221,NaN,0.0,31.122583,,6 / 25,1127,2022-01-10 17:27:09:719
-4.481158,-3.969693,9.01137,-1.240411,-2.222028,9.47071,0.61465,-0.702266,0.500109,-0.672295,0.848325,4.659063,14.0,-16.05,6.075,-27.975,89.9291,13.096,7.4618,1.97,36.08179,48.84384,2.3529935,474.3221,NaN,0.0,31.122583,,6 / 25,1131,2022-01-10 17:27:09:723
-4.481158,-3.969693,9.01137,-1.240411,-2.222028,9.47071,0.61465,-0.702266,0.500109,-0.672295,0.848325,4.659063,6.0,-16.05,6.075,-27.975,89.9291,13.096,7.4618,1.97,36.08179,48.84384,2.3529935,474.3221,NaN,0.0,31.122583,,6 / 25,1137,2022-01-10 17:27:09:729
-4.481158,-3.969693,9.01137,-1.240411,-2.222028,9.47071,0.61465,-0.702266,0.500109,-0.560179,-2.15976,6.705109,6.0,-16.05,6.075,-27.975,89.9291,13.096,7.4618,1.97,36.08179,48.84384,2.3529935,474.3221,NaN,0.0,31.122583,,6 / 25,1142,2022-01-10 17:27:09:734
-4.481158,-3.969693,9.01137,-1.240411,-2.222028,9.47071,0.61465,-0.702266,0.500109,-0.560179,-2.15976,6.705109,6.0,-16.05,6.075,-27.975,89.9291,13.096,7.4618,1.97,36.08179,48.84384,2.3529935,474.3221,NaN,0.0,31.122583,,6 / 25,1151,2022-01-10 17:27:09:743
-4.481158,-3.969693,9.01137,-1.240411,-2.222028,9.47071,0.61465,-0.702266,0.500109,-0.560179,-2.15976,6.705109,6.0,-16.05,6.075,-27.975,89.9291,13.096,7.4618,1.97,36.08179,48.84384,2.3529935,474.3221,NaN,0.0,31.122583,,6 / 25,1152,2022-01-10 17:27:09:744
-4.481158,-3.969693,9.01137,-1.240411,-2.222028,9.47071,0.61465,-0.702266,0.500109,-0.560179,-2.15976,6.705109,6.0,-16.05,6.075,-27.975,89.9291,13.096,7.4618,1.97,36.08179,48.84384,2.3529935,474.3221,NaN,0.0,31.122583,,6 / 25,1156,2022-01-10 17:27:09:748
-4.481158,-3.969693,9.01137,-1.240411,-2.222028,9.47071,0.61465,-0.702266,0.500109,-0.560179,-2.15976,6.705109,6.0,-16.05,6.075,-27.975,89.9291,13.096,7.4618,1.97,36.08179,48.84384,2.3529935,474.3221,NaN,0.0,31.122583,,6 / 25,1163,2022-01-10 17:27:09:755
-4.481158,-3.969693,9.01137,-1.240411,-2.222028,9.47071,0.61465,-0.702266,0.500109,-0.560179,-2.15976,6.705109,6.0,-16.05,6.075,-27.975,89.9291,13.096,7.4618,1.97,36.08179,48.84384,2.3529935,474.3221,NaN,0.0,31.122583,,6 / 25,1167,2022-01-10 17:27:09:759
-4.481158,-3.969693,9.01137,-1.240411,-2.222028,9.47071,0.61465,-0.702266,0.500109,-0.560179,-2.15976,6.705109,6.0,-16.05,6.075,-27.975,89.9291,13.096,7.4618,1.97,36.08179,48.84384,2.3529935,474.3221,NaN,0.0,31.122583,,6 / 25,1172,2022-01-10 17:27:09:764
-4.481158,-3.969693,9.01137,-1.240411,-2.222028,9.47071,0.61465,-0.702266,0.500109,-0.560179,-2.15976,6.705109,6.0,-16.05,6.075,-27.975,89.9291,13.096,7.4618,1.97,36.08179,48.84384,2.3529935,474.3221,NaN,0.0,31.122583,,6 / 25,1178,2022-01-10 17:27:09:770
-4.481158,-3.969693,9.01137,-1.225282,-1.782647,9.565105,-2.198225,-1.699995,-0.518298,-0.560179,-2.15976,6.705109,6.0,-16.05,6.075,-27.975,89.9291,13.096,7.4618,1.97,36.08179,48.84384,2.3529935,474.3221,NaN,0.0,31.122583,,6 / 25,1181,2022-01-10 17:27:09:773
-4.481158,-3.969693,9.01137,-1.225282,-1.782647,9.565105,-2.198225,-1.699995,-0.518298,-0.560179,-2.15976,6.705109,6.0,-16.05,6.075,-27.975,89.9291,13.096,7.4618,1.97,36.08179,48.84384,2.3529935,474.3221,NaN,0.0,31.122583,,6 / 25,1187,2022-01-10 17:27:09:779
-4.481158,-3.969693,9.01137,-1.225282,-1.782647,9.565105,-2.198225,-1.699995,-0.518298,-0.560179,-2.15976,6.705109,6.0,-16.05,6.075,-27.975,89.9291,13.096,7.4618,1.97,36.08179,48.84384,2.3529935,474.3221,NaN,0.0,31.122583,,6 / 25,1192,2022-01-10 17:27:09:784
-4.481158,-3.969693,9.01137,-1.225282,-1.782647,9.565105,-2.198225,-1.699995,-0.518298,-0.560179,-2.15976,6.705109,6.0,-16.05,6.075,-27.975,89.9291,13.096,7.4618,1.97,36.08179,48.84384,2.3529935,474.3221,NaN,0.0,31.122583,,6 / 25,1197,2022-01-10 17:27:09:789
-4.481158,-3.969693,9.01137,-1.225282,-1.782647,9.565105,-2.198225,-1.699995,-0.518298,-0.560179,-2.15976,6.705109,6.0,-16.05,6.075,-27.975,89.9291,13.096,7.4618,1.97,36.08179,48.84384,2.3529935,474.3221,NaN,0.0,31.122583,,6 / 25,1202,2022-01-10 17:27:09:794
-4.481158,-3.969693,9.01137,-1.225282,-1.782647,9.565105,-2.198225,-1.699995,-0.518298,-0.560179,-2.15976,6.705109,6.0,-16.05,6.075,-27.975,89.9291,13.096,7.4618,1.97,36.08179,48.84384,2.3529935,474.3221,NaN,0.0,31.122583,,6 / 25,1207,2022-01-10 17:27:09:799
-4.481158,-3.969693,9.01137,-1.225282,-1.782647,9.565105,-2.198225,-1.699995,-0.518298,-0.560179,-2.15976,6.705109,6.0,-16.05,6.075,-27.975,89.9291,13.096,7.4618,1.97,36.08179,48.84384,2.3529935,474.3221,NaN,0.0,31.122583,,6 / 25,1212,2022-01-10 17:27:09:804
-4.481158,-3.969693,9.01137,-1.225282,-1.782647,9.565105,-2.198225,-1.699995,-0.518298,-0.560179,-2.15976,6.705109,6.0,-16.05,6.075,-27.975,89.9291,13.096,7.4618,1.97,36.08179,48.84384,2.3529935,474.3221,NaN,0.0,31.122583,,6 / 25,1217,2022-01-10 17:27:09:809
-4.481158,-3.969693,9.01137,-1.225282,-1.782647,9.565105,-2.198225,-1.699995,-0.518298,-0.560179,-2.15976,6.705109,6.0,-16.05,6.075,-27.975,89.9291,13.096,7.4618,1.97,36.08179,48.84384,2.3529935,474.3221,NaN,0.0,31.122583,,6 / 25,1221,2022-01-10 17:27:09:813
1.200898,-2.693122,12.087045,-1.225282,-1.782647,9.565105,-2.198225,-1.699995,-0.518298,-0.560179,-2.15976,6.705109,6.0,-16.05,6.075,-27.975,89.9291,13.096,7.4618,1.97,36.08179,48.84384,2.3529935,474.3221,NaN,0.0,31.122583,,6 / 25,1226,2022-01-10 17:27:09:818
1.200898,-2.693122,12.087045,-1.225282,-1.782647,9.565105,-2.198225,-1.699995,-0.518298,-0.560179,-2.15976,6.705109,6.0,-16.05,6.075,-27.975,89.9291,13.096,7.4618,1.97,36.08179,48.84384,2.3529935,474.3221,NaN,0.0,31.122583,,6 / 25,1232,2022-01-10 17:27:09:824
1.200898,-2.693122,12.087045,-1.225282,-1.782647,9.565105,-2.198225,-1.699995,-0.518298,-0.560179,-2.15976,6.705109,6.0,-16.05,6.075,-27.975,89.9291,13.096,7.4618,1.97,36.08179,48.84384,2.3529935,474.3221,NaN,0.0,31.122583,,6 / 25,1236,2022-01-10 17:27:09:828
1.200898,-2.693122,12.087045,-1.225282,-1.782647,9.565105,-2.198225,-1.699995,-0.518298,-0.560179,-2.15976,6.705109,6.0,-16.05,6.075,-27.975,89.9291,13.096,7.4618,1.97,36.08179,48.84384,2.3529935,474.3221,NaN,0.0,31.122583,,6 / 25,1243,2022-01-10 17:27:09:835
1.200898,-2.693122,12.087045,-1.225282,-1.782647,9.565105,-2.198225,-1.699995,-0.518298,-0.560179,-2.15976,6.705109,6.0,-16.05,6.075,-27.975,89.9291,13.096,7.4618,1.97,36.08179,48.84384,2.3529935,474.3221,NaN,0.0,31.122583,,6 / 25,1248,2022-01-10 17:27:09:840
1.200898,-2.693122,12.087045,-1.225282,-1.782647,9.565105,-2.198225,-1.699995,-0.518298,-0.560179,-2.15976,6.705109,6.0,-16.05,6.075,-27.975,89.9291,13.096,7.4618,1.97,36.08179,48.84384,2.3529935,474.3221,NaN,0.0,31.122583,,6 / 25,1252,2022-01-10 17:27:09:844
1.200898,-2.693122,12.087045,-1.225282,-1.782647,9.565105,-2.198225,-1.699995,-0.518298,-0.560179,-2.15976,6.705109,6.0,-16.05,6.075,-27.975,89.9291,13.096,7.4618,1.97,36.08179,48.84384,2.3529935,474.3221,NaN,0.0,31.122583,,6 / 25,1257,2022-01-10 17:27:09:849
1.200898,-2.693122,12.087045,-1.225282,-1.782647,9.565105,-2.198225,-1.699995,-0.518298,-0.560179,-2.15976,6.705109,6.0,-0.825,18.0,-28.125,19.7458,10.4734,7.2998,1.97,36.08179,48.84384,2.3529935,474.3221,NaN,0.0,31.122583,,6 / 25,1262,2022-01-10 17:27:09:854
1.200898,-2.693122,12.087045,-1.225282,-1.782647,9.565105,-2.198225,-1.699995,-0.518298,-0.560179,-2.15976,6.705109,6.0,-0.825,18.0,-28.125,19.7458,10.4734,7.2998,1.97,36.08179,48.84384,2.3529935,474.3221,NaN,0.0,31.122583,,6 / 25,1267,2022-01-10 17:27:09:859
1.200898,-2.693122,12.087045,-1.225282,-1.782647,9.565105,-2.198225,-1.699995,-0.518298,-0.560179,-2.15976,6.705109,6.0,-0.825,18.0,-28.125,19.7458,10.4734,7.2998,1.97,36.08179,48.84384,2.3529935,474.3221,NaN,0.0,31.122583,,6 / 25,1272,2022-01-10 17:27:09:864
1.200898,-2.693122,12.087045,-1.225282,-1.782647,9.565105,-2.198225,-1.699995,-0.518298,-0.560179,-2.15976,6.705109,6.0,-0.825,18.0,-28.125,19.7458,10.4734,7.2998,1.97,36.08179,48.84384,2.3529935,474.3221,NaN,0.0,31.122583,,6 / 25,1277,2022-01-10 17:27:09:869
1.200898,-2.693122,12.087045,-1.225282,-1.782647,9.565105,-2.198225,-1.699995,-0.518298,-0.560179,-2.15976,6.705109,6.0,-0.825,18.0,-28.125,19.7458,10.4734,7.2998,1.97,36.08179,48.84384,2.3529935,474.3221,NaN,0.0,31.122583,,6 / 25,1283,2022-01-10 17:27:09:875
1.200898,-2.693122,12.087045,-1.225282,-1.782647,9.565105,-2.198225,-1.699995,-0.518298,-0.560179,-2.15976,6.705109,6.0,-0.825,18.0,-28.125,19.7458,10.4734,7.2998,1.97,36.08179,48.84384,2.3529935,474.3221,NaN,0.0,31.122583,,6 / 25,1287,2022-01-10 17:27:09:879
1.200898,-2.693122,12.087045,-1.225282,-1.782647,9.565105,-2.198225,-1.699995,-0.518298,-0.560179,-2.15976,6.705109,6.0,-0.825,18.0,-28.125,19.7458,10.4734,7.2998,1.97,36.08179,48.84384,2.3529935,474.3221,NaN,0.0,31.122583,,6 / 25,1293,2022-01-10 17:27:09:885
1.200898,-2.693122,12.087045,-0.370465,-1.364257,9.704223,0.936856,-1.42205,2.06224,0.853917,-0.62143,3.576121,6.0,-0.825,18.0,-28.125,19.7458,10.4734,7.2998,1.97,36.08179,48.84384,2.3529935,474.3221,NaN,0.0,31.122583,,6 / 25,1297,2022-01-10 17:27:09:889
1.200898,-2.693122,12.087045,-0.370465,-1.364257,9.704223,0.936856,-1.42205,2.06224,0.853917,-0.62143,3.576121,6.0,-0.825,18.0,-28.125,19.7458,10.4734,7.2998,1.97,36.08179,48.84384,2.3529935,474.3221,NaN,0.0,31.122583,,6 / 25,1302,2022-01-10 17:27:09:894
1.200898,-2.693122,12.087045,-0.370465,-1.364257,9.704223,0.936856,-1.42205,2.06224,0.853917,-0.62143,3.576121,6.0,-0.825,18.0,-28.125,19.7458,10.4734,7.2998,1.97,36.08179,48.84384,2.3529935,474.3221,NaN,0.0,31.122583,,6 / 25,1308,2022-01-10 17:27:09:900
1.200898,-2.693122,12.087045,-0.370465,-1.364257,9.704223,0.936856,-1.42205,2.06224,0.853917,-0.62143,3.576121,6.0,-0.825,18.0,-28.125,19.7458,10.4734,7.2998,1.97,36.08179,48.84384,2.3529935,474.3221,NaN,0.0,31.122583,,6 / 25,1311,2022-01-10 17:27:09:903
1.200898,-2.693122,12.087045,-0.370465,-1.364257,9.704223,0.936856,-1.42205,2.06224,0.853917,-0.62143,3.576121,6.0,-0.825,18.0,-28.125,19.7458,10.4734,7.2998,1.97,36.08179,48.84384,2.3529935,474.3221,NaN,0.0,31.122583,,6 / 25,1318,2022-01-10 17:27:09:910
1.200898,-2.693122,12.087045,-0.370465,-1.364257,9.704223,0.936856,-1.42205,2.06224,0.853917,-0.62143,3.576121,6.0,-0.825,18.0,-28.125,19.7458,10.4734,7.2998,1.97,36.08179,48.84384,2.3529935,474.3221,NaN,0.0,31.122583,,6 / 25,1323,2022-01-10 17:27:09:915
1.200898,-2.693122,12.087045,-0.370465,-1.364257,9.704223,0.936856,-1.42205,2.06224,0.853917,-0.62143,3.576121,6.0,-0.825,18.0,-28.125,19.7458,10.4734,7.2998,1.97,36.08179,48.84384,2.3529935,474.3221,NaN,0.0,31.122583,,6 / 25,1328,2022-01-10 17:27:09:920
1.200898,-2.693122,12.087045,-0.370465,-1.364257,9.704223,0.936856,-1.42205,2.06224,0.853917,-0.62143,3.576121,6.0,-0.825,18.0,-28.125,19.7458,10.4734,7.2998,1.97,36.08179,48.84384,2.3529935,474.3221,NaN,0.0,31.122583,,6 / 25,1332,2022-01-10 17:27:09:924
1.200898,-2.693122,12.087045,-0.370465,-1.364257,9.704223,0.936856,-1.42205,2.06224,0.853917,-0.62143,3.576121,6.0,-0.825,18.0,-28.125,19.7458,10.4734,7.2998,1.97,30.42397,48.84384,2.3529935,474.3221,NaN,0.0,31.122583,,6 / 25,1337,2022-01-10 17:27:09:929
1.200898,-2.693122,12.087045,-0.370465,-1.364257,9.704223,0.936856,-1.42205,2.06224,0.853917,-0.62143,3.576121,6.0,-0.825,18.0,-28.125,19.7458,10.4734,7.2998,1.97,30.42397,48.84384,2.3529935,474.3221,NaN,0.0,31.122583,,6 / 25,1342,2022-01-10 17:27:09:934
1.200898,-2.693122,12.087045,-0.370465,-1.364257,9.704223,0.936856,-1.42205,2.06224,0.853917,-0.62143,3.576121,6.0,-0.825,18.0,-28.125,19.7458,10.4734,7.2998,1.97,30.42397,48.84384,2.3529935,474.3221,NaN,0.0,31.122583,,6 / 25,1347,2022-01-10 17:27:09:939
1.200898,-2.693122,12.087045,-0.370465,-1.364257,9.704223,0.936856,-1.42205,2.06224,0.853917,-0.62143,3.576121,6.0,-0.825,18.0,-28.125,19.7458,10.4734,7.2998,1.97,30.42397,48.84384,2.3529935,474.3221,NaN,0.0,31.122583,,6 / 25,1352,2022-01-10 17:27:09:944
1.200898,-2.693122,12.087045,-0.370465,-1.364257,9.704223,0.936856,-1.42205,2.06224,0.853917,-0.62143,3.576121,6.0,-0.825,18.0,-28.125,19.7458,10.4734,7.2998,1.97,30.42397,48.84384,2.3529935,474.3221,NaN,0.0,31.122583,,6 / 25,1357,2022-01-10 17:27:09:949
0.332602,-0.495314,8.146664,-0.370465,-1.364257,9.704223,0.936856,-1.42205,2.06224,0.853917,-0.62143,3.576121,6.0,-0.825,18.0,-28.125,19.7458,10.4734,7.2998,1.97,30.42397,48.84384,2.3529935,474.3221,NaN,0.0,31.122583,,6 / 25,1362,2022-01-10 17:27:09:954
0.332602,-0.495314,8.146664,-0.370465,-1.364257,9.704223,0.936856,-1.42205,2.06224,0.853917,-0.62143,3.576121,6.0,11.1,15.45,-29.175,19.7458,10.4734,7.2998,1.97,30.42397,48.84384,2.3529935,474.3221,NaN,0.0,31.122583,,6 / 25,1367,2022-01-10 17:27:09:959
0.332602,-0.495314,8.146664,-0.370465,-1.364257,9.704223,0.936856,-1.42205,2.06224,0.853917,-0.62143,3.576121,6.0,11.1,15.45,-29.175,19.7458,10.4734,7.2998,1.97,30.42397,48.84384,2.3529935,474.3221,NaN,0.0,31.122583,,6 / 25,1371,2022-01-10 17:27:09:963
0.332602,-0.495314,8.146664,-0.370465,-1.364257,9.704223,0.936856,-1.42205,2.06224,0.853917,-0.62143,3.576121,6.0,11.1,15.45,-29.175,19.7458,10.4734,7.2998,1.97,30.42397,48.84384,2.3529935,474.3221,NaN,0.0,31.122583,,6 / 25,1377,2022-01-10 17:27:09:969
0.332602,-0.495314,8.146664,-0.370465,-1.364257,9.704223,0.936856,-1.42205,2.06224,0.853917,-0.62143,3.576121,6.0,11.1,15.45,-29.175,19.7458,10.4734,7.2998,1.97,30.42397,48.84384,2.3529935,474.3221,NaN,0.0,31.122583,,6 / 25,1381,2022-01-10 17:27:09:973
0.332602,-0.495314,8.146664,-0.370465,-1.364257,9.704223,0.936856,-1.42205,2.06224,0.853917,-0.62143,3.576121,6.0,11.1,15.45,-29.175,19.7458,10.4734,7.2998,1.97,30.42397,48.84384,2.3529935,474.3221,NaN,0.0,31.122583,,6 / 25,1387,2022-01-10 17:27:09:979
0.332602,-0.495314,8.146664,-0.370465,-1.364257,9.704223,0.936856,-1.42205,2.06224,0.853917,-0.62143,3.576121,6.0,11.1,15.45,-29.175,19.7458,10.4734,7.2998,1.97,30.42397,48.84384,2.3529935,474.3221,NaN,0.0,31.122583,,6 / 25,1392,2022-01-10 17:27:09:984
0.332602,-0.495314,8.146664,-0.370465,-1.364257,9.704223,0.936856,-1.42205,2.06224,0.853917,-0.62143,3.576121,6.0,11.1,15.45,-29.175,19.7458,10.4734,7.2998,1.97,30.42397,48.84384,2.3529935,474.3221,NaN,0.0,31.122583,,6 / 25,1396,2022-01-10 17:27:09:988
0.332602,-0.495314,8.146664,-0.370465,-1.364257,9.704223,0.936856,-1.42205,2.06224,0.853917,-0.62143,3.576121,6.0,11.1,15.45,-29.175,19.7458,10.4734,7.2998,1.97,30.42397,48.84384,2.3529935,474.3221,NaN,0.0,31.122583,,6 / 25,1402,2022-01-10 17:27:09:994
0.332602,-0.495314,8.146664,-0.370465,-1.364257,9.704223,0.936856,-1.42205,2.06224,0.853917,-0.62143,3.576121,6.0,11.1,15.45,-29.175,19.7458,10.4734,7.2998,1.97,30.42397,48.84384,2.3529935,474.3221,NaN,0.0,31.122583,,6 / 25,1406,2022-01-10 17:27:09:998
0.332602,-0.495314,8.146664,-0.370465,-1.364257,9.704223,0.936856,-1.42205,2.06224,0.853917,-0.62143,3.576121,6.0,11.1,15.45,-29.175,19.7458,10.4734,7.2998,1.97,30.42397,48.84384,2.3529935,474.3221,NaN,0.0,31.122583,,6 / 25,1412,2022-01-10 17:27:10:004
0.332602,-0.495314,8.146664,-0.370465,-1.364257,9.704223,0.936856,-1.42205,2.06224,0.853917,-0.62143,3.576121,6.0,11.1,15.45,-29.175,19.7458,10.4734,7.2998,1.97,30.42397,48.84384,2.3529935,474.3221,NaN,0.0,31.122583,,6 / 25,1417,2022-01-10 17:27:10:009
0.332602,-0.495314,8.146664,-0.370465,-1.364257,9.704223,0.936856,-1.42205,2.06224,0.853917,-0.62143,3.576121,6.0,11.1,15.45,-29.175,19.7458,10.4734,7.2998,1.97,30.42397,48.84384,2.3529935,474.3221,NaN,0.0,31.122583,,6 / 25,1421,2022-01-10 17:27:10:013
0.332602,-0.495314,8.146664,-1.09845,-0.681807,9.721056,0.936856,-1.42205,2.06224,-0.009321,0.887073,0.979082,6.0,11.1,15.45,-29.175,19.7458,10.4734,7.2998,1.97,30.42397,48.84384,2.3529935,474.3221,NaN,0.0,31.122583,,6 / 25,1426,2022-01-10 17:27:10:018
0.332602,-0.495314,8.146664,-1.09845,-0.681807,9.721056,1.633153,0.445009,-1.292656,-0.009321,0.887073,0.979082,6.0,11.1,15.45,-29.175,19.7458,10.4734,7.2998,1.97,30.42397,48.84384,2.3529935,474.3221,NaN,0.0,31.122583,,6 / 25,1432,2022-01-10 17:27:10:024
0.332602,-0.495314,8.146664,-1.09845,-0.681807,9.721056,1.633153,0.445009,-1.292656,-0.009321,0.887073,0.979082,6.0,11.1,15.45,-29.175,19.7458,10.4734,7.2998,1.97,30.42397,48.84384,2.3529935,474.3221,NaN,0.0,31.122583,,6 / 25,1436,2022-01-10 17:27:10:028
0.332602,-0.495314,8.146664,-1.09845,-0.681807,9.721056,1.633153,0.445009,-1.292656,-0.009321,0.887073,0.979082,6.0,11.1,15.45,-29.175,19.7458,10.4734,7.2998,1.97,30.42397,48.84384,2.3529935,474.3221,NaN,0.0,31.122583,,6 / 25,1442,2022-01-10 17:27:10:034
0.332602,-0.495314,8.146664,-1.09845,-0.681807,9.721056,1.633153,0.445009,-1.292656,-0.009321,0.887073,0.979082,6.0,11.1,15.45,-29.175,19.7458,10.4734,7.2998,1.97,30.42397,48.84384,2.3529935,474.3221,NaN,0.0,31.122583,,6 / 25,1447,2022-01-10 17:27:10:039
0.332602,-0.495314,8.146664,-1.09845,-0.681807,9.721056,1.633153,0.445009,-1.292656,-0.009321,0.887073,0.979082,6.0,11.1,15.45,-29.175,19.7458,10.4734,7.2998,1.97,30.42397,48.84384,2.3529935,474.3221,NaN,0.0,31.122583,,6 / 25,1452,2022-01-10 17:27:10:044
0.332602,-0.495314,8.146664,-1.09845,-0.681807,9.721056,1.633153,0.445009,-1.292656,-0.009321,0.887073,0.979082,6.0,11.1,15.45,-29.175,19.7458,10.4734,7.2998,1.97,30.42397,48.84384,2.3529935,474.3221,NaN,0.0,31.122583,,6 / 25,1456,2022-01-10 17:27:10:048
-0.901197,0.066401,9.006584,-1.09845,-0.681807,9.721056,1.633153,0.445009,-1.292656,-0.009321,0.887073,0.979082,6.0,11.1,15.45,-29.175,19.7458,10.4734,7.2998,1.97,30.42397,48.84384,2.3529935,474.3221,NaN,0.0,31.122583,,6 / 25,1463,2022-01-10 17:27:10:055
-0.901197,0.066401,9.006584,-1.09845,-0.681807,9.721056,1.633153,0.445009,-1.292656,-0.009321,0.887073,0.979082,6.0,11.1,15.45,-29.175,19.7458,10.4734,7.2998,1.97,30.42397,48.84384,2.3529935,474.3221,NaN,0.0,31.122583,,6 / 25,1466,2022-01-10 17:27:10:058
-0.901197,0.066401,9.006584,-1.09845,-0.681807,9.721056,1.633153,0.445009,-1.292656,-0.009321,0.887073,0.979082,6.0,11.1,15.45,-29.175,19.7458,10.4734,7.2998,1.97,30.42397,48.84384,2.3529935,474.3221,NaN,0.0,31.122583,,6 / 25,1472,2022-01-10 17:27:10:064
-0.901197,0.066401,9.006584,-1.09845,-0.681807,9.721056,1.633153,0.445009,-1.292656,-0.009321,0.887073,0.979082,6.0,11.1,15.45,-29.175,19.7458,10.4734,7.2998,1.97,30.42397,48.84384,2.3529935,474.3221,NaN,0.0,31.122583,,6 / 25,1476,2022-01-10 17:27:10:068
-0.901197,0.066401,9.006584,-1.09845,-0.681807,9.721056,1.633153,0.445009,-1.292656,-0.009321,0.887073,0.979082,6.0,11.1,15.45,-29.175,19.7458,10.4734,7.2998,1.97,30.42397,48.84384,2.3529935,474.3221,NaN,0.0,31.122583,,6 / 25,1481,2022-01-10 17:27:10:073
-0.901197,0.066401,9.006584,-1.09845,-0.681807,9.721056,1.633153,0.445009,-1.292656,-0.009321,0.887073,0.979082,6.0,11.1,15.45,-29.175,19.7458,10.4734,7.2998,1.97,30.42397,48.84384,2.3529935,474.3221,NaN,0.0,31.122583,,6 / 25,1487,2022-01-10 17:27:10:079
-0.901197,0.066401,9.006584,-1.09845,-0.681807,9.721056,1.633153,0.445009,-1.292656,-0.009321,0.887073,0.979082,6.0,11.1,15.45,-29.175,19.7458,10.4734,7.2998,1.97,30.42397,48.84384,2.3529935,474.3221,NaN,0.0,31.122583,,6 / 25,1491,2022-01-10 17:27:10:083
-0.901197,0.066401,9.006584,-1.09845,-0.681807,9.721056,1.633153,0.445009,-1.292656,-0.009321,0.887073,0.979082,6.0,11.1,15.45,-29.175,19.7458,10.4734,7.2998,1.97,30.42397,48.84384,2.3529935,474.3221,NaN,0.0,31.122583,,6 / 25,1497,2022-01-10 17:27:10:089
-0.901197,0.066401,9.006584,-1.09845,-0.681807,9.721056,1.633153,0.445009,-1.292656,-0.009321,0.887073,0.979082,6.0,11.1,15.45,-29.175,19.7458,10.4734,7.2998,1.97,30.42397,48.84384,2.3529935,474.3221,NaN,0.0,31.122583,,6 / 25,1501,2022-01-10 17:27:10:093
-0.901197,0.066401,9.006584,-1.09845,-0.681807,9.721056,1.633153,0.445009,-1.292656,-0.009321,0.887073,0.979082,6.0,11.1,15.45,-29.175,19.7458,10.4734,7.2998,1.97,30.42397,48.84384,2.3529935,474.3221,NaN,0.0,31.122583,,6 / 25,1508,2022-01-10 17:27:10:100
-0.901197,0.066401,9.006584,-1.09845,-0.681807,9.721056,1.633153,0.445009,-1.292656,-0.009321,0.887073,0.979082,6.0,20.025,8.475,-29.55,289.2133,3.9867,6.4469,1.97,30.42397,48.84384,2.3529935,474.3221,NaN,0.0,31.122583,,6 / 25,1512,2022-01-10 17:27:10:104
-0.901197,0.066401,9.006584,-1.09845,-0.681807,9.721056,1.633153,0.445009,-1.292656,-0.009321,0.887073,0.979082,6.0,20.025,8.475,-29.55,289.2133,3.9867,6.4469,1.97,30.42397,48.84384,2.3529935,474.3221,NaN,0.0,31.122583,,6 / 25,1517,2022-01-10 17:27:10:109
-0.901197,0.066401,9.006584,-1.09845,-0.681807,9.721056,1.633153,0.445009,-1.292656,-0.009321,0.887073,0.979082,6.0,20.025,8.475,-29.55,289.2133,3.9867,6.4469,1.97,30.42397,48.84384,2.3529935,474.3221,NaN,0.0,31.122583,,6 / 25,1522,2022-01-10 17:27:10:114
-0.901197,0.066401,9.006584,-1.09845,-0.681807,9.721056,1.633153,0.445009,-1.292656,-0.009321,0.887073,0.979082,6.0,20.025,8.475,-29.55,289.2133,3.9867,6.4469,1.97,30.42397,48.84384,2.3529935,474.3221,NaN,0.0,31.122583,,6 / 25,1527,2022-01-10 17:27:10:119
-0.901197,0.066401,9.006584,-1.09845,-0.681807,9.721056,1.633153,0.445009,-1.292656,-0.009321,0.887073,0.979082,6.0,20.025,8.475,-29.55,289.2133,3.9867,6.4469,1.97,30.42397,48.84384,2.3529935,474.3221,NaN,0.0,31.122583,,6 / 25,1532,2022-01-10 17:27:10:124
-0.901197,0.066401,9.006584,-1.09845,-0.681807,9.721056,1.633153,0.445009,-1.292656,-0.009321,0.887073,0.979082,6.0,20.025,8.475,-29.55,289.2133,3.9867,6.4469,1.97,30.42397,48.84384,2.3529935,474.3221,NaN,0.0,31.122583,,6 / 25,1536,2022-01-10 17:27:10:128
-0.901197,0.066401,9.006584,-1.09845,-0.681807,9.721056,1.633153,0.445009,-1.292656,-0.009321,0.887073,0.979082,6.0,20.025,8.475,-29.55,289.2133,3.9867,6.4469,1.97,30.42397,48.84384,2.3529935,474.3221,NaN,0.0,31.122583,,6 / 25,1542,2022-01-10 17:27:10:134
-1.387239,-0.725025,8.544171,-2.088233,-1.106655,9.517614,0.963247,0.869708,-0.506327,-0.009321,0.887073,0.979082,34.0,20.025,8.475,-29.55,289.2133,3.9867,6.4469,1.97,30.42397,48.84384,2.3529935,474.3221,NaN,0.0,31.122583,,6 / 25,1547,2022-01-10 17:27:10:139
-1.387239,-0.725025,8.544171,-2.088233,-1.106655,9.517614,0.963247,0.869708,-0.506327,-0.009321,0.887073,0.979082,34.0,20.025,8.475,-29.55,289.2133,3.9867,6.4469,1.97,30.42397,48.84384,2.3529935,474.3221,NaN,0.0,31.122583,,6 / 25,1552,2022-01-10 17:27:10:144
-1.387239,-0.725025,8.544171,-2.088233,-1.106655,9.517614,0.963247,0.869708,-0.506327,-0.009321,0.887073,0.979082,34.0,20.025,8.475,-29.55,289.2133,3.9867,6.4469,1.97,30.42397,48.84384,2.3529935,474.3221,NaN,0.0,31.122583,,6 / 25,1557,2022-01-10 17:27:10:149
-1.387239,-0.725025,8.544171,-2.088233,-1.106655,9.517614,0.963247,0.869708,-0.506327,-0.458583,0.33941,-2.76175,34.0,20.025,8.475,-29.55,289.2133,3.9867,6.4469,1.97,30.42397,48.84384,2.3529935,474.3221,NaN,0.0,31.122583,,6 / 25,1562,2022-01-10 17:27:10:154
-1.387239,-0.725025,8.544171,-2.088233,-1.106655,9.517614,0.963247,0.869708,-0.506327,-0.458583,0.33941,-2.76175,34.0,20.025,8.475,-29.55,289.2133,3.9867,6.4469,1.97,30.42397,48.84384,2.3529935,474.3221,NaN,0.0,31.122583,,6 / 25,1567,2022-01-10 17:27:10:159
-1.387239,-0.725025,8.544171,-2.088233,-1.106655,9.517614,0.963247,0.869708,-0.506327,-0.458583,0.33941,-2.76175,34.0,20.025,8.475,-29.55,289.2133,3.9867,6.4469,1.97,30.42397,48.84384,2.3529935,474.3221,NaN,0.0,31.122583,,6 / 25,1571,2022-01-10 17:27:10:163
-1.387239,-0.725025,8.544171,-2.088233,-1.106655,9.517614,0.963247,0.869708,-0.506327,-0.458583,0.33941,-2.76175,34.0,20.025,8.475,-29.55,289.2133,3.9867,6.4469,1.97,30.42397,48.84384,2.3529935,474.3221,NaN,0.0,31.122583,,6 / 25,1577,2022-01-10 17:27:10:169
-1.387239,-0.725025,8.544171,-2.088233,-1.106655,9.517614,0.963247,0.869708,-0.506327,-0.458583,0.33941,-2.76175,34.0,20.025,8.475,-29.55,289.2133,3.9867,6.4469,1.97,30.42397,48.84384,2.3529935,474.3221,NaN,0.0,31.122583,,6 / 25,1582,2022-01-10 17:27:10:174
-1.387239,-0.725025,8.544171,-2.088233,-1.106655,9.517614,0.963247,0.869708,-0.506327,-0.458583,0.33941,-2.76175,34.0,20.025,8.475,-29.55,289.2133,3.9867,6.4469,1.97,30.42397,48.84384,2.3529935,474.3221,NaN,0.0,31.122583,,6 / 25,1587,2022-01-10 17:27:10:179
-1.387239,-0.725025,8.544171,-2.088233,-1.106655,9.517614,0.963247,0.869708,-0.506327,-0.458583,0.33941,-2.76175,34.0,20.025,8.475,-29.55,289.2133,3.9867,6.4469,1.97,30.42397,48.84384,2.3529935,474.3221,NaN,0.0,31.122583,,6 / 25,1592,2022-01-10 17:27:10:184
-1.387239,-0.725025,8.544171,-2.088233,-1.106655,9.517614,0.963247,0.869708,-0.506327,-0.458583,0.33941,-2.76175,34.0,20.025,8.475,-29.55,289.2133,3.9867,6.4469,1.97,30.42397,48.84384,2.3529935,474.3221,NaN,0.0,31.122583,,6 / 25,1597,2022-01-10 17:27:10:189
-1.387239,-0.725025,8.544171,-2.088233,-1.106655,9.517614,0.963247,0.869708,-0.506327,-0.458583,0.33941,-2.76175,34.0,20.025,8.475,-29.55,289.2133,3.9867,6.4469,1.97,30.42397,48.84384,2.3529935,474.3221,NaN,0.0,31.122583,,6 / 25,1602,2022-01-10 17:27:10:194
-1.387239,-0.725025,8.544171,-2.088233,-1.106655,9.517614,0.963247,0.869708,-0.506327,-0.458583,0.33941,-2.76175,34.0,20.025,8.475,-29.55,289.2133,3.9867,6.4469,1.97,30.42397,48.84384,2.3529935,474.3221,NaN,0.0,31.122583,,6 / 25,1606,2022-01-10 17:27:10:198
-1.387239,-0.725025,8.544171,-2.088233,-1.106655,9.517614,0.963247,0.869708,-0.506327,-0.458583,0.33941,-2.76175,34.0,20.025,8.475,-29.55,289.2133,3.9867,6.4469,1.97,30.42397,48.84384,2.3529935,474.3221,NaN,0.0,31.122583,,6 / 25,1612,2022-01-10 17:27:10:204
-1.387239,-0.725025,8.544171,-2.088233,-1.106655,9.517614,0.963247,0.869708,-0.506327,-0.458583,0.33941,-2.76175,34.0,20.025,8.475,-29.55,289.2133,3.9867,6.4469,1.97,30.42397,48.84384,2.3529935,474.3221,NaN,0.0,31.122583,,6 / 25,1617,2022-01-10 17:27:10:209
-1.387239,-0.725025,8.544171,-2.088233,-1.106655,9.517614,0.963247,0.869708,-0.506327,-0.458583,0.33941,-2.76175,34.0,20.025,8.475,-29.55,289.2133,3.9867,6.4469,1.97,30.42397,48.84384,2.3529935,474.3221,NaN,0.0,31.122583,,6 / 25,1621,2022-01-10 17:27:10:213
-1.387239,-0.725025,8.544171,-2.088233,-1.106655,9.517614,0.963247,0.869708,-0.506327,-0.458583,0.33941,-2.76175,34.0,20.025,8.475,-29.55,289.2133,3.9867,6.4469,1.97,30.42397,48.84384,2.3529935,474.3221,NaN,0.0,31.122583,,6 / 25,1626,2022-01-10 17:27:10:218
-1.387239,-0.725025,8.544171,-2.088233,-1.106655,9.517614,0.963247,0.869708,-0.506327,-0.458583,0.33941,-2.76175,34.0,20.025,8.475,-29.55,289.2133,3.9867,6.4469,1.97,30.42397,48.84384,2.3529935,474.3221,NaN,0.0,31.122583,,6 / 25,1632,2022-01-10 17:27:10:224
-1.741975,-2.638087,8.931211,-2.088233,-1.106655,9.517614,0.963247,0.869708,-0.506327,-0.458583,0.33941,-2.76175,34.0,20.025,8.475,-29.55,289.2133,3.9867,6.4469,1.97,30.42397,48.84384,2.3529935,474.3221,NaN,0.0,31.122583,,6 / 25,1636,2022-01-10 17:27:10:228
-1.741975,-2.638087,8.931211,-2.088233,-1.106655,9.517614,0.963247,0.869708,-0.506327,-0.458583,0.33941,-2.76175,34.0,20.025,8.475,-29.55,289.2133,3.9867,6.4469,1.97,30.42397,48.84384,2.3529935,474.3221,NaN,0.0,31.122583,,6 / 25,1641,2022-01-10 17:27:10:233
-1.741975,-2.638087,8.931211,-2.088233,-1.106655,9.517614,0.963247,0.869708,-0.506327,-0.458583,0.33941,-2.76175,34.0,20.025,8.475,-29.55,289.2133,3.9867,6.4469,1.97,30.42397,48.84384,2.3529935,474.3221,NaN,0.0,31.122583,,6 / 25,1647,2022-01-10 17:27:10:239
-1.741975,-2.638087,8.931211,-2.088233,-1.106655,9.517614,0.963247,0.869708,-0.506327,-0.458583,0.33941,-2.76175,34.0,20.025,8.475,-29.55,289.2133,3.9867,6.4469,1.97,30.42397,48.84384,2.3529935,474.3221,NaN,0.0,31.122583,,6 / 25,1652,2022-01-10 17:27:10:244
-1.741975,-2.638087,8.931211,-2.088233,-1.106655,9.517614,0.963247,0.869708,-0.506327,-0.458583,0.33941,-2.76175,34.0,20.025,8.475,-29.55,289.2133,3.9867,6.4469,1.97,30.42397,48.84384,2.3529935,474.3221,NaN,0.0,31.122583,,6 / 25,1656,2022-01-10 17:27:10:248
-1.741975,-2.638087,8.931211,-2.088233,-1.106655,9.517614,0.963247,0.869708,-0.506327,-0.458583,0.33941,-2.76175,34.0,24.3,3.3,-30.15,266.9505,6.4795,12.375,1.97,30.42397,48.84384,2.3529935,474.3221,NaN,0.0,31.122583,,6 / 25,1661,2022-01-10 17:27:10:253
-1.741975,-2.638087,8.931211,-2.088233,-1.106655,9.517614,0.963247,0.869708,-0.506327,-0.458583,0.33941,-2.76175,34.0,24.3,3.3,-30.15,266.9505,6.4795,12.375,1.97,24.70535,48.84384,2.3529935,474.3221,NaN,0.0,31.122583,,6 / 25,1667,2022-01-10 17:27:10:259
-1.741975,-2.638087,8.931211,-2.088233,-1.106655,9.517614,0.963247,0.869708,-0.506327,-0.458583,0.33941,-2.76175,34.0,24.3,3.3,-30.15,266.9505,6.4795,12.375,1.97,24.70535,48.84384,2.3529935,474.3221,NaN,0.0,31.122583,,6 / 25,1672,2022-01-10 17:27:10:264
-1.741975,-2.638087,8.931211,-1.262724,-1.903256,9.536957,0.741447,-0.425178,1.320234,-0.458583,0.33941,-2.76175,34.0,24.3,3.3,-30.15,266.9505,6.4795,12.375,1.97,24.70535,48.84384,2.3529935,474.3221,NaN,0.0,31.122583,,6 / 25,1676,2022-01-10 17:27:10:268
-1.741975,-2.638087,8.931211,-1.262724,-1.903256,9.536957,0.741447,-0.425178,1.320234,-0.458583,0.33941,-2.76175,34.0,24.3,3.3,-30.15,266.9505,6.4795,12.375,1.97,24.70535,48.84384,2.3529935,474.3221,NaN,0.0,31.122583,,6 / 25,1682,2022-01-10 17:27:10:274
-1.741975,-2.638087,8.931211,-1.262724,-1.903256,9.536957,0.741447,-0.425178,1.320234,0.675491,-0.043275,-7.3806,34.0,24.3,3.3,-30.15,266.9505,6.4795,12.375,1.97,24.70535,48.84384,2.3529935,474.3221,NaN,0.0,31.122583,,6 / 25,1686,2022-01-10 17:27:10:278
-1.741975,-2.638087,8.931211,-1.262724,-1.903256,9.536957,0.741447,-0.425178,1.320234,0.675491,-0.043275,-7.3806,34.0,24.3,3.3,-30.15,266.9505,6.4795,12.375,1.97,24.70535,48.84384,2.3529935,474.3221,NaN,0.0,31.122583,,6 / 25,1692,2022-01-10 17:27:10:284
-1.741975,-2.638087,8.931211,-1.262724,-1.903256,9.536957,0.741447,-0.425178,1.320234,0.675491,-0.043275,-7.3806,34.0,24.3,3.3,-30.15,266.9505,6.4795,12.375,1.97,24.70535,48.84384,2.3529935,474.3221,NaN,0.0,31.122583,,6 / 25,1696,2022-01-10 17:27:10:288
-1.741975,-2.638087,8.931211,-1.262724,-1.903256,9.536957,0.741447,-0.425178,1.320234,0.675491,-0.043275,-7.3806,34.0,24.3,3.3,-30.15,266.9505,6.4795,12.375,1.97,24.70535,48.84384,2.3529935,474.3221,NaN,0.0,31.122583,,6 / 25,1702,2022-01-10 17:27:10:294
-1.741975,-2.638087,8.931211,-1.262724,-1.903256,9.536957,0.741447,-0.425178,1.320234,0.675491,-0.043275,-7.3806,34.0,24.3,3.3,-30.15,266.9505,6.4795,12.375,1.97,24.70535,48.84384,2.3529935,474.3221,NaN,0.0,31.122583,,6 / 25,1707,2022-01-10 17:27:10:299
-1.741975,-2.638087,8.931211,-1.262724,-1.903256,9.536957,0.741447,-0.425178,1.320234,0.675491,-0.043275,-7.3806,34.0,24.3,3.3,-30.15,266.9505,6.4795,12.375,1.97,24.70535,48.84384,2.3529935,474.3221,NaN,0.0,31.122583,,6 / 25,1712,2022-01-10 17:27:10:304
-1.741975,-2.638087,8.931211,-1.262724,-1.903256,9.536957,0.741447,-0.425178,1.320234,0.675491,-0.043275,-7.3806,34.0,24.3,3.3,-30.15,266.9505,6.4795,12.375,1.97,24.70535,48.84384,2.3529935,474.3221,NaN,0.0,31.122583,,6 / 25,1716,2022-01-10 17:27:10:308
-1.185045,-2.473879,7.303493,-1.262724,-1.903256,9.536957,0.741447,-0.425178,1.320234,0.675491,-0.043275,-7.3806,7.0,24.3,3.3,-30.15,266.9505,6.4795,12.375,1.97,24.70535,48.84384,2.3529935,474.3221,NaN,0.0,31.122583,,6 / 25,1722,2022-01-10 17:27:10:314
-1.185045,-2.473879,7.303493,-1.262724,-1.903256,9.536957,0.741447,-0.425178,1.320234,0.675491,-0.043275,-7.3806,7.0,24.3,3.3,-30.15,266.9505,6.4795,12.375,1.97,24.70535,48.84384,2.3529935,474.3221,NaN,0.0,31.122583,,6 / 25,1727,2022-01-10 17:27:10:319
-1.185045,-2.473879,7.303493,-1.262724,-1.903256,9.536957,0.741447,-0.425178,1.320234,0.675491,-0.043275,-7.3806,7.0,24.3,3.3,-30.15,266.9505,6.4795,12.375,1.97,24.70535,48.84384,2.3529935,474.3221,NaN,0.0,31.122583,,6 / 25,1732,2022-01-10 17:27:10:324
-1.185045,-2.473879,7.303493,-1.262724,-1.903256,9.536957,0.741447,-0.425178,1.320234,0.675491,-0.043275,-7.3806,7.0,24.3,3.3,-30.15,266.9505,6.4795,12.375,1.97,24.70535,48.84384,2.3529935,474.3221,NaN,0.0,31.122583,,6 / 25,1736,2022-01-10 17:27:10:328
-1.185045,-2.473879,7.303493,-1.262724,-1.903256,9.536957,0.741447,-0.425178,1.320234,0.675491,-0.043275,-7.3806,7.0,24.3,3.3,-30.15,266.9505,6.4795,12.375,1.97,24.70535,48.84384,2.3529935,474.3221,NaN,0.0,31.122583,,6 / 25,1741,2022-01-10 17:27:10:333
-1.185045,-2.473879,7.303493,-1.262724,-1.903256,9.536957,0.741447,-0.425178,1.320234,0.675491,-0.043275,-7.3806,7.0,24.3,3.3,-30.15,266.9505,6.4795,12.375,1.97,24.70535,48.84384,2.3529935,474.3221,NaN,0.0,31.122583,,6 / 25,1747,2022-01-10 17:27:10:339
-1.185045,-2.473879,7.303493,-1.262724,-1.903256,9.536957,0.741447,-0.425178,1.320234,0.675491,-0.043275,-7.3806,7.0,24.3,3.3,-30.15,266.9505,6.4795,12.375,1.97,24.70535,48.84384,2.3529935,474.3221,NaN,0.0,31.122583,,6 / 25,1751,2022-01-10 17:27:10:343
-1.185045,-2.473879,7.303493,-1.262724,-1.903256,9.536957,0.741447,-0.425178,1.320234,0.675491,-0.043275,-7.3806,7.0,24.3,3.3,-30.15,266.9505,6.4795,12.375,1.97,24.70535,48.84384,2.3529935,474.3221,NaN,0.0,31.122583,,6 / 25,1757,2022-01-10 17:27:10:349
-1.185045,-2.473879,7.303493,-1.262724,-1.903256,9.536957,0.741447,-0.425178,1.320234,0.675491,-0.043275,-7.3806,7.0,24.3,3.3,-30.15,266.9505,6.4795,12.375,1.97,24.70535,48.84384,2.3529935,474.3221,NaN,0.0,31.122583,,6 / 25,1761,2022-01-10 17:27:10:353
-1.185045,-2.473879,7.303493,-1.262724,-1.903256,9.536957,0.741447,-0.425178,1.320234,0.675491,-0.043275,-7.3806,7.0,24.3,3.3,-30.15,266.9505,6.4795,12.375,1.97,24.70535,48.84384,2.3529935,474.3221,NaN,0.0,31.122583,,6 / 25,1766,2022-01-10 17:27:10:358
-1.185045,-2.473879,7.303493,-1.262724,-1.903256,9.536957,0.741447,-0.425178,1.320234,0.675491,-0.043275,-7.3806,7.0,24.3,3.3,-30.15,266.9505,6.4795,12.375,1.97,24.70535,48.84384,2.3529935,474.3221,NaN,0.0,31.122583,,6 / 25,1772,2022-01-10 17:27:10:364
-1.185045,-2.473879,7.303493,-1.262724,-1.903256,9.536957,0.741447,-0.425178,1.320234,0.675491,-0.043275,-7.3806,7.0,24.3,3.3,-30.15,266.9505,6.4795,12.375,1.97,24.70535,48.84384,2.3529935,474.3221,NaN,0.0,31.122583,,6 / 25,1777,2022-01-10 17:27:10:369
-1.185045,-2.473879,7.303493,1.226084,-2.591776,9.378156,-2.407231,-0.228718,-1.844486,0.675491,-0.043275,-7.3806,7.0,24.3,3.3,-30.15,266.9505,6.4795,12.375,1.97,24.70535,48.84384,2.3529935,474.3221,NaN,0.0,31.122583,,7 / 25,1796,2022-01-10 17:27:10:388
-1.185045,-2.473879,7.303493,1.226084,-2.591776,9.378156,-2.407231,-0.228718,-1.844486,0.675491,-0.043275,-7.3806,7.0,24.3,3.3,-30.15,266.9505,6.4795,12.375,1.97,24.70535,48.84384,2.3529935,474.3221,NaN,0.0,31.122583,,7 / 25,1797,2022-01-10 17:27:10:389
-1.185045,-2.473879,7.303493,1.226084,-2.591776,9.378156,-2.407231,-0.228718,-1.844486,0.675491,-0.043275,-7.3806,7.0,24.3,3.3,-30.15,266.9505,6.4795,12.375,1.97,24.70535,48.84384,2.3529935,474.3221,NaN,0.0,31.122583,,7 / 25,1798,2022-01-10 17:27:10:390
-1.185045,-2.473879,7.303493,1.226084,-2.591776,9.378156,-2.407231,-0.228718,-1.844486,0.675491,-0.043275,-7.3806,7.0,24.3,3.3,-30.15,266.9505,6.4795,12.375,1.97,24.70535,48.84384,2.3529935,474.3221,NaN,0.0,31.122583,,7 / 25,1798,2022-01-10 17:27:10:390
-1.185045,-2.473879,7.303493,1.226084,-2.591776,9.378156,-2.407231,-0.228718,-1.844486,0.675491,-0.043275,-7.3806,7.0,24.3,3.3,-30.15,266.9505,6.4795,12.375,1.97,24.70535,48.84384,2.3529935,474.3221,NaN,0.0,31.122583,,7 / 25,1801,2022-01-10 17:27:10:393
-1.185045,-2.473879,7.303493,1.226084,-2.591776,9.378156,-2.407231,-0.228718,-1.844486,0.675491,-0.043275,-7.3806,7.0,24.3,3.3,-30.15,266.9505,6.4795,12.375,1.97,24.70535,48.84384,2.3529935,474.3221,NaN,0.0,31.122583,,7 / 25,1807,2022-01-10 17:27:10:399
-1.185045,-2.473879,7.303493,1.226084,-2.591776,9.378156,-2.407231,-0.228718,-1.844486,0.675491,-0.043275,-7.3806,7.0,24.3,3.3,-30.15,266.9505,6.4795,12.375,1.97,24.70535,48.84384,2.3529935,474.3221,NaN,0.0,31.122583,,7 / 25,1811,2022-01-10 17:27:10:403
-1.185045,-2.473879,7.303493,1.226084,-2.591776,9.378156,-2.407231,-0.228718,-1.844486,0.675491,-0.043275,-7.3806,7.0,24.3,3.3,-30.15,266.9505,6.4795,12.375,1.97,24.70535,48.84384,2.3529935,474.3221,NaN,0.0,31.122583,,7 / 25,1817,2022-01-10 17:27:10:409
-1.185045,-2.473879,7.303493,1.226084,-2.591776,9.378156,-2.407231,-0.228718,-1.844486,0.675491,-0.043275,-7.3806,7.0,24.3,3.3,-30.15,266.9505,6.4795,12.375,1.97,24.70535,48.84384,2.3529935,474.3221,NaN,0.0,31.122583,,7 / 25,1822,2022-01-10 17:27:10:414
2.813062,-3.789034,10.394721,1.226084,-2.591776,9.378156,-2.407231,-0.228718,-1.844486,-1.422885,-0.514774,-7.109764,7.0,24.3,3.3,-30.15,266.9505,6.4795,12.375,1.97,24.70535,48.84384,2.3529935,474.3221,NaN,0.0,31.122583,,7 / 25,1826,2022-01-10 17:27:10:418
2.813062,-3.789034,10.394721,1.226084,-2.591776,9.378156,-2.407231,-0.228718,-1.844486,-1.422885,-0.514774,-7.109764,7.0,24.3,3.3,-30.15,266.9505,6.4795,12.375,1.97,24.70535,48.84384,2.3529935,474.3221,NaN,0.0,31.122583,,7 / 25,1832,2022-01-10 17:27:10:424
2.813062,-3.789034,10.394721,1.226084,-2.591776,9.378156,-2.407231,-0.228718,-1.844486,-1.422885,-0.514774,-7.109764,7.0,24.3,3.3,-30.15,266.9505,6.4795,12.375,1.97,24.70535,48.84384,2.3529935,474.3221,NaN,0.0,31.122583,,7 / 25,1836,2022-01-10 17:27:10:428
2.813062,-3.789034,10.394721,1.226084,-2.591776,9.378156,-2.407231,-0.228718,-1.844486,-1.422885,-0.514774,-7.109764,7.0,24.3,3.3,-30.15,266.9505,6.4795,12.375,1.97,24.70535,48.84384,2.3529935,474.3221,NaN,0.0,31.122583,,7 / 25,1842,2022-01-10 17:27:10:434
2.813062,-3.789034,10.394721,1.226084,-2.591776,9.378156,-2.407231,-0.228718,-1.844486,-1.422885,-0.514774,-7.109764,7.0,24.3,3.3,-30.15,266.9505,6.4795,12.375,1.97,24.70535,48.84384,2.3529935,474.3221,NaN,0.0,31.122583,,7 / 25,1846,2022-01-10 17:27:10:438
2.813062,-3.789034,10.394721,1.226084,-2.591776,9.378156,-2.407231,-0.228718,-1.844486,-1.422885,-0.514774,-7.109764,7.0,24.3,3.3,-30.15,266.9505,6.4795,12.375,1.97,24.70535,48.84384,2.3529935,474.3221,NaN,0.0,31.122583,,7 / 25,1852,2022-01-10 17:27:10:444
2.813062,-3.789034,10.394721,1.226084,-2.591776,9.378156,-2.407231,-0.228718,-1.844486,-1.422885,-0.514774,-7.109764,7.0,24.3,3.3,-30.15,266.9505,6.4795,12.375,1.97,24.70535,48.84384,2.3529935,474.3221,NaN,0.0,31.122583,,7 / 25,1857,2022-01-10 17:27:10:449
2.813062,-3.789034,10.394721,1.226084,-2.591776,9.378156,-2.407231,-0.228718,-1.844486,-1.422885,-0.514774,-7.109764,7.0,17.325,9.45,-28.575,274.6112,15.3246,-7.4485,1.97,24.70535,48.84384,2.3529935,474.3221,NaN,0.0,31.122583,,7 / 25,1861,2022-01-10 17:27:10:453
2.813062,-3.789034,10.394721,1.226084,-2.591776,9.378156,-2.407231,-0.228718,-1.844486,-1.422885,-0.514774,-7.109764,7.0,17.325,9.45,-28.575,274.6112,15.3246,-7.4485,1.97,24.70535,48.84384,2.3529935,474.3221,NaN,0.0,31.122583,,7 / 25,1867,2022-01-10 17:27:10:459
2.813062,-3.789034,10.394721,1.226084,-2.591776,9.378156,-2.407231,-0.228718,-1.844486,-1.422885,-0.514774,-7.109764,7.0,17.325,9.45,-28.575,274.6112,15.3246,-7.4485,1.97,24.70535,48.84384,2.3529935,474.3221,NaN,0.0,31.122583,,7 / 25,1871,2022-01-10 17:27:10:463
2.813062,-3.789034,10.394721,1.226084,-2.591776,9.378156,-2.407231,-0.228718,-1.844486,-1.422885,-0.514774,-7.109764,7.0,17.325,9.45,-28.575,274.6112,15.3246,-7.4485,1.97,24.70535,48.84384,2.3529935,474.3221,NaN,0.0,31.122583,,7 / 25,1877,2022-01-10 17:27:10:469
2.813062,-3.789034,10.394721,1.226084,-2.591776,9.378156,-2.407231,-0.228718,-1.844486,-1.422885,-0.514774,-7.109764,7.0,17.325,9.45,-28.575,274.6112,15.3246,-7.4485,1.97,24.70535,48.84384,2.3529935,474.3221,NaN,0.0,31.122583,,7 / 25,1881,2022-01-10 17:27:10:473
2.813062,-3.789034,10.394721,1.226084,-2.591776,9.378156,-2.407231,-0.228718,-1.844486,-1.422885,-0.514774,-7.109764,7.0,17.325,9.45,-28.575,274.6112,15.3246,-7.4485,1.97,24.70535,48.84384,2.3529935,474.3221,NaN,0.0,31.122583,,7 / 25,1887,2022-01-10 17:27:10:479
2.813062,-3.789034,10.394721,1.226084,-2.591776,9.378156,-2.407231,-0.228718,-1.844486,-1.422885,-0.514774,-7.109764,7.0,17.325,9.45,-28.575,274.6112,15.3246,-7.4485,1.97,24.70535,48.84384,2.3529935,474.3221,NaN,0.0,31.122583,,7 / 25,1892,2022-01-10 17:27:10:484
2.813062,-3.789034,10.394721,1.226084,-2.591776,9.378156,-2.407231,-0.228718,-1.844486,-1.422885,-0.514774,-7.109764,18.0,17.325,9.45,-28.575,274.6112,15.3246,-7.4485,1.97,24.70535,48.84384,2.3529935,474.3221,NaN,0.0,31.122583,,7 / 25,1896,2022-01-10 17:27:10:488
2.813062,-3.789034,10.394721,1.226084,-2.591776,9.378156,-2.407231,-0.228718,-1.844486,-1.422885,-0.514774,-7.109764,18.0,17.325,9.45,-28.575,274.6112,15.3246,-7.4485,1.97,24.70535,48.84384,2.3529935,474.3221,NaN,0.0,31.122583,,7 / 25,1902,2022-01-10 17:27:10:494
2.813062,-3.789034,10.394721,1.226084,-2.591776,9.378156,-2.407231,-0.228718,-1.844486,-1.422885,-0.514774,-7.109764,18.0,17.325,9.45,-28.575,274.6112,15.3246,-7.4485,1.97,24.70535,48.84384,2.3529935,474.3221,NaN,0.0,31.122583,,7 / 25,1906,2022-01-10 17:27:10:498
2.813062,-3.789034,10.394721,1.226084,-2.591776,9.378156,-2.407231,-0.228718,-1.844486,-1.422885,-0.514774,-7.109764,18.0,17.325,9.45,-28.575,274.6112,15.3246,-7.4485,1.97,24.70535,48.84384,2.3529935,474.3221,NaN,0.0,31.122583,,7 / 25,1912,2022-01-10 17:27:10:504
1.529014,-1.665404,9.372986,2.537681,-1.246984,9.390185,0.280684,-2.762817,1.515492,-1.422885,-0.514774,-7.109764,18.0,17.325,9.45,-28.575,274.6112,15.3246,-7.4485,1.97,24.70535,48.84384,2.3529935,474.3221,NaN,0.0,31.122583,,7 / 25,1916,2022-01-10 17:27:10:508
1.529014,-1.665404,9.372986,2.537681,-1.246984,9.390185,0.280684,-2.762817,1.515492,-1.422885,-0.514774,-7.109764,18.0,17.325,9.45,-28.575,274.6112,15.3246,-7.4485,1.97,24.70535,48.84384,2.3529935,474.3221,NaN,0.0,31.122583,,7 / 25,1921,2022-01-10 17:27:10:513
1.529014,-1.665404,9.372986,2.537681,-1.246984,9.390185,0.280684,-2.762817,1.515492,-1.422885,-0.514774,-7.109764,18.0,17.325,9.45,-28.575,274.6112,15.3246,-7.4485,1.97,24.70535,48.84384,2.3529935,474.3221,NaN,0.0,31.122583,,7 / 25,1927,2022-01-10 17:27:10:519
1.529014,-1.665404,9.372986,2.537681,-1.246984,9.390185,0.280684,-2.762817,1.515492,-1.422885,-0.514774,-7.109764,18.0,17.325,9.45,-28.575,274.6112,15.3246,-7.4485,1.97,24.70535,48.84384,2.3529935,474.3221,NaN,0.0,31.122583,,7 / 25,1931,2022-01-10 17:27:10:523
1.529014,-1.665404,9.372986,2.537681,-1.246984,9.390185,0.280684,-2.762817,1.515492,-1.422885,-0.514774,-7.109764,18.0,17.325,9.45,-28.575,274.6112,15.3246,-7.4485,1.97,24.70535,48.84384,2.3529935,474.3221,NaN,0.0,31.122583,,7 / 25,1937,2022-01-10 17:27:10:529
1.529014,-1.665404,9.372986,2.537681,-1.246984,9.390185,0.280684,-2.762817,1.515492,-1.422885,-0.514774,-7.109764,18.0,17.325,9.45,-28.575,274.6112,15.3246,-7.4485,1.97,24.70535,48.84384,2.3529935,474.3221,NaN,0.0,31.122583,,7 / 25,1941,2022-01-10 17:27:10:533
1.529014,-1.665404,9.372986,2.537681,-1.246984,9.390185,0.280684,-2.762817,1.515492,-1.422885,-0.514774,-7.109764,18.0,17.325,9.45,-28.575,274.6112,15.3246,-7.4485,1.97,24.70535,48.84384,2.3529935,474.3221,NaN,0.0,31.122583,,7 / 25,1946,2022-01-10 17:27:10:538
1.529014,-1.665404,9.372986,2.537681,-1.246984,9.390185,0.280684,-2.762817,1.515492,-1.422885,-0.514774,-7.109764,18.0,17.325,9.45,-28.575,274.6112,15.3246,-7.4485,1.97,24.70535,48.84384,2.3529935,474.3221,NaN,0.0,31.122583,,7 / 25,1952,2022-01-10 17:27:10:544
1.529014,-1.665404,9.372986,2.537681,-1.246984,9.390185,0.280684,-2.762817,1.515492,1.36483,1.74139,-7.368083,18.0,17.325,9.45,-28.575,274.6112,15.3246,-7.4485,1.97,24.70535,48.84384,2.3529935,474.3221,NaN,0.0,31.122583,,7 / 25,1956,2022-01-10 17:27:10:548
1.529014,-1.665404,9.372986,2.537681,-1.246984,9.390185,0.280684,-2.762817,1.515492,1.36483,1.74139,-7.368083,18.0,17.325,9.45,-28.575,274.6112,15.3246,-7.4485,1.97,24.70535,48.84384,2.3529935,474.3221,NaN,0.0,31.122583,,7 / 25,1962,2022-01-10 17:27:10:554
1.529014,-1.665404,9.372986,2.537681,-1.246984,9.390185,0.280684,-2.762817,1.515492,1.36483,1.74139,-7.368083,18.0,17.325,9.45,-28.575,274.6112,15.3246,-7.4485,1.97,24.70535,48.84384,2.3529935,474.3221,NaN,0.0,31.122583,,7 / 25,1967,2022-01-10 17:27:10:559
1.529014,-1.665404,9.372986,2.537681,-1.246984,9.390185,0.280684,-2.762817,1.515492,1.36483,1.74139,-7.368083,18.0,17.325,9.45,-28.575,274.6112,15.3246,-7.4485,1.97,24.70535,48.84384,2.3529935,474.3221,NaN,0.0,31.122583,,7 / 25,1972,2022-01-10 17:27:10:564
1.529014,-1.665404,9.372986,2.537681,-1.246984,9.390185,0.280684,-2.762817,1.515492,1.36483,1.74139,-7.368083,18.0,17.325,9.45,-28.575,274.6112,15.3246,-7.4485,1.97,24.70535,48.84384,2.3529935,474.3221,NaN,0.0,31.122583,,7 / 25,1976,2022-01-10 17:27:10:568
1.529014,-1.665404,9.372986,2.537681,-1.246984,9.390185,0.280684,-2.762817,1.515492,1.36483,1.74139,-7.368083,18.0,17.325,9.45,-28.575,274.6112,15.3246,-7.4485,1.97,29.18411,48.84384,2.3529935,474.3221,NaN,0.0,31.122583,,7 / 25,1982,2022-01-10 17:27:10:574
1.529014,-1.665404,9.372986,2.537681,-1.246984,9.390185,0.280684,-2.762817,1.515492,1.36483,1.74139,-7.368083,18.0,17.325,9.45,-28.575,274.6112,15.3246,-7.4485,1.97,29.18411,48.84384,2.3529935,474.3221,NaN,0.0,31.122583,,7 / 25,1987,2022-01-10 17:27:10:579
1.529014,-1.665404,9.372986,2.537681,-1.246984,9.390185,0.280684,-2.762817,1.515492,1.36483,1.74139,-7.368083,18.0,17.325,9.45,-28.575,274.6112,15.3246,-7.4485,1.97,29.18411,48.84384,2.3529935,474.3221,NaN,0.0,31.122583,,7 / 25,1991,2022-01-10 17:27:10:583
1.529014,-1.665404,9.372986,2.537681,-1.246984,9.390185,0.280684,-2.762817,1.515492,1.36483,1.74139,-7.368083,18.0,17.325,9.45,-28.575,274.6112,15.3246,-7.4485,1.97,29.18411,48.84384,2.3529935,474.3221,NaN,0.0,31.122583,,7 / 25,1997,2022-01-10 17:27:10:589
1.529014,-1.665404,9.372986,2.537681,-1.246984,9.390185,0.280684,-2.762817,1.515492,1.36483,1.74139,-7.368083,18.0,17.325,9.45,-28.575,274.6112,15.3246,-7.4485,1.97,29.18411,48.84384,2.3529935,474.3221,NaN,0.0,31.122583,,7 / 25,2002,2022-01-10 17:27:10:594
1.302892,0.22343,8.991031,2.537681,-1.246984,9.390185,0.280684,-2.762817,1.515492,1.36483,1.74139,-7.368083,18.0,17.325,9.45,-28.575,274.6112,15.3246,-7.4485,1.97,29.18411,48.84384,2.3529935,474.3221,NaN,0.0,31.122583,,7 / 25,2008,2022-01-10 17:27:10:600
1.302892,0.22343,8.991031,2.537681,-1.246984,9.390185,0.280684,-2.762817,1.515492,1.36483,1.74139,-7.368083,18.0,17.325,9.45,-28.575,274.6112,15.3246,-7.4485,1.97,29.18411,48.84384,2.3529935,474.3221,NaN,0.0,31.122583,,7 / 25,2012,2022-01-10 17:27:10:604
1.302892,0.22343,8.991031,2.537681,-1.246984,9.390185,0.280684,-2.762817,1.515492,1.36483,1.74139,-7.368083,18.0,17.325,9.45,-28.575,274.6112,15.3246,-7.4485,1.97,29.18411,48.84384,2.3529935,474.3221,NaN,0.0,31.122583,,7 / 25,2017,2022-01-10 17:27:10:609
1.302892,0.22343,8.991031,2.537681,-1.246984,9.390185,0.280684,-2.762817,1.515492,1.36483,1.74139,-7.368083,18.0,17.325,9.45,-28.575,274.6112,15.3246,-7.4485,1.97,29.18411,48.84384,2.3529935,474.3221,NaN,0.0,31.122583,,7 / 25,2022,2022-01-10 17:27:10:614
1.302892,0.22343,8.991031,1.300011,1.565812,9.593153,0.276392,-1.982363,0.233896,1.36483,1.74139,-7.368083,18.0,17.325,9.45,-28.575,274.6112,15.3246,-7.4485,1.97,29.18411,48.84384,2.3529935,474.3221,NaN,0.0,31.122583,,7 / 25,2026,2022-01-10 17:27:10:618
1.302892,0.22343,8.991031,1.300011,1.565812,9.593153,0.276392,-1.982363,0.233896,1.36483,1.74139,-7.368083,18.0,17.325,9.45,-28.575,274.6112,15.3246,-7.4485,1.97,29.18411,48.84384,2.3529935,474.3221,NaN,0.0,31.122583,,7 / 25,2031,2022-01-10 17:27:10:623
1.302892,0.22343,8.991031,1.300011,1.565812,9.593153,0.276392,-1.982363,0.233896,1.36483,1.74139,-7.368083,18.0,17.325,9.45,-28.575,274.6112,15.3246,-7.4485,1.97,29.18411,48.84384,2.3529935,474.3221,NaN,0.0,31.122583,,7 / 25,2037,2022-01-10 17:27:10:629
1.302892,0.22343,8.991031,1.300011,1.565812,9.593153,0.276392,-1.982363,0.233896,1.36483,1.74139,-7.368083,18.0,17.325,9.45,-28.575,274.6112,15.3246,-7.4485,1.97,29.18411,48.84384,2.3529935,474.3221,NaN,0.0,31.122583,,7 / 25,2042,2022-01-10 17:27:10:634
1.302892,0.22343,8.991031,1.300011,1.565812,9.593153,0.276392,-1.982363,0.233896,1.36483,1.74139,-7.368083,18.0,17.325,9.45,-28.575,274.6112,15.3246,-7.4485,1.97,29.18411,48.84384,2.3529935,474.3221,NaN,0.0,31.122583,,7 / 25,2047,2022-01-10 17:27:10:639
1.302892,0.22343,8.991031,1.300011,1.565812,9.593153,0.276392,-1.982363,0.233896,1.36483,1.74139,-7.368083,18.0,17.325,9.45,-28.575,274.6112,15.3246,-7.4485,1.97,29.18411,48.84384,2.3529935,474.3221,NaN,0.0,31.122583,,7 / 25,2052,2022-01-10 17:27:10:644
1.302892,0.22343,8.991031,1.300011,1.565812,9.593153,0.276392,-1.982363,0.233896,1.36483,1.74139,-7.368083,18.0,17.325,9.45,-28.575,274.6112,15.3246,-7.4485,1.97,29.18411,48.84384,2.3529935,474.3221,NaN,0.0,31.122583,,7 / 25,2056,2022-01-10 17:27:10:648
1.302892,0.22343,8.991031,1.300011,1.565812,9.593153,0.276392,-1.982363,0.233896,1.36483,1.74139,-7.368083,18.0,-1.35,12.9,-27.3,351.2541,-9.1876,-7.7174,1.97,29.18411,48.84384,2.3529935,474.3221,NaN,0.0,31.122583,,7 / 25,2062,2022-01-10 17:27:10:654
1.302892,0.22343,8.991031,1.300011,1.565812,9.593153,0.276392,-1.982363,0.233896,1.36483,1.74139,-7.368083,18.0,-1.35,12.9,-27.3,351.2541,-9.1876,-7.7174,1.97,29.18411,48.84384,2.3529935,474.3221,NaN,0.0,31.122583,,7 / 25,2066,2022-01-10 17:27:10:658
1.302892,0.22343,8.991031,1.300011,1.565812,9.593153,0.276392,-1.982363,0.233896,1.36483,1.74139,-7.368083,18.0,-1.35,12.9,-27.3,351.2541,-9.1876,-7.7174,1.97,29.18411,48.84384,2.3529935,474.3221,NaN,0.0,31.122583,,7 / 25,2073,2022-01-10 17:27:10:665
1.302892,0.22343,8.991031,1.300011,1.565812,9.593153,0.276392,-1.982363,0.233896,-0.020106,-0.874689,-7.624538,18.0,-1.35,12.9,-27.3,351.2541,-9.1876,-7.7174,1.97,29.18411,48.84384,2.3529935,474.3221,NaN,0.0,31.122583,,7 / 25,2077,2022-01-10 17:27:10:669
1.302892,0.22343,8.991031,1.300011,1.565812,9.593153,0.276392,-1.982363,0.233896,-0.020106,-0.874689,-7.624538,18.0,-1.35,12.9,-27.3,351.2541,-9.1876,-7.7174,1.97,29.18411,48.84384,2.3529935,474.3221,NaN,0.0,31.122583,,7 / 25,2081,2022-01-10 17:27:10:673
1.302892,0.22343,8.991031,1.300011,1.565812,9.593153,0.276392,-1.982363,0.233896,-0.020106,-0.874689,-7.624538,18.0,-1.35,12.9,-27.3,351.2541,-9.1876,-7.7174,1.97,29.18411,48.84384,2.3529935,474.3221,NaN,0.0,31.122583,,7 / 25,2087,2022-01-10 17:27:10:679
1.302892,0.22343,8.991031,1.300011,1.565812,9.593153,0.276392,-1.982363,0.233896,-0.020106,-0.874689,-7.624538,18.0,-1.35,12.9,-27.3,351.2541,-9.1876,-7.7174,1.97,29.18411,48.84384,2.3529935,474.3221,NaN,0.0,31.122583,,7 / 25,2091,2022-01-10 17:27:10:683
-0.433998,-0.228215,10.054641,1.300011,1.565812,9.593153,0.276392,-1.982363,0.233896,-0.020106,-0.874689,-7.624538,18.0,-1.35,12.9,-27.3,351.2541,-9.1876,-7.7174,1.97,29.18411,48.84384,2.3529935,474.3221,NaN,0.0,31.122583,,7 / 25,2097,2022-01-10 17:27:10:689
-0.433998,-0.228215,10.054641,1.300011,1.565812,9.593153,0.276392,-1.982363,0.233896,-0.020106,-0.874689,-7.624538,18.0,-1.35,12.9,-27.3,351.2541,-9.1876,-7.7174,1.97,29.18411,48.84384,2.3529935,474.3221,NaN,0.0,31.122583,,7 / 25,2102,2022-01-10 17:27:10:694
-0.433998,-0.228215,10.054641,1.300011,1.565812,9.593153,0.276392,-1.982363,0.233896,-0.020106,-0.874689,-7.624538,18.0,-1.35,12.9,-27.3,351.2541,-9.1876,-7.7174,1.97,29.18411,48.84384,2.3529935,474.3221,NaN,0.0,31.122583,,7 / 25,2106,2022-01-10 17:27:10:698
-0.433998,-0.228215,10.054641,1.300011,1.565812,9.593153,0.276392,-1.982363,0.233896,-0.020106,-0.874689,-7.624538,18.0,-1.35,12.9,-27.3,351.2541,-9.1876,-7.7174,1.97,29.18411,48.84384,2.3529935,474.3221,NaN,0.0,31.122583,,7 / 25,2112,2022-01-10 17:27:10:704
-0.433998,-0.228215,10.054641,1.300011,1.565812,9.593153,0.276392,-1.982363,0.233896,-0.020106,-0.874689,-7.624538,18.0,-1.35,12.9,-27.3,351.2541,-9.1876,-7.7174,1.97,29.18411,48.84384,2.3529935,474.3221,NaN,0.0,31.122583,,7 / 25,2117,2022-01-10 17:27:10:709
-0.433998,-0.228215,10.054641,1.300011,1.565812,9.593153,0.276392,-1.982363,0.233896,-0.020106,-0.874689,-7.624538,18.0,-1.35,12.9,-27.3,351.2541,-9.1876,-7.7174,1.97,29.18411,48.84384,2.3529935,474.3221,NaN,0.0,31.122583,,7 / 25,2121,2022-01-10 17:27:10:713
-0.433998,-0.228215,10.054641,1.300011,1.565812,9.593153,0.276392,-1.982363,0.233896,-0.020106,-0.874689,-7.624538,37.0,-1.35,12.9,-27.3,351.2541,-9.1876,-7.7174,1.97,29.18411,48.84384,2.3529935,474.3221,NaN,0.0,31.122583,,7 / 25,2127,2022-01-10 17:27:10:719
-0.433998,-0.228215,10.054641,1.300011,1.565812,9.593153,0.276392,-1.982363,0.233896,-0.020106,-0.874689,-7.624538,37.0,-1.35,12.9,-27.3,351.2541,-9.1876,-7.7174,1.97,29.18411,48.84384,2.3529935,474.3221,NaN,0.0,31.122583,,7 / 25,2132,2022-01-10 17:27:10:724
-0.433998,-0.228215,10.054641,1.300011,1.565812,9.593153,0.276392,-1.982363,0.233896,-0.020106,-0.874689,-7.624538,37.0,-1.35,12.9,-27.3,351.2541,-9.1876,-7.7174,1.97,29.18411,48.84384,2.3529935,474.3221,NaN,0.0,31.122583,,7 / 25,2137,2022-01-10 17:27:10:729
-0.433998,-0.228215,10.054641,1.300011,1.565812,9.593153,0.276392,-1.982363,0.233896,-0.020106,-0.874689,-7.624538,37.0,-1.35,12.9,-27.3,351.2541,-9.1876,-7.7174,1.97,29.18411,48.84384,2.3529935,474.3221,NaN,0.0,31.122583,,7 / 25,2141,2022-01-10 17:27:10:733
-0.433998,-0.228215,10.054641,1.300011,1.565812,9.593153,0.276392,-1.982363,0.233896,-0.020106,-0.874689,-7.624538,37.0,-1.35,12.9,-27.3,351.2541,-9.1876,-7.7174,1.97,29.18411,48.84384,2.3529935,474.3221,NaN,0.0,31.122583,,7 / 25,2147,2022-01-10 17:27:10:739
-0.433998,-0.228215,10.054641,1.300011,1.565812,9.593153,0.276392,-1.982363,0.233896,-0.020106,-0.874689,-7.624538,37.0,-1.35,12.9,-27.3,351.2541,-9.1876,-7.7174,1.97,29.18411,48.84384,2.3529935,474.3221,NaN,0.0,31.122583,,7 / 25,2152,2022-01-10 17:27:10:744
-0.433998,-0.228215,10.054641,-0.185606,2.336594,9.522408,-0.285038,-2.481749,-0.20934,-0.020106,-0.874689,-7.624538,37.0,-1.35,12.9,-27.3,351.2541,-9.1876,-7.7174,1.97,29.18411,48.84384,2.3529935,474.3221,NaN,0.0,31.122583,,7 / 25,2157,2022-01-10 17:27:10:749
-0.433998,-0.228215,10.054641,-0.185606,2.336594,9.522408,-0.285038,-2.481749,-0.20934,-0.020106,-0.874689,-7.624538,37.0,-1.35,12.9,-27.3,351.2541,-9.1876,-7.7174,1.97,29.18411,48.84384,2.3529935,474.3221,NaN,0.0,31.122583,,7 / 25,2162,2022-01-10 17:27:10:754
-0.433998,-0.228215,10.054641,-0.185606,2.336594,9.522408,-0.285038,-2.481749,-0.20934,-0.020106,-0.874689,-7.624538,37.0,-1.35,12.9,-27.3,351.2541,-9.1876,-7.7174,1.97,29.18411,48.84384,2.3529935,474.3221,NaN,0.0,31.122583,,7 / 25,2166,2022-01-10 17:27:10:758
-0.433998,-0.228215,10.054641,-0.185606,2.336594,9.522408,-0.285038,-2.481749,-0.20934,-0.020106,-0.874689,-7.624538,37.0,-1.35,12.9,-27.3,351.2541,-9.1876,-7.7174,1.97,29.18411,48.84384,2.3529935,474.3221,NaN,0.0,31.122583,,7 / 25,2172,2022-01-10 17:27:10:764
-0.433998,-0.228215,10.054641,-0.185606,2.336594,9.522408,-0.285038,-2.481749,-0.20934,-0.020106,-0.874689,-7.624538,37.0,-1.35,12.9,-27.3,351.2541,-9.1876,-7.7174,1.97,29.18411,48.84384,2.3529935,474.3221,NaN,0.0,31.122583,,7 / 25,2177,2022-01-10 17:27:10:769
-0.433998,-0.228215,10.054641,-0.185606,2.336594,9.522408,-0.285038,-2.481749,-0.20934,-0.020106,-0.874689,-7.624538,37.0,-1.35,12.9,-27.3,351.2541,-9.1876,-7.7174,1.97,29.18411,48.84384,2.3529935,474.3221,NaN,0.0,31.122583,,7 / 25,2182,2022-01-10 17:27:10:774
-0.433998,-0.228215,10.054641,-0.185606,2.336594,9.522408,-0.285038,-2.481749,-0.20934,-0.020106,-0.874689,-7.624538,37.0,-1.35,12.9,-27.3,351.2541,-9.1876,-7.7174,1.97,29.18411,48.84384,2.3529935,474.3221,NaN,0.0,31.122583,,7 / 25,2186,2022-01-10 17:27:10:778
-0.433998,-0.228215,10.054641,-0.185606,2.336594,9.522408,-0.285038,-2.481749,-0.20934,-0.020106,-0.874689,-7.624538,37.0,-1.35,12.9,-27.3,351.2541,-9.1876,-7.7174,1.97,29.18411,48.84384,2.3529935,474.3221,NaN,0.0,31.122583,,7 / 25,2191,2022-01-10 17:27:10:783
-0.433998,-0.228215,10.054641,-0.185606,2.336594,9.522408,-0.285038,-2.481749,-0.20934,-0.020106,-0.874689,-7.624538,37.0,-1.35,12.9,-27.3,351.2541,-9.1876,-7.7174,1.97,29.18411,48.84384,2.3529935,474.3221,NaN,0.0,31.122583,,7 / 25,2197,2022-01-10 17:27:10:789
-0.609871,2.602195,8.310572,-0.185606,2.336594,9.522408,-0.285038,-2.481749,-0.20934,-0.020106,-0.874689,-7.624538,37.0,-1.35,12.9,-27.3,351.2541,-9.1876,-7.7174,1.97,29.18411,48.84384,2.3529935,474.3221,NaN,0.0,31.122583,,7 / 25,2202,2022-01-10 17:27:10:794
-0.609871,2.602195,8.310572,-0.185606,2.336594,9.522408,-0.285038,-2.481749,-0.20934,-0.020106,-0.874689,-7.624538,37.0,-1.35,12.9,-27.3,351.2541,-9.1876,-7.7174,1.97,29.18411,48.84384,2.3529935,474.3221,NaN,0.0,31.122583,,7 / 25,2206,2022-01-10 17:27:10:798
-0.609871,2.602195,8.310572,-0.185606,2.336594,9.522408,-0.285038,-2.481749,-0.20934,-0.020106,-0.874689,-7.624538,37.0,-1.35,12.9,-27.3,351.2541,-9.1876,-7.7174,1.97,29.18411,48.84384,2.3529935,474.3221,NaN,0.0,31.122583,,7 / 25,2212,2022-01-10 17:27:10:804
-0.609871,2.602195,8.310572,-0.185606,2.336594,9.522408,-0.285038,-2.481749,-0.20934,-0.020106,-0.874689,-7.624538,37.0,-1.35,12.9,-27.3,351.2541,-9.1876,-7.7174,1.97,29.18411,48.84384,2.3529935,474.3221,NaN,0.0,31.122583,,7 / 25,2216,2022-01-10 17:27:10:808
-0.609871,2.602195,8.310572,-0.185606,2.336594,9.522408,-0.285038,-2.481749,-0.20934,-0.169239,-0.230756,-5.387017,37.0,-1.35,12.9,-27.3,351.2541,-9.1876,-7.7174,1.97,29.18411,48.84384,2.3529935,474.3221,NaN,0.0,31.122583,,7 / 25,2222,2022-01-10 17:27:10:814
-0.609871,2.602195,8.310572,-0.185606,2.336594,9.522408,-0.285038,-2.481749,-0.20934,-0.169239,-0.230756,-5.387017,37.0,-1.35,12.9,-27.3,351.2541,-9.1876,-7.7174,1.97,29.18411,48.84384,2.3529935,474.3221,NaN,0.0,31.122583,,7 / 25,2227,2022-01-10 17:27:10:819
-0.609871,2.602195,8.310572,-0.185606,2.336594,9.522408,-0.285038,-2.481749,-0.20934,-0.169239,-0.230756,-5.387017,37.0,-1.35,12.9,-27.3,351.2541,-9.1876,-7.7174,1.97,29.18411,48.84384,2.3529935,474.3221,NaN,0.0,31.122583,,7 / 25,2231,2022-01-10 17:27:10:823
-0.609871,2.602195,8.310572,-0.185606,2.336594,9.522408,-0.285038,-2.481749,-0.20934,-0.169239,-0.230756,-5.387017,37.0,-1.35,12.9,-27.3,351.2541,-9.1876,-7.7174,1.97,29.18411,48.84384,2.3529935,474.3221,NaN,0.0,31.122583,,7 / 25,2236,2022-01-10 17:27:10:828
-0.609871,2.602195,8.310572,-0.185606,2.336594,9.522408,-0.285038,-2.481749,-0.20934,-0.169239,-0.230756,-5.387017,37.0,-1.35,12.9,-27.3,351.2541,-9.1876,-7.7174,1.97,29.18411,48.84384,2.3529935,474.3221,NaN,0.0,31.122583,,7 / 25,2242,2022-01-10 17:27:10:834
-0.609871,2.602195,8.310572,-0.185606,2.336594,9.522408,-0.285038,-2.481749,-0.20934,-0.169239,-0.230756,-5.387017,37.0,-1.35,12.9,-27.3,351.2541,-9.1876,-7.7174,1.97,29.18411,48.84384,2.3529935,474.3221,NaN,0.0,31.122583,,7 / 25,2247,2022-01-10 17:27:10:839
-0.609871,2.602195,8.310572,-0.185606,2.336594,9.522408,-0.285038,-2.481749,-0.20934,-0.169239,-0.230756,-5.387017,37.0,-1.35,12.9,-27.3,351.2541,-9.1876,-7.7174,1.97,29.18411,48.84384,2.3529935,474.3221,NaN,0.0,31.122583,,7 / 25,2252,2022-01-10 17:27:10:844
-0.609871,2.602195,8.310572,-0.185606,2.336594,9.522408,-0.285038,-2.481749,-0.20934,-0.169239,-0.230756,-5.387017,37.0,-1.35,12.9,-27.3,351.2541,-9.1876,-7.7174,1.97,29.18411,48.84384,2.3529935,474.3221,NaN,0.0,31.122583,,7 / 25,2256,2022-01-10 17:27:10:848
-0.609871,2.602195,8.310572,-0.185606,2.336594,9.522408,-0.285038,-2.481749,-0.20934,-0.169239,-0.230756,-5.387017,37.0,-13.95,-0.825,-26.85,69.619,-13.7842,1.1166,1.97,29.18411,48.84384,2.3529935,474.3221,NaN,0.0,31.122583,,7 / 25,2262,2022-01-10 17:27:10:854
-0.609871,2.602195,8.310572,-0.185606,2.336594,9.522408,-0.285038,-2.481749,-0.20934,-0.169239,-0.230756,-5.387017,37.0,-13.95,-0.825,-26.85,69.619,-13.7842,1.1166,1.97,29.18411,48.84384,2.3529935,474.3221,NaN,0.0,31.122583,,7 / 25,2267,2022-01-10 17:27:10:859
-0.609871,2.602195,8.310572,-1.636007,1.532872,9.546947,0.419431,0.638368,-0.696544,-0.169239,-0.230756,-5.387017,37.0,-13.95,-0.825,-26.85,69.619,-13.7842,1.1166,1.97,29.18411,48.84384,2.3529935,474.3221,NaN,0.0,31.122583,,7 / 25,2272,2022-01-10 17:27:10:864
-0.609871,2.602195,8.310572,-1.636007,1.532872,9.546947,0.419431,0.638368,-0.696544,-0.169239,-0.230756,-5.387017,37.0,-13.95,-0.825,-26.85,69.619,-13.7842,1.1166,1.97,29.18411,48.84384,2.3529935,474.3221,NaN,0.0,31.122583,,7 / 25,2277,2022-01-10 17:27:10:869
-0.609871,2.602195,8.310572,-1.636007,1.532872,9.546947,0.419431,0.638368,-0.696544,-0.169239,-0.230756,-5.387017,37.0,-13.95,-0.825,-26.85,69.619,-13.7842,1.1166,1.97,29.18411,48.84384,2.3529935,474.3221,NaN,0.0,31.122583,,7 / 25,2282,2022-01-10 17:27:10:874
-0.609871,2.602195,8.310572,-1.636007,1.532872,9.546947,0.419431,0.638368,-0.696544,-0.169239,-0.230756,-5.387017,37.0,-13.95,-0.825,-26.85,69.619,-13.7842,1.1166,1.97,29.18411,48.84384,2.3529935,474.3221,NaN,0.0,31.122583,,7 / 25,2287,2022-01-10 17:27:10:879
-0.609871,2.602195,8.310572,-1.636007,1.532872,9.546947,0.419431,0.638368,-0.696544,-0.169239,-0.230756,-5.387017,37.0,-13.95,-0.825,-26.85,69.619,-13.7842,1.1166,1.97,29.18411,48.84384,2.3529935,474.3221,NaN,0.0,31.122583,,7 / 25,2291,2022-01-10 17:27:10:883
-2.665305,0.925424,8.882157,-1.636007,1.532872,9.546947,0.419431,0.638368,-0.696544,-0.169239,-0.230756,-5.387017,87.0,-13.95,-0.825,-26.85,69.619,-13.7842,1.1166,1.97,29.18411,48.84384,2.3529935,474.3221,NaN,0.0,31.122583,,7 / 25,2298,2022-01-10 17:27:10:890
-2.665305,0.925424,8.882157,-1.636007,1.532872,9.546947,0.419431,0.638368,-0.696544,-0.169239,-0.230756,-5.387017,87.0,-13.95,-0.825,-26.85,69.619,-13.7842,1.1166,1.97,29.18411,48.84384,2.3529935,474.3221,NaN,0.0,31.122583,,7 / 25,2302,2022-01-10 17:27:10:894
-2.665305,0.925424,8.882157,-1.636007,1.532872,9.546947,0.419431,0.638368,-0.696544,-0.169239,-0.230756,-5.387017,87.0,-13.95,-0.825,-26.85,69.619,-13.7842,1.1166,1.97,28.00743,48.84384,2.3529935,474.3221,NaN,0.0,31.122583,,7 / 25,2306,2022-01-10 17:27:10:898
-2.665305,0.925424,8.882157,-1.636007,1.532872,9.546947,0.419431,0.638368,-0.696544,-0.169239,-0.230756,-5.387017,87.0,-13.95,-0.825,-26.85,69.619,-13.7842,1.1166,1.97,28.00743,48.84384,2.3529935,474.3221,NaN,0.0,31.122583,,7 / 25,2312,2022-01-10 17:27:10:904
-2.665305,0.925424,8.882157,-1.636007,1.532872,9.546947,0.419431,0.638368,-0.696544,-0.169239,-0.230756,-5.387017,87.0,-13.95,-0.825,-26.85,69.619,-13.7842,1.1166,1.97,28.00743,48.84384,2.3529935,474.3221,NaN,0.0,31.122583,,7 / 25,2316,2022-01-10 17:27:10:908
-2.665305,0.925424,8.882157,-1.636007,1.532872,9.546947,0.419431,0.638368,-0.696544,-0.169239,-0.230756,-5.387017,87.0,-13.95,-0.825,-26.85,69.619,-13.7842,1.1166,1.97,28.00743,48.84384,2.3529935,474.3221,NaN,0.0,31.122583,,7 / 25,2321,2022-01-10 17:27:10:913
-2.665305,0.925424,8.882157,-1.636007,1.532872,9.546947,0.419431,0.638368,-0.696544,-0.169239,-0.230756,-5.387017,87.0,-13.95,-0.825,-26.85,69.619,-13.7842,1.1166,1.97,28.00743,48.84384,2.3529935,474.3221,NaN,0.0,31.122583,,7 / 25,2327,2022-01-10 17:27:10:919
