ACCELEROMETER X (m/s²),ACCELEROMETER Y (m/s²),ACCELEROMETER Z (m/s²),GRAVITY X (m/s²),GRAVITY Y (m/s²),GRAVITY Z (m/s²),LINEAR ACCELERATION X (m/s²),LINEAR ACCELERATION Y (m/s²),LINEAR ACCELERATION Z (m/s²),GYROSCOPE X (rad/s),GYROSCOPE Y (rad/s),GYROSCOPE Z (rad/s),LIGHT (lux),MAGNETIC FIELD X (μT),MAGNETIC FIELD Y (μT),MAGNETIC FIELD Z (μT),ORIENTATION Z (azimuth °),ORIENTATION X (pitch °),ORIENTATION Y (roll °),PROXIMITY (i),SOUND LEVEL (dB),LOCATION Latitude : ,LOCATION Longitude : ,LOCATION Altitude ( m),LOCATION Altitude-google ( m),LOCATION Speed ( Kmh),LOCATION Accuracy ( m),LOCATION ORIENTATION (°),Satellites in range,Time since start in ms ,YYYY-MO-DD HH-MI-SS_SSS
-0.479462,1.495514,9.746864,-0.38628,1.432137,9.693821,0.024558,0.132118,0.327302,-0.111583,-0.023302,-0.013981,34.0,7.425,-26.925,-28.875,194.5882,-8.3974,2.2819,1.97,19.85384,48.84384,2.3529906,491.8185,NaN,0.0,24.206451,,8 / 25,9,2022-01-10 17:27:00:083
-0.479462,1.495514,9.746864,-0.38628,1.432137,9.693821,0.024558,0.132118,0.327302,-0.111583,-0.023302,-0.013981,34.0,7.425,-26.925,-28.875,194.5882,-8.3974,2.2819,1.97,19.85384,48.84384,2.3529906,491.8185,NaN,0.0,24.206451,,8 / 25,13,2022-01-10 17:27:00:087
-0.479462,1.495514,9.746864,-0.38628,1.432137,9.693821,0.024558,0.132118,0.327302,-0.111583,-0.023302,-0.013981,34.0,7.425,-26.925,-28.875,194.5882,-8.3974,2.2819,1.97,19.85384,48.84384,2.3529906,491.8185,NaN,0.0,24.206451,,8 / 25,19,2022-01-10 17:27:00:093
-0.479462,1.495514,9.746864,-0.38628,1.432137,9.693821,0.024558,0.132118,0.327302,-0.111583,-0.023302,-0.013981,34.0,7.425,-26.925,-28.875,194.5882,-8.3974,2.2819,1.97,19.85384,48.84384,2.3529906,491.8185,NaN,0.0,24.206451,,8 / 25,23,2022-01-10 17:27:00:097
-0.479462,1.495514,9.746864,-0.38628,1.432137,9.693821,0.024558,0.132118,0.327302,-0.111583,-0.023302,-0.013981,34.0,7.425,-26.925,-28.875,194.5882,-8.3974,2.2819,1.97,19.85384,48.84384,2.3529906,491.8185,NaN,0.0,24.206451,,8 / 25,29,2022-01-10 17:27:00:103
-0.479462,1.495514,9.746864,-0.38628,1.432137,9.693821,0.024558,0.132118,0.327302,-0.111583,-0.023302,-0.013981,34.0,7.425,-26.925,-28.875,194.5882,-8.3974,2.2819,1.97,19.85384,48.84384,2.3529906,491.8185,NaN,0.0,24.206451,,8 / 25,34,2022-01-10 17:27:00:108
-0.479462,1.495514,9.746864,-0.38628,1.432137,9.693821,0.024558,0.132118,0.327302,-0.111583,-0.023302,-0.013981,34.0,7.425,-26.925,-28.875,194.5882,-8.3974,2.2819,1.97,19.85384,48.84384,2.3529906,491.8185,NaN,0.0,24.206451,,8 / 25,38,2022-01-10 17:27:00:112
-0.479462,1.495514,9.746864,-0.38628,1.432137,9.693821,0.024558,0.132118,0.327302,-0.111583,-0.023302,-0.013981,34.0,7.425,-26.925,-28.875,194.5882,-8.3974,2.2819,1.97,19.85384,48.84384,2.3529906,491.8185,NaN,0.0,24.206451,,8 / 25,44,2022-01-10 17:27:00:118
-0.479462,1.495514,9.746864,-0.38628,1.432137,9.693821,0.024558,0.132118,0.327302,-0.111583,-0.023302,-0.013981,34.0,7.425,-26.925,-28.875,194.5882,-8.3974,2.2819,1.97,19.85384,48.84384,2.3529906,491.8185,NaN,0.0,24.206451,,8 / 25,48,2022-01-10 17:27:00:122
-0.479462,1.495514,9.746864,-0.38628,1.432137,9.693821,0.024558,0.132118,0.327302,-0.111583,-0.023302,-0.013981,34.0,7.425,-26.925,-28.875,194.5882,-8.3974,2.2819,1.97,19.85384,48.84384,2.3529906,491.8185,NaN,0.0,24.206451,,8 / 25,54,2022-01-10 17:27:00:128
-0.420838,1.484747,9.625728,-0.406042,1.42481,9.694093,-0.034087,0.146487,0.28509,-0.111583,-0.023302,-0.013981,34.0,7.425,-26.925,-28.875,194.5882,-8.3974,2.2819,1.97,19.85384,48.84384,2.3529906,491.8185,NaN,0.0,24.206451,,8 / 25,60,2022-01-10 17:27:00:134
-0.420838,1.484747,9.625728,-0.406042,1.42481,9.694093,-0.034087,0.146487,0.28509,-0.111583,-0.023302,-0.013981,34.0,7.425,-26.925,-28.875,194.5882,-8.3974,2.2819,1.97,19.85384,48.84384,2.3529906,491.8185,NaN,0.0,24.206451,,8 / 25,64,2022-01-10 17:27:00:138
-0.420838,1.484747,9.625728,-0.406042,1.42481,9.694093,-0.034087,0.146487,0.28509,-0.111583,-0.023302,-0.013981,34.0,7.425,-26.925,-28.875,194.5882,-8.3974,2.2819,1.97,19.85384,48.84384,2.3529906,491.8185,NaN,0.0,24.206451,,8 / 25,73,2022-01-10 17:27:00:147
-0.420838,1.484747,9.625728,-0.406042,1.42481,9.694093,-0.034087,0.146487,0.28509,-0.111583,-0.023302,-0.013981,34.0,7.425,-26.925,-28.875,194.5882,-8.3974,2.2819,1.97,19.85384,48.84384,2.3529906,491.8185,NaN,0.0,24.206451,,8 / 25,77,2022-01-10 17:27:00:151
-0.420838,1.484747,9.625728,-0.406042,1.42481,9.694093,-0.034087,0.146487,0.28509,-0.111583,-0.023302,-0.013981,34.0,7.425,-26.925,-28.875,194.5882,-8.3974,2.2819,1.97,19.85384,48.84384,2.3529906,491.8185,NaN,0.0,24.206451,,8 / 25,78,2022-01-10 17:27:00:152
-0.420838,1.484747,9.625728,-0.406042,1.42481,9.694093,-0.034087,0.146487,0.28509,-0.009853,0.01012,-0.038482,34.0,7.425,-26.925,-28.875,194.5882,-8.3974,2.2819,1.97,19.85384,48.84384,2.3529906,491.8185,NaN,0.0,24.206451,,8 / 25,90,2022-01-10 17:27:00:164
-0.420838,1.484747,9.625728,-0.406042,1.42481,9.694093,-0.034087,0.146487,0.28509,-0.009853,0.01012,-0.038482,34.0,7.425,-26.925,-28.875,194.5882,-8.3974,2.2819,1.97,19.85384,48.84384,2.3529906,491.8185,NaN,0.0,24.206451,,8 / 25,91,2022-01-10 17:27:00:165
-0.420838,1.484747,9.625728,-0.406042,1.42481,9.694093,-0.034087,0.146487,0.28509,-0.009853,0.01012,-0.038482,34.0,7.425,-26.925,-28.875,194.5882,-8.3974,2.2819,1.97,19.85384,48.84384,2.3529906,491.8185,NaN,0.0,24.206451,,8 / 25,94,2022-01-10 17:27:00:168
-0.420838,1.484747,9.625728,-0.406042,1.42481,9.694093,-0.034087,0.146487,0.28509,-0.009853,0.01012,-0.038482,34.0,7.425,-26.925,-28.875,194.5882,-8.3974,2.2819,1.97,19.85384,48.84384,2.3529906,491.8185,NaN,0.0,24.206451,,8 / 25,98,2022-01-10 17:27:00:172
-0.420838,1.484747,9.625728,-0.406042,1.42481,9.694093,-0.034087,0.146487,0.28509,-0.009853,0.01012,-0.038482,34.0,7.425,-26.925,-28.875,194.5882,-8.3974,2.2819,1.97,19.85384,48.84384,2.3529906,491.8185,NaN,0.0,24.206451,,8 / 25,104,2022-01-10 17:27:00:178
-0.420838,1.484747,9.625728,-0.406042,1.42481,9.694093,-0.034087,0.146487,0.28509,-0.009853,0.01012,-0.038482,34.0,7.425,-26.925,-28.875,194.5882,-8.3974,2.2819,1.97,19.91158,48.84384,2.3529906,491.8185,NaN,0.0,24.206451,,8 / 25,109,2022-01-10 17:27:00:183
-0.420838,1.484747,9.625728,-0.406042,1.42481,9.694093,-0.034087,0.146487,0.28509,-0.009853,0.01012,-0.038482,34.0,7.425,-26.925,-28.875,194.5882,-8.3974,2.2819,1.97,19.91158,48.84384,2.3529906,491.8185,NaN,0.0,24.206451,,8 / 25,114,2022-01-10 17:27:00:188
-0.420838,1.484747,9.625728,-0.406042,1.42481,9.694093,-0.034087,0.146487,0.28509,-0.009853,0.01012,-0.038482,34.0,7.425,-26.925,-28.875,194.5882,-8.3974,2.2819,1.97,19.91158,48.84384,2.3529906,491.8185,NaN,0.0,24.206451,,8 / 25,119,2022-01-10 17:27:00:193
-0.420838,1.484747,9.625728,-0.406042,1.42481,9.694093,-0.034087,0.146487,0.28509,-0.009853,0.01012,-0.038482,34.0,7.425,-26.925,-28.875,194.5882,-8.3974,2.2819,1.97,19.91158,48.84384,2.3529906,491.8185,NaN,0.0,24.206451,,8 / 25,123,2022-01-10 17:27:00:197
-0.420838,1.484747,9.625728,-0.406042,1.42481,9.694093,-0.034087,0.146487,0.28509,-0.009853,0.01012,-0.038482,34.0,7.425,-26.925,-28.875,194.5882,-8.3974,2.2819,1.97,19.91158,48.84384,2.3529906,491.8185,NaN,0.0,24.206451,,8 / 25,129,2022-01-10 17:27:00:203
-0.420838,1.484747,9.625728,-0.406042,1.42481,9.694093,-0.034087,0.146487,0.28509,-0.009853,0.01012,-0.038482,34.0,7.425,-26.925,-28.875,194.5882,-8.3974,2.2819,1.97,19.91158,48.84384,2.3529906,491.8185,NaN,0.0,24.206451,,8 / 25,133,2022-01-10 17:27:00:207
-0.420838,1.484747,9.625728,-0.406042,1.42481,9.694093,-0.034087,0.146487,0.28509,-0.009853,0.01012,-0.038482,34.0,7.425,-26.925,-28.875,194.5882,-8.3974,2.2819,1.97,19.91158,48.84384,2.3529906,491.8185,NaN,0.0,24.206451,,8 / 25,139,2022-01-10 17:27:00:213
-0.420838,1.484747,9.625728,-0.406042,1.42481,9.694093,-0.034087,0.146487,0.28509,-0.009853,0.01012,-0.038482,34.0,7.425,-26.925,-28.875,194.5882,-8.3974,2.2819,1.97,19.91158,48.84384,2.3529906,491.8185,NaN,0.0,24.206451,,8 / 25,144,2022-01-10 17:27:00:218
-0.420838,1.484747,9.625728,-0.406042,1.42481,9.694093,-0.034087,0.146487,0.28509,-0.009853,0.01012,-0.038482,34.0,7.425,-26.925,-28.875,194.5882,-8.3974,2.2819,1.97,19.91158,48.84384,2.3529906,491.8185,NaN,0.0,24.206451,,8 / 25,148,2022-01-10 17:27:00:222
-0.471087,1.416551,9.649655,-0.406042,1.42481,9.694093,-0.034087,0.146487,0.28509,-0.009853,0.01012,-0.038482,34.0,7.425,-26.925,-28.875,194.5882,-8.3974,2.2819,1.97,19.91158,48.84384,2.3529906,491.8185,NaN,0.0,24.206451,,8 / 25,154,2022-01-10 17:27:00:228
-0.471087,1.416551,9.649655,-0.406042,1.42481,9.694093,-0.034087,0.146487,0.28509,-0.009853,0.01012,-0.038482,34.0,7.425,-26.925,-28.875,194.5882,-8.3974,2.2819,1.97,19.91158,48.84384,2.3529906,491.8185,NaN,0.0,24.206451,,8 / 25,159,2022-01-10 17:27:00:233
-0.471087,1.416551,9.649655,-0.406042,1.42481,9.694093,-0.034087,0.146487,0.28509,-0.009853,0.01012,-0.038482,34.0,7.425,-26.925,-28.875,194.5882,-8.3974,2.2819,1.97,19.91158,48.84384,2.3529906,491.8185,NaN,0.0,24.206451,,8 / 25,163,2022-01-10 17:27:00:237
-0.471087,1.416551,9.649655,-0.406042,1.42481,9.694093,-0.034087,0.146487,0.28509,-0.009853,0.01012,-0.038482,34.0,7.425,-26.925,-28.875,194.5882,-8.3974,2.2819,1.97,19.91158,48.84384,2.3529906,491.8185,NaN,0.0,24.206451,,8 / 25,169,2022-01-10 17:27:00:243
-0.471087,1.416551,9.649655,-0.406042,1.42481,9.694093,-0.034087,0.146487,0.28509,-0.009853,0.01012,-0.038482,34.0,7.425,-26.925,-28.875,194.5882,-8.3974,2.2819,1.97,19.91158,48.84384,2.3529906,491.8185,NaN,0.0,24.206451,,8 / 25,174,2022-01-10 17:27:00:248
-0.471087,1.416551,9.649655,-0.406042,1.42481,9.694093,-0.034087,0.146487,0.28509,-0.009853,0.01012,-0.038482,34.0,7.2,-26.775,-28.5,194.4316,-8.3541,2.3985,1.97,19.91158,48.84384,2.3529906,491.8185,NaN,0.0,24.206451,,8 / 25,181,2022-01-10 17:27:00:255
-0.471087,1.416551,9.649655,-0.406042,1.42481,9.694093,-0.034087,0.146487,0.28509,-0.009853,0.01012,-0.038482,34.0,7.2,-26.775,-28.5,194.4316,-8.3541,2.3985,1.97,19.91158,48.84384,2.3529906,491.8185,NaN,0.0,24.206451,,8 / 25,184,2022-01-10 17:27:00:258
-0.471087,1.416551,9.649655,-0.406042,1.42481,9.694093,-0.034087,0.146487,0.28509,-0.009853,0.01012,-0.038482,34.0,7.2,-26.775,-28.5,194.4316,-8.3541,2.3985,1.97,19.91158,48.84384,2.3529906,491.8185,NaN,0.0,24.206451,,8 / 25,189,2022-01-10 17:27:00:263
-0.471087,1.416551,9.649655,-0.408653,1.422472,9.694326,-0.074746,0.030836,0.209986,-0.009853,0.01012,-0.038482,34.0,7.2,-26.775,-28.5,194.4316,-8.3541,2.3985,1.97,19.91158,48.84384,2.3529906,491.8185,NaN,0.0,24.206451,,8 / 25,194,2022-01-10 17:27:00:268
-0.471087,1.416551,9.649655,-0.408653,1.422472,9.694326,-0.074746,0.030836,0.209986,-0.009853,0.01012,-0.038482,34.0,7.2,-26.775,-28.5,194.4316,-8.3541,2.3985,1.97,19.91158,48.84384,2.3529906,491.8185,NaN,0.0,24.206451,,8 / 25,198,2022-01-10 17:27:00:272
-0.471087,1.416551,9.649655,-0.408653,1.422472,9.694326,-0.074746,0.030836,0.209986,0.016245,-0.019707,-0.026098,34.0,7.2,-26.775,-28.5,194.4316,-8.3541,2.3985,1.97,19.91158,48.84384,2.3529906,491.8185,NaN,0.0,24.206451,,8 / 25,203,2022-01-10 17:27:00:277
-0.471087,1.416551,9.649655,-0.408653,1.422472,9.694326,-0.074746,0.030836,0.209986,0.016245,-0.019707,-0.026098,34.0,7.2,-26.775,-28.5,194.4316,-8.3541,2.3985,1.97,19.91158,48.84384,2.3529906,491.8185,NaN,0.0,24.206451,,8 / 25,209,2022-01-10 17:27:00:283
-0.471087,1.416551,9.649655,-0.408653,1.422472,9.694326,-0.074746,0.030836,0.209986,0.016245,-0.019707,-0.026098,34.0,7.2,-26.775,-28.5,194.4316,-8.3541,2.3985,1.97,19.91158,48.84384,2.3529906,491.8185,NaN,0.0,24.206451,,8 / 25,214,2022-01-10 17:27:00:288
-0.471087,1.416551,9.649655,-0.408653,1.422472,9.694326,-0.074746,0.030836,0.209986,0.016245,-0.019707,-0.026098,34.0,7.2,-26.775,-28.5,194.4316,-8.3541,2.3985,1.97,19.91158,48.84384,2.3529906,491.8185,NaN,0.0,24.206451,,8 / 25,218,2022-01-10 17:27:00:292
-0.471087,1.416551,9.649655,-0.408653,1.422472,9.694326,-0.074746,0.030836,0.209986,0.016245,-0.019707,-0.026098,34.0,7.2,-26.775,-28.5,194.4316,-8.3541,2.3985,1.97,19.91158,48.84384,2.3529906,491.8185,NaN,0.0,24.206451,,8 / 25,224,2022-01-10 17:27:00:298
-0.471087,1.416551,9.649655,-0.408653,1.422472,9.694326,-0.074746,0.030836,0.209986,0.016245,-0.019707,-0.026098,34.0,7.2,-26.775,-28.5,194.4316,-8.3541,2.3985,1.97,19.91158,48.84384,2.3529906,491.8185,NaN,0.0,24.206451,,8 / 25,229,2022-01-10 17:27:00:303
-0.471087,1.416551,9.649655,-0.408653,1.422472,9.694326,-0.074746,0.030836,0.209986,0.016245,-0.019707,-0.026098,34.0,7.2,-26.775,-28.5,194.4316,-8.3541,2.3985,1.97,19.91158,48.84384,2.3529906,491.8185,NaN,0.0,24.206451,,8 / 25,234,2022-01-10 17:27:00:308
-0.546461,1.397109,9.681062,-0.408653,1.422472,9.694326,-0.074746,0.030836,0.209986,0.016245,-0.019707,-0.026098,34.0,7.2,-26.775,-28.5,194.4316,-8.3541,2.3985,1.97,19.91158,48.84384,2.3529906,491.8185,NaN,0.0,24.206451,,8 / 25,239,2022-01-10 17:27:00:313
-0.546461,1.397109,9.681062,-0.408653,1.422472,9.694326,-0.074746,0.030836,0.209986,0.016245,-0.019707,-0.026098,34.0,7.2,-26.775,-28.5,194.4316,-8.3541,2.3985,1.97,19.91158,48.84384,2.3529906,491.8185,NaN,0.0,24.206451,,8 / 25,244,2022-01-10 17:27:00:318
-0.546461,1.397109,9.681062,-0.408653,1.422472,9.694326,-0.074746,0.030836,0.209986,0.016245,-0.019707,-0.026098,34.0,7.2,-26.775,-28.5,194.4316,-8.3541,2.3985,1.97,19.91158,48.84384,2.3529906,491.8185,NaN,0.0,24.206451,,8 / 25,249,2022-01-10 17:27:00:323
-0.546461,1.397109,9.681062,-0.408653,1.422472,9.694326,-0.074746,0.030836,0.209986,0.016245,-0.019707,-0.026098,34.0,7.2,-26.775,-28.5,194.4316,-8.3541,2.3985,1.97,19.91158,48.84384,2.3529906,491.8185,NaN,0.0,24.206451,,8 / 25,254,2022-01-10 17:27:00:328
-0.546461,1.397109,9.681062,-0.408653,1.422472,9.694326,-0.074746,0.030836,0.209986,0.016245,-0.019707,-0.026098,34.0,7.2,-26.775,-28.5,194.4316,-8.3541,2.3985,1.97,19.91158,48.84384,2.3529906,491.8185,NaN,0.0,24.206451,,8 / 25,258,2022-01-10 17:27:00:332
-0.546461,1.397109,9.681062,-0.408653,1.422472,9.694326,-0.074746,0.030836,0.209986,0.016245,-0.019707,-0.026098,34.0,7.2,-26.775,-28.5,194.4316,-8.3541,2.3985,1.97,19.91158,48.84384,2.3529906,491.8185,NaN,0.0,24.206451,,8 / 25,264,2022-01-10 17:27:00:338
-0.546461,1.397109,9.681062,-0.408653,1.422472,9.694326,-0.074746,0.030836,0.209986,0.016245,-0.019707,-0.026098,34.0,7.2,-26.775,-28.5,194.4316,-8.3541,2.3985,1.97,19.91158,48.84384,2.3529906,491.8185,NaN,0.0,24.206451,,8 / 25,270,2022-01-10 17:27:00:344
-0.546461,1.397109,9.681062,-0.408653,1.422472,9.694326,-0.074746,0.030836,0.209986,0.016245,-0.019707,-0.026098,34.0,7.2,-26.775,-28.5,194.4316,-8.3541,2.3985,1.97,19.91158,48.84384,2.3529906,491.8185,NaN,0.0,24.206451,,8 / 25,274,2022-01-10 17:27:00:348
-0.546461,1.397109,9.681062,-0.408653,1.422472,9.694326,-0.074746,0.030836,0.209986,0.016245,-0.019707,-0.026098,34.0,7.2,-26.775,-28.5,194.4316,-8.3541,2.3985,1.97,19.91158,48.84384,2.3529906,491.8185,NaN,0.0,24.206451,,8 / 25,279,2022-01-10 17:27:00:353
-0.546461,1.397109,9.681062,-0.408653,1.422472,9.694326,-0.074746,0.030836,0.209986,0.016245,-0.019707,-0.026098,34.0,7.2,-26.775,-28.5,194.4316,-8.3541,2.3985,1.97,19.91158,48.84384,2.3529906,491.8185,NaN,0.0,24.206451,,8 / 25,284,2022-01-10 17:27:00:358
-0.546461,1.397109,9.681062,-0.408653,1.422472,9.694326,-0.074746,0.030836,0.209986,0.016245,-0.019707,-0.026098,34.0,7.2,-26.775,-28.5,194.4316,-8.3541,2.3985,1.97,19.91158,48.84384,2.3529906,491.8185,NaN,0.0,24.206451,,8 / 25,289,2022-01-10 17:27:00:363
-0.546461,1.397109,9.681062,-0.408653,1.422472,9.694326,-0.074746,0.030836,0.209986,0.016245,-0.019707,-0.026098,34.0,7.2,-26.775,-28.5,194.4316,-8.3541,2.3985,1.97,19.91158,48.84384,2.3529906,491.8185,NaN,0.0,24.206451,,8 / 25,294,2022-01-10 17:27:00:368
-0.546461,1.397109,9.681062,-0.424494,1.427772,9.692866,-0.044038,0.001866,0.133337,0.016245,-0.019707,-0.026098,34.0,7.2,-26.775,-28.5,194.4316,-8.3541,2.3985,1.97,19.91158,48.84384,2.3529906,491.8185,NaN,0.0,24.206451,,8 / 25,302,2022-01-10 17:27:00:376
-0.546461,1.397109,9.681062,-0.424494,1.427772,9.692866,-0.044038,0.001866,0.133337,0.016245,-0.019707,-0.026098,34.0,7.2,-26.775,-28.5,194.4316,-8.3541,2.3985,1.97,19.91158,48.84384,2.3529906,491.8185,NaN,0.0,24.206451,,8 / 25,310,2022-01-10 17:27:00:384
-0.546461,1.397109,9.681062,-0.424494,1.427772,9.692866,-0.044038,0.001866,0.133337,0.016245,-0.019707,-0.026098,34.0,7.2,-26.775,-28.5,194.4316,-8.3541,2.3985,1.97,19.91158,48.84384,2.3529906,491.8185,NaN,0.0,24.206451,,8 / 25,311,2022-01-10 17:27:00:385
-0.546461,1.397109,9.681062,-0.424494,1.427772,9.692866,-0.044038,0.001866,0.133337,0.016245,-0.019707,-0.026098,34.0,7.2,-26.775,-28.5,194.4316,-8.3541,2.3985,1.97,19.91158,48.84384,2.3529906,491.8185,NaN,0.0,24.206451,,8 / 25,314,2022-01-10 17:27:00:388
-0.546461,1.397109,9.681062,-0.424494,1.427772,9.692866,-0.044038,0.001866,0.133337,0.016245,-0.019707,-0.026098,34.0,7.2,-26.775,-28.5,194.4316,-8.3541,2.3985,1.97,19.91158,48.84384,2.3529906,491.8185,NaN,0.0,24.206451,,8 / 25,319,2022-01-10 17:27:00:393
-0.546461,1.397109,9.681062,-0.424494,1.427772,9.692866,-0.044038,0.001866,0.133337,0.016245,-0.019707,-0.026098,34.0,7.2,-26.775,-28.5,194.4316,-8.3541,2.3985,1.97,19.91158,48.84384,2.3529906,491.8185,NaN,0.0,24.206451,,8 / 25,324,2022-01-10 17:27:00:398
-0.546461,1.397109,9.681062,-0.424494,1.427772,9.692866,-0.044038,0.001866,0.133337,0.016245,-0.019707,-0.026098,34.0,7.2,-26.775,-28.5,194.4316,-8.3541,2.3985,1.97,19.91158,48.843838,2.3530045,485.9529,NaN,0.0,20.748388,,8 / 25,328,2022-01-10 17:27:00:402
-0.546461,1.397109,9.681062,-0.424494,1.427772,9.692866,-0.044038,0.001866,0.133337,0.016245,-0.019707,-0.026098,34.0,7.2,-26.775,-28.5,194.4316,-8.3541,2.3985,1.97,19.91158,48.843838,2.3530045,485.9529,NaN,0.0,20.748388,,8 / 25,334,2022-01-10 17:27:00:408
-0.514158,1.38036,9.558728,-0.424494,1.427772,9.692866,-0.044038,0.001866,0.133337,0.023169,0.051131,-0.005326,34.0,7.2,-26.775,-28.5,194.4316,-8.3541,2.3985,1.97,19.91158,48.843838,2.3530045,485.9529,NaN,0.0,20.748388,,8 / 25,339,2022-01-10 17:27:00:413
-0.514158,1.38036,9.558728,-0.424494,1.427772,9.692866,-0.044038,0.001866,0.133337,0.023169,0.051131,-0.005326,34.0,7.2,-26.775,-28.5,194.4316,-8.3541,2.3985,1.97,19.91158,48.843838,2.3530045,485.9529,NaN,0.0,20.748388,,8 / 25,344,2022-01-10 17:27:00:418
-0.514158,1.38036,9.558728,-0.424494,1.427772,9.692866,-0.044038,0.001866,0.133337,0.023169,0.051131,-0.005326,34.0,7.2,-26.775,-28.5,194.4316,-8.3541,2.3985,1.97,19.91158,48.843838,2.3530045,485.9529,NaN,0.0,20.748388,,8 / 25,348,2022-01-10 17:27:00:422
-0.514158,1.38036,9.558728,-0.424494,1.427772,9.692866,-0.044038,0.001866,0.133337,0.023169,0.051131,-0.005326,34.0,7.2,-26.775,-28.5,194.4316,-8.3541,2.3985,1.97,19.91158,48.843838,2.3530045,485.9529,NaN,0.0,20.748388,,8 / 25,355,2022-01-10 17:27:00:429
-0.514158,1.38036,9.558728,-0.424494,1.427772,9.692866,-0.044038,0.001866,0.133337,0.023169,0.051131,-0.005326,34.0,7.2,-26.775,-28.5,194.4316,-8.3541,2.3985,1.97,19.91158,48.843838,2.3530045,485.9529,NaN,0.0,20.748388,,8 / 25,359,2022-01-10 17:27:00:433
-0.514158,1.38036,9.558728,-0.424494,1.427772,9.692866,-0.044038,0.001866,0.133337,0.023169,0.051131,-0.005326,34.0,7.2,-26.775,-28.5,194.4316,-8.3541,2.3985,1.97,19.91158,48.843838,2.3530045,485.9529,NaN,0.0,20.748388,,8 / 25,364,2022-01-10 17:27:00:438
-0.514158,1.38036,9.558728,-0.424494,1.427772,9.692866,-0.044038,0.001866,0.133337,0.023169,0.051131,-0.005326,34.0,7.2,-26.775,-28.5,194.4316,-8.3541,2.3985,1.97,19.91158,48.843838,2.3530045,485.9529,NaN,0.0,20.748388,,8 / 25,371,2022-01-10 17:27:00:445
-0.514158,1.38036,9.558728,-0.424494,1.427772,9.692866,-0.044038,0.001866,0.133337,0.023169,0.051131,-0.005326,34.0,7.2,-26.775,-28.5,194.4316,-8.3541,2.3985,1.97,19.91158,48.843838,2.3530045,485.9529,NaN,0.0,20.748388,,8 / 25,374,2022-01-10 17:27:00:448
-0.514158,1.38036,9.558728,-0.424494,1.427772,9.692866,-0.044038,0.001866,0.133337,0.023169,0.051131,-0.005326,34.0,7.275,-26.325,-28.725,194.9358,-8.3716,2.5076,1.97,19.91158,48.843838,2.3530045,485.9529,NaN,0.0,20.748388,,8 / 25,379,2022-01-10 17:27:00:453
-0.514158,1.38036,9.558728,-0.424494,1.427772,9.692866,-0.044038,0.001866,0.133337,0.023169,0.051131,-0.005326,34.0,7.275,-26.325,-28.725,194.9358,-8.3716,2.5076,1.97,19.91158,48.843838,2.3530045,485.9529,NaN,0.0,20.748388,,8 / 25,384,2022-01-10 17:27:00:458
-0.514158,1.38036,9.558728,-0.424494,1.427772,9.692866,-0.044038,0.001866,0.133337,0.023169,0.051131,-0.005326,34.0,7.275,-26.325,-28.725,194.9358,-8.3716,2.5076,1.97,19.91158,48.843838,2.3530045,485.9529,NaN,0.0,20.748388,,8 / 25,389,2022-01-10 17:27:00:463
-0.514158,1.38036,9.558728,-0.424494,1.427772,9.692866,-0.044038,0.001866,0.133337,0.023169,0.051131,-0.005326,34.0,7.275,-26.325,-28.725,194.9358,-8.3716,2.5076,1.97,19.91158,48.843838,2.3530045,485.9529,NaN,0.0,20.748388,,8 / 25,395,2022-01-10 17:27:00:469
-0.514158,1.38036,9.558728,-0.424494,1.427772,9.692866,-0.044038,0.001866,0.133337,0.023169,0.051131,-0.005326,34.0,7.275,-26.325,-28.725,194.9358,-8.3716,2.5076,1.97,19.91158,48.843838,2.3530045,485.9529,NaN,0.0,20.748388,,8 / 25,400,2022-01-10 17:27:00:474
-0.514158,1.38036,9.558728,-0.424494,1.427772,9.692866,-0.044038,0.001866,0.133337,0.023169,0.051131,-0.005326,34.0,7.275,-26.325,-28.725,194.9358,-8.3716,2.5076,1.97,19.91158,48.843838,2.3530045,485.9529,NaN,0.0,20.748388,,8 / 25,404,2022-01-10 17:27:00:478
-0.514158,1.38036,9.558728,-0.424494,1.427772,9.692866,-0.044038,0.001866,0.133337,0.023169,0.051131,-0.005326,34.0,7.275,-26.325,-28.725,194.9358,-8.3716,2.5076,1.97,19.91158,48.843838,2.3530045,485.9529,NaN,0.0,20.748388,,8 / 25,410,2022-01-10 17:27:00:484
-0.514158,1.38036,9.558728,-0.424494,1.427772,9.692866,-0.044038,0.001866,0.133337,0.023169,0.051131,-0.005326,34.0,7.275,-26.325,-28.725,194.9358,-8.3716,2.5076,1.97,19.91158,48.843838,2.3530045,485.9529,NaN,0.0,20.748388,,8 / 25,415,2022-01-10 17:27:00:489
-0.514158,1.38036,9.558728,-0.482803,1.434951,9.689076,-0.06124,0.023982,0.09555,0.023169,0.051131,-0.005326,34.0,7.275,-26.325,-28.725,194.9358,-8.3716,2.5076,1.97,19.91158,48.843838,2.3530045,485.9529,NaN,0.0,20.748388,,8 / 25,419,2022-01-10 17:27:00:493
-0.514158,1.38036,9.558728,-0.482803,1.434951,9.689076,-0.06124,0.023982,0.09555,0.023169,0.051131,-0.005326,34.0,7.275,-26.325,-28.725,194.9358,-8.3716,2.5076,1.97,19.91158,48.843838,2.3530045,485.9529,NaN,0.0,20.748388,,8 / 25,424,2022-01-10 17:27:00:498
-0.514158,1.38036,9.558728,-0.482803,1.434951,9.689076,-0.06124,0.023982,0.09555,0.023169,0.051131,-0.005326,34.0,7.275,-26.325,-28.725,194.9358,-8.3716,2.5076,1.97,19.91158,48.843838,2.3530045,485.9529,NaN,0.0,20.748388,,8 / 25,429,2022-01-10 17:27:00:503
-0.514158,1.38036,9.558728,-0.482803,1.434951,9.689076,-0.06124,0.023982,0.09555,0.023169,0.051131,-0.005326,34.0,7.275,-26.325,-28.725,194.9358,-8.3716,2.5076,1.97,19.91158,48.843838,2.3530045,485.9529,NaN,0.0,20.748388,,8 / 25,434,2022-01-10 17:27:00:508
-0.514158,1.38036,9.558728,-0.482803,1.434951,9.689076,-0.06124,0.023982,0.09555,0.023169,0.051131,-0.005326,34.0,7.275,-26.325,-28.725,194.9358,-8.3716,2.5076,1.97,20.09816,48.843838,2.3530045,485.9529,NaN,0.0,20.748388,,8 / 25,440,2022-01-10 17:27:00:514
-0.514158,1.38036,9.558728,-0.482803,1.434951,9.689076,-0.06124,0.023982,0.09555,0.023169,0.051131,-0.005326,34.0,7.275,-26.325,-28.725,194.9358,-8.3716,2.5076,1.97,20.09816,48.843838,2.3530045,485.9529,NaN,0.0,20.748388,,8 / 25,444,2022-01-10 17:27:00:518
-0.514158,1.38036,9.558728,-0.482803,1.434951,9.689076,-0.06124,0.023982,0.09555,0.023169,0.051131,-0.005326,34.0,7.275,-26.325,-28.725,194.9358,-8.3716,2.5076,1.97,20.09816,48.843838,2.3530045,485.9529,NaN,0.0,20.748388,,8 / 25,448,2022-01-10 17:27:00:522
-0.467498,1.387538,9.594621,-0.482803,1.434951,9.689076,-0.06124,0.023982,0.09555,0.023169,0.051131,-0.005326,34.0,7.275,-26.325,-28.725,194.9358,-8.3716,2.5076,1.97,20.09816,48.843838,2.3530045,485.9529,NaN,0.0,20.748388,,8 / 25,455,2022-01-10 17:27:00:529
-0.467498,1.387538,9.594621,-0.482803,1.434951,9.689076,-0.06124,0.023982,0.09555,0.023169,0.051131,-0.005326,34.0,7.275,-26.325,-28.725,194.9358,-8.3716,2.5076,1.97,20.09816,48.843838,2.3530045,485.9529,NaN,0.0,20.748388,,8 / 25,459,2022-01-10 17:27:00:533
-0.467498,1.387538,9.594621,-0.482803,1.434951,9.689076,-0.06124,0.023982,0.09555,0.023169,0.051131,-0.005326,34.0,7.275,-26.325,-28.725,194.9358,-8.3716,2.5076,1.97,20.09816,48.843838,2.3530045,485.9529,NaN,0.0,20.748388,,8 / 25,464,2022-01-10 17:27:00:538
-0.467498,1.387538,9.594621,-0.482803,1.434951,9.689076,-0.06124,0.023982,0.09555,0.023169,0.051131,-0.005326,34.0,7.275,-26.325,-28.725,194.9358,-8.3716,2.5076,1.97,20.09816,48.843838,2.3530045,485.9529,NaN,0.0,20.748388,,8 / 25,469,2022-01-10 17:27:00:543
-0.467498,1.387538,9.594621,-0.482803,1.434951,9.689076,-0.06124,0.023982,0.09555,-0.023169,-0.030226,0.012783,34.0,7.275,-26.325,-28.725,194.9358,-8.3716,2.5076,1.97,20.09816,48.843838,2.3530045,485.9529,NaN,0.0,20.748388,,8 / 25,473,2022-01-10 17:27:00:547
-0.467498,1.387538,9.594621,-0.482803,1.434951,9.689076,-0.06124,0.023982,0.09555,-0.023169,-0.030226,0.012783,34.0,7.275,-26.325,-28.725,194.9358,-8.3716,2.5076,1.97,20.09816,48.843838,2.3530045,485.9529,NaN,0.0,20.748388,,8 / 25,479,2022-01-10 17:27:00:553
-0.467498,1.387538,9.594621,-0.482803,1.434951,9.689076,-0.06124,0.023982,0.09555,-0.023169,-0.030226,0.012783,34.0,7.275,-26.325,-28.725,194.9358,-8.3716,2.5076,1.97,20.09816,48.843838,2.3530045,485.9529,NaN,0.0,20.748388,,8 / 25,484,2022-01-10 17:27:00:558
-0.467498,1.387538,9.594621,-0.482803,1.434951,9.689076,-0.06124,0.023982,0.09555,-0.023169,-0.030226,0.012783,34.0,7.275,-26.325,-28.725,194.9358,-8.3716,2.5076,1.97,20.09816,48.843838,2.3530045,485.9529,NaN,0.0,20.748388,,8 / 25,489,2022-01-10 17:27:00:563
-0.467498,1.387538,9.594621,-0.482803,1.434951,9.689076,-0.06124,0.023982,0.09555,-0.023169,-0.030226,0.012783,34.0,7.275,-26.325,-28.725,194.9358,-8.3716,2.5076,1.97,20.09816,48.843838,2.3530045,485.9529,NaN,0.0,20.748388,,8 / 25,495,2022-01-10 17:27:00:569
-0.467498,1.387538,9.594621,-0.482803,1.434951,9.689076,-0.06124,0.023982,0.09555,-0.023169,-0.030226,0.012783,34.0,7.275,-26.325,-28.725,194.9358,-8.3716,2.5076,1.97,20.09816,48.843838,2.3530045,485.9529,NaN,0.0,20.748388,,8 / 25,499,2022-01-10 17:27:00:573
-0.467498,1.387538,9.594621,-0.482803,1.434951,9.689076,-0.06124,0.023982,0.09555,-0.023169,-0.030226,0.012783,34.0,7.275,-26.325,-28.725,194.9358,-8.3716,2.5076,1.97,20.09816,48.843838,2.3530045,485.9529,NaN,0.0,20.748388,,8 / 25,505,2022-01-10 17:27:00:579
-0.467498,1.387538,9.594621,-0.482803,1.434951,9.689076,-0.06124,0.023982,0.09555,-0.023169,-0.030226,0.012783,34.0,7.275,-26.325,-28.725,194.9358,-8.3716,2.5076,1.97,20.09816,48.843838,2.3530045,485.9529,NaN,0.0,20.748388,,8 / 25,540,2022-01-10 17:27:00:614
-0.467498,1.387538,9.594621,-0.482803,1.434951,9.689076,-0.06124,0.023982,0.09555,-0.023169,-0.030226,0.012783,34.0,7.275,-26.325,-28.725,194.9358,-8.3716,2.5076,1.97,20.09816,48.843838,2.3530045,485.9529,NaN,0.0,20.748388,,8 / 25,541,2022-01-10 17:27:00:615
-0.467498,1.387538,9.594621,-0.482803,1.434951,9.689076,-0.06124,0.023982,0.09555,-0.023169,-0.030226,0.012783,34.0,7.275,-26.325,-28.725,194.9358,-8.3716,2.5076,1.97,20.09816,48.843838,2.3530045,485.9529,NaN,0.0,20.748388,,8 / 25,541,2022-01-10 17:27:00:615
-0.467498,1.387538,9.594621,-0.482803,1.434951,9.689076,-0.06124,0.023982,0.09555,-0.023169,-0.030226,0.012783,34.0,7.275,-26.325,-28.725,194.9358,-8.3716,2.5076,1.97,20.09816,48.843838,2.3530045,485.9529,NaN,0.0,20.748388,,8 / 25,541,2022-01-10 17:27:00:615
-0.467498,1.387538,9.594621,-0.482803,1.434951,9.689076,-0.06124,0.023982,0.09555,-0.023169,-0.030226,0.012783,34.0,7.275,-26.325,-28.725,194.9358,-8.3716,2.5076,1.97,20.09816,48.843838,2.3530045,485.9529,NaN,0.0,20.748388,,8 / 25,541,2022-01-10 17:27:00:615
-0.467498,1.387538,9.594621,-0.482803,1.434951,9.689076,-0.06124,0.023982,0.09555,-0.023169,-0.030226,0.012783,34.0,7.275,-26.325,-28.725,194.9358,-8.3716,2.5076,1.97,20.09816,48.843838,2.3530045,485.9529,NaN,0.0,20.748388,,8 / 25,541,2022-01-10 17:27:00:615
-0.467498,1.387538,9.594621,-0.482803,1.434951,9.689076,-0.06124,0.023982,0.09555,-0.023169,-0.030226,0.012783,34.0,7.275,-26.325,-28.725,194.9358,-8.3716,2.5076,1.97,20.09816,48.843838,2.3530045,485.9529,NaN,0.0,20.748388,,8 / 25,541,2022-01-10 17:27:00:615
-0.475873,1.418944,9.769596,-0.487017,1.440244,9.68808,-0.06124,0.023982,0.09555,-0.023169,-0.030226,0.012783,34.0,7.275,-26.325,-28.725,194.9358,-8.3716,2.5076,1.97,20.09816,48.843838,2.3530045,485.9529,NaN,0.0,20.748388,,8 / 25,544,2022-01-10 17:27:00:618
-0.475873,1.418944,9.769596,-0.487017,1.440244,9.68808,0.043349,-0.015034,0.087228,-0.023169,-0.030226,0.012783,34.0,7.275,-26.325,-28.725,194.9358,-8.3716,2.5076,1.97,20.09816,48.843838,2.3530045,485.9529,NaN,0.0,20.748388,,8 / 25,549,2022-01-10 17:27:00:623
-0.475873,1.418944,9.769596,-0.487017,1.440244,9.68808,0.043349,-0.015034,0.087228,-0.023169,-0.030226,0.012783,34.0,7.275,-26.325,-28.725,194.9358,-8.3716,2.5076,1.97,20.09816,48.843838,2.3530045,485.9529,NaN,0.0,20.748388,,8 / 25,555,2022-01-10 17:27:00:629
-0.475873,1.418944,9.769596,-0.487017,1.440244,9.68808,0.043349,-0.015034,0.087228,-0.023169,-0.030226,0.012783,34.0,7.275,-26.325,-28.725,194.9358,-8.3716,2.5076,1.97,20.09816,48.843838,2.3530045,485.9529,NaN,0.0,20.748388,,8 / 25,559,2022-01-10 17:27:00:633
-0.475873,1.418944,9.769596,-0.487017,1.440244,9.68808,0.043349,-0.015034,0.087228,-0.023169,-0.030226,0.012783,34.0,7.275,-26.325,-28.725,194.9358,-8.3716,2.5076,1.97,20.09816,48.843838,2.3530045,485.9529,NaN,0.0,20.748388,,8 / 25,563,2022-01-10 17:27:00:637
-0.475873,1.418944,9.769596,-0.487017,1.440244,9.68808,0.043349,-0.015034,0.087228,-0.023169,-0.030226,0.012783,34.0,7.275,-26.325,-28.725,194.9358,-8.3716,2.5076,1.97,20.09816,48.843838,2.3530045,485.9529,NaN,0.0,20.748388,,8 / 25,569,2022-01-10 17:27:00:643
-0.475873,1.418944,9.769596,-0.487017,1.440244,9.68808,0.043349,-0.015034,0.087228,-0.023169,-0.030226,0.012783,34.0,7.275,-26.325,-28.725,194.9358,-8.3716,2.5076,1.97,20.09816,48.843838,2.3530045,485.9529,NaN,0.0,20.748388,,8 / 25,574,2022-01-10 17:27:00:648
-0.475873,1.418944,9.769596,-0.487017,1.440244,9.68808,0.043349,-0.015034,0.087228,-0.023169,-0.030226,0.012783,34.0,7.5,-26.475,-28.425,196.9878,-8.4452,2.8778,1.97,20.09816,48.843838,2.3530045,485.9529,NaN,0.0,20.748388,,8 / 25,579,2022-01-10 17:27:00:653
-0.475873,1.418944,9.769596,-0.487017,1.440244,9.68808,0.043349,-0.015034,0.087228,-0.023169,-0.030226,0.012783,34.0,7.5,-26.475,-28.425,196.9878,-8.4452,2.8778,1.97,20.09816,48.843838,2.3530045,485.9529,NaN,0.0,20.748388,,8 / 25,584,2022-01-10 17:27:00:658
-0.475873,1.418944,9.769596,-0.487017,1.440244,9.68808,0.043349,-0.015034,0.087228,-0.023169,-0.030226,0.012783,34.0,7.5,-26.475,-28.425,196.9878,-8.4452,2.8778,1.97,20.09816,48.843838,2.3530045,485.9529,NaN,0.0,20.748388,,8 / 25,588,2022-01-10 17:27:00:662
-0.475873,1.418944,9.769596,-0.487017,1.440244,9.68808,0.043349,-0.015034,0.087228,-0.034221,0.01265,-0.001864,34.0,7.5,-26.475,-28.425,196.9878,-8.4452,2.8778,1.97,20.09816,48.843838,2.3530045,485.9529,NaN,0.0,20.748388,,8 / 25,593,2022-01-10 17:27:00:667
-0.475873,1.418944,9.769596,-0.487017,1.440244,9.68808,0.043349,-0.015034,0.087228,-0.034221,0.01265,-0.001864,34.0,7.5,-26.475,-28.425,196.9878,-8.4452,2.8778,1.97,20.09816,48.843838,2.3530045,485.9529,NaN,0.0,20.748388,,8 / 25,599,2022-01-10 17:27:00:673
-0.475873,1.418944,9.769596,-0.487017,1.440244,9.68808,0.043349,-0.015034,0.087228,-0.034221,0.01265,-0.001864,34.0,7.5,-26.475,-28.425,196.9878,-8.4452,2.8778,1.97,20.09816,48.843838,2.3530045,485.9529,NaN,0.0,20.748388,,8 / 25,604,2022-01-10 17:27:00:678
-0.475873,1.418944,9.769596,-0.487017,1.440244,9.68808,0.043349,-0.015034,0.087228,-0.034221,0.01265,-0.001864,34.0,7.5,-26.475,-28.425,196.9878,-8.4452,2.8778,1.97,20.09816,48.843838,2.3530045,485.9529,NaN,0.0,20.748388,,8 / 25,609,2022-01-10 17:27:00:683
-0.475873,1.418944,9.769596,-0.487017,1.440244,9.68808,0.043349,-0.015034,0.087228,-0.034221,0.01265,-0.001864,34.0,7.5,-26.475,-28.425,196.9878,-8.4452,2.8778,1.97,20.09816,48.843838,2.3530045,485.9529,NaN,0.0,20.748388,,8 / 25,614,2022-01-10 17:27:00:688
-0.475873,1.418944,9.769596,-0.487017,1.440244,9.68808,0.043349,-0.015034,0.087228,-0.034221,0.01265,-0.001864,34.0,7.5,-26.475,-28.425,196.9878,-8.4452,2.8778,1.97,20.09816,48.843838,2.3530045,485.9529,NaN,0.0,20.748388,,8 / 25,618,2022-01-10 17:27:00:692
-0.475873,1.418944,9.769596,-0.487017,1.440244,9.68808,0.043349,-0.015034,0.087228,-0.034221,0.01265,-0.001864,34.0,7.5,-26.475,-28.425,196.9878,-8.4452,2.8778,1.97,20.09816,48.843838,2.3530045,485.9529,NaN,0.0,20.748388,,8 / 25,624,2022-01-10 17:27:00:698
-0.475873,1.418944,9.769596,-0.487017,1.440244,9.68808,0.043349,-0.015034,0.087228,-0.034221,0.01265,-0.001864,34.0,7.5,-26.475,-28.425,196.9878,-8.4452,2.8778,1.97,20.09816,48.843838,2.3530045,485.9529,NaN,0.0,20.748388,,8 / 25,628,2022-01-10 17:27:00:702
-0.475873,1.418944,9.769596,-0.487017,1.440244,9.68808,0.043349,-0.015034,0.087228,-0.034221,0.01265,-0.001864,34.0,7.5,-26.475,-28.425,196.9878,-8.4452,2.8778,1.97,20.09816,48.843838,2.3530045,485.9529,NaN,0.0,20.748388,,8 / 25,633,2022-01-10 17:27:00:707
-0.475873,1.418944,9.769596,-0.487017,1.440244,9.68808,0.043349,-0.015034,0.087228,-0.034221,0.01265,-0.001864,34.0,7.5,-26.475,-28.425,196.9878,-8.4452,2.8778,1.97,20.09816,48.843838,2.3530045,485.9529,NaN,0.0,20.748388,,8 / 25,639,2022-01-10 17:27:00:713
-0.475873,1.418944,9.769596,-0.487017,1.440244,9.68808,0.043349,-0.015034,0.087228,-0.034221,0.01265,-0.001864,34.0,7.5,-26.475,-28.425,196.9878,-8.4452,2.8778,1.97,20.09816,48.843838,2.3530045,485.9529,NaN,0.0,20.748388,,8 / 25,643,2022-01-10 17:27:00:717
-0.475873,1.418944,9.769596,-0.487017,1.440244,9.68808,0.043349,-0.015034,0.087228,-0.034221,0.01265,-0.001864,34.0,7.5,-26.475,-28.425,196.9878,-8.4452,2.8778,1.97,20.09816,48.843838,2.3530045,485.9529,NaN,0.0,20.748388,,8 / 25,649,2022-01-10 17:27:00:723
-0.475873,1.418944,9.769596,-0.487017,1.440244,9.68808,0.043349,-0.015034,0.087228,-0.034221,0.01265,-0.001864,34.0,7.5,-26.475,-28.425,196.9878,-8.4452,2.8778,1.97,20.09816,48.843838,2.3530045,485.9529,NaN,0.0,20.748388,,8 / 25,654,2022-01-10 17:27:00:728
-0.475873,1.418944,9.769596,-0.487017,1.440244,9.68808,0.043349,-0.015034,0.087228,-0.034221,0.01265,-0.001864,34.0,7.5,-26.475,-28.425,196.9878,-8.4452,2.8778,1.97,20.09816,48.843838,2.3530045,485.9529,NaN,0.0,20.748388,,8 / 25,658,2022-01-10 17:27:00:732
-0.475873,1.418944,9.769596,-0.487017,1.440244,9.68808,0.043349,-0.015034,0.087228,-0.034221,0.01265,-0.001864,34.0,7.5,-26.475,-28.425,196.9878,-8.4452,2.8778,1.97,20.09816,48.843838,2.3530045,485.9529,NaN,0.0,20.748388,,8 / 25,663,2022-01-10 17:27:00:737
-0.475873,1.418944,9.769596,-0.487017,1.440244,9.68808,0.043349,-0.015034,0.087228,-0.034221,0.01265,-0.001864,34.0,7.5,-26.475,-28.425,196.9878,-8.4452,2.8778,1.97,20.09816,48.843838,2.3530045,485.9529,NaN,0.0,20.748388,,8 / 25,669,2022-01-10 17:27:00:743
-0.576371,1.352842,9.422338,-0.48576,1.401989,9.693753,0.043349,-0.015034,0.087228,-0.034221,0.01265,-0.001864,34.0,7.5,-26.475,-28.425,196.9878,-8.4452,2.8778,1.97,20.09816,48.843838,2.3530045,485.9529,NaN,0.0,20.748388,,8 / 25,674,2022-01-10 17:27:00:748
-0.576371,1.352842,9.422338,-0.48576,1.401989,9.693753,-0.024872,0.025954,0.064384,-0.034221,0.01265,-0.001864,34.0,7.5,-26.475,-28.425,196.9878,-8.4452,2.8778,1.97,20.09816,48.843838,2.3530045,485.9529,NaN,0.0,20.748388,,8 / 25,679,2022-01-10 17:27:00:753
-0.576371,1.352842,9.422338,-0.48576,1.401989,9.693753,-0.024872,0.025954,0.064384,-0.034221,0.01265,-0.001864,34.0,7.575,-26.625,-28.725,196.9878,-8.4452,2.8778,1.97,20.09816,48.843838,2.3530045,485.9529,NaN,0.0,20.748388,,8 / 25,684,2022-01-10 17:27:00:758
-0.576371,1.352842,9.422338,-0.48576,1.401989,9.693753,-0.024872,0.025954,0.064384,-0.034221,0.01265,-0.001864,34.0,7.575,-26.625,-28.725,196.9878,-8.4452,2.8778,1.97,20.09816,48.843838,2.3530045,485.9529,NaN,0.0,20.748388,,8 / 25,689,2022-01-10 17:27:00:763
-0.576371,1.352842,9.422338,-0.48576,1.401989,9.693753,-0.024872,0.025954,0.064384,-0.034221,0.01265,-0.001864,34.0,7.575,-26.625,-28.725,196.9878,-8.4452,2.8778,1.97,20.09816,48.843838,2.3530045,485.9529,NaN,0.0,20.748388,,8 / 25,695,2022-01-10 17:27:00:769
-0.576371,1.352842,9.422338,-0.48576,1.401989,9.693753,-0.024872,0.025954,0.064384,-0.034221,0.01265,-0.001864,34.0,7.575,-26.625,-28.725,196.9878,-8.4452,2.8778,1.97,20.09816,48.843838,2.3530045,485.9529,NaN,0.0,20.748388,,8 / 25,698,2022-01-10 17:27:00:772
-0.576371,1.352842,9.422338,-0.48576,1.401989,9.693753,-0.024872,0.025954,0.064384,-0.034221,0.01265,-0.001864,34.0,7.575,-26.625,-28.725,196.9878,-8.4452,2.8778,1.97,20.09816,48.843838,2.3530045,485.9529,NaN,0.0,20.748388,,8 / 25,704,2022-01-10 17:27:00:778
-0.576371,1.352842,9.422338,-0.48576,1.401989,9.693753,-0.024872,0.025954,0.064384,-0.034221,0.01265,-0.001864,34.0,7.575,-26.625,-28.725,196.9878,-8.4452,2.8778,1.97,20.09816,48.843838,2.3530045,485.9529,NaN,0.0,20.748388,,8 / 25,709,2022-01-10 17:27:00:783
-0.576371,1.352842,9.422338,-0.48576,1.401989,9.693753,-0.024872,0.025954,0.064384,-0.034221,0.01265,-0.001864,34.0,7.575,-26.625,-28.725,196.9878,-8.4452,2.8778,1.97,20.09816,48.843838,2.3530045,485.9529,NaN,0.0,20.748388,,8 / 25,713,2022-01-10 17:27:00:787
-0.576371,1.352842,9.422338,-0.48576,1.401989,9.693753,-0.024872,0.025954,0.064384,-0.034221,0.01265,-0.001864,34.0,7.575,-26.625,-28.725,196.9878,-8.4452,2.8778,1.97,20.09816,48.843838,2.3530045,485.9529,NaN,0.0,20.748388,,8 / 25,719,2022-01-10 17:27:00:793
-0.576371,1.352842,9.422338,-0.48576,1.401989,9.693753,-0.024872,0.025954,0.064384,-0.034221,0.01265,-0.001864,34.0,7.575,-26.625,-28.725,196.9878,-8.4452,2.8778,1.97,20.09816,48.843838,2.3530045,485.9529,NaN,0.0,20.748388,,8 / 25,724,2022-01-10 17:27:00:798
-0.576371,1.352842,9.422338,-0.48576,1.401989,9.693753,-0.024872,0.025954,0.064384,-0.034221,0.01265,-0.001864,34.0,7.575,-26.625,-28.725,196.9878,-8.4452,2.8778,1.97,20.09816,48.843838,2.3530045,485.9529,NaN,0.0,20.748388,,8 / 25,728,2022-01-10 17:27:00:802
-0.576371,1.352842,9.422338,-0.48576,1.401989,9.693753,-0.024872,0.025954,0.064384,-0.034221,0.01265,-0.001864,34.0,7.575,-26.625,-28.725,196.9878,-8.4452,2.8778,1.97,20.09816,48.843838,2.3530045,485.9529,NaN,0.0,20.748388,,8 / 25,733,2022-01-10 17:27:00:807
-0.576371,1.352842,9.422338,-0.48576,1.401989,9.693753,-0.024872,0.025954,0.064384,-0.300529,-0.07217,-0.059653,34.0,7.575,-26.625,-28.725,196.9878,-8.4452,2.8778,1.97,20.09816,48.843838,2.3530045,485.9529,NaN,0.0,20.748388,,8 / 25,738,2022-01-10 17:27:00:812
-0.576371,1.352842,9.422338,-0.48576,1.401989,9.693753,-0.024872,0.025954,0.064384,-0.300529,-0.07217,-0.059653,34.0,7.575,-26.625,-28.725,196.9878,-8.4452,2.8778,1.97,20.09816,48.843838,2.3530045,485.9529,NaN,0.0,20.748388,,8 / 25,743,2022-01-10 17:27:00:817
-0.576371,1.352842,9.422338,-0.48576,1.401989,9.693753,-0.024872,0.025954,0.064384,-0.300529,-0.07217,-0.059653,34.0,7.575,-26.625,-28.725,196.9878,-8.4452,2.8778,1.97,20.09816,48.843838,2.3530045,485.9529,NaN,0.0,20.748388,,8 / 25,749,2022-01-10 17:27:00:823
-0.576371,1.352842,9.422338,-0.48576,1.401989,9.693753,-0.024872,0.025954,0.064384,-0.300529,-0.07217,-0.059653,34.0,7.575,-26.625,-28.725,196.9878,-8.4452,2.8778,1.97,20.09816,48.843838,2.3530045,485.9529,NaN,0.0,20.748388,,8 / 25,754,2022-01-10 17:27:00:828
-0.576371,1.352842,9.422338,-0.48576,1.401989,9.693753,-0.024872,0.025954,0.064384,-0.300529,-0.07217,-0.059653,34.0,7.575,-26.625,-28.725,196.9878,-8.4452,2.8778,1.97,19.85458,48.843838,2.3530045,485.9529,NaN,0.0,20.748388,,8 / 25,759,2022-01-10 17:27:00:833
-0.576371,1.352842,9.422338,-0.48576,1.401989,9.693753,-0.024872,0.025954,0.064384,-0.300529,-0.07217,-0.059653,34.0,7.575,-26.625,-28.725,196.9878,-8.4452,2.8778,1.97,19.85458,48.843838,2.3530045,485.9529,NaN,0.0,20.748388,,8 / 25,763,2022-01-10 17:27:00:837
-0.576371,1.352842,9.422338,-0.48576,1.401989,9.693753,-0.024872,0.025954,0.064384,-0.300529,-0.07217,-0.059653,34.0,7.575,-26.625,-28.725,196.9878,-8.4452,2.8778,1.97,19.85458,48.843838,2.3530045,485.9529,NaN,0.0,20.748388,,8 / 25,768,2022-01-10 17:27:00:842
-0.576371,1.352842,9.422338,-0.48576,1.401989,9.693753,-0.024872,0.025954,0.064384,-0.300529,-0.07217,-0.059653,34.0,7.575,-26.625,-28.725,196.9878,-8.4452,2.8778,1.97,19.85458,48.843838,2.3530045,485.9529,NaN,0.0,20.748388,,8 / 25,774,2022-01-10 17:27:00:848
-0.411266,0.938585,9.413962,-0.48576,1.401989,9.693753,-0.024872,0.025954,0.064384,-0.300529,-0.07217,-0.059653,34.0,7.575,-26.625,-28.725,196.9878,-8.4452,2.8778,1.97,19.85458,48.843838,2.3530045,485.9529,NaN,0.0,20.748388,,8 / 25,778,2022-01-10 17:27:00:852
-0.411266,0.938585,9.413962,-0.48576,1.401989,9.693753,-0.024872,0.025954,0.064384,-0.300529,-0.07217,-0.059653,34.0,7.575,-26.625,-28.725,196.9878,-8.4452,2.8778,1.97,19.85458,48.843838,2.3530045,485.9529,NaN,0.0,20.748388,,8 / 25,784,2022-01-10 17:27:00:858
-0.411266,0.938585,9.413962,-0.48576,1.401989,9.693753,-0.024872,0.025954,0.064384,-0.300529,-0.07217,-0.059653,34.0,7.575,-26.625,-28.725,196.9878,-8.4452,2.8778,1.97,19.85458,48.843838,2.3530045,485.9529,NaN,0.0,20.748388,,8 / 25,789,2022-01-10 17:27:00:863
-0.411266,0.938585,9.413962,-0.457329,1.13843,9.729605,-0.060642,0.249202,0.215182,-0.300529,-0.07217,-0.059653,34.0,7.575,-26.625,-28.725,196.9878,-8.4452,2.8778,1.97,19.85458,48.843838,2.3530045,485.9529,NaN,0.0,20.748388,,8 / 25,794,2022-01-10 17:27:00:868
-0.411266,0.938585,9.413962,-0.457329,1.13843,9.729605,-0.060642,0.249202,0.215182,-0.300529,-0.07217,-0.059653,34.0,7.575,-26.625,-28.725,196.9878,-8.4452,2.8778,1.97,19.85458,48.843838,2.3530045,485.9529,NaN,0.0,20.748388,,8 / 25,799,2022-01-10 17:27:00:873
-0.411266,0.938585,9.413962,-0.457329,1.13843,9.729605,-0.060642,0.249202,0.215182,-0.300529,-0.07217,-0.059653,34.0,7.575,-26.625,-28.725,196.9878,-8.4452,2.8778,1.97,19.85458,48.843838,2.3530045,485.9529,NaN,0.0,20.748388,,8 / 25,804,2022-01-10 17:27:00:878
-0.411266,0.938585,9.413962,-0.457329,1.13843,9.729605,-0.060642,0.249202,0.215182,-0.300529,-0.07217,-0.059653,34.0,7.575,-26.625,-28.725,196.9878,-8.4452,2.8778,1.97,19.85458,48.843838,2.3530045,485.9529,NaN,0.0,20.748388,,8 / 25,809,2022-01-10 17:27:00:883
-0.411266,0.938585,9.413962,-0.457329,1.13843,9.729605,-0.060642,0.249202,0.215182,-0.300529,-0.07217,-0.059653,34.0,7.575,-26.625,-28.725,196.9878,-8.4452,2.8778,1.97,19.85458,48.843838,2.3530045,485.9529,NaN,0.0,20.748388,,8 / 25,813,2022-01-10 17:27:00:887
-0.411266,0.938585,9.413962,-0.457329,1.13843,9.729605,-0.060642,0.249202,0.215182,-0.300529,-0.07217,-0.059653,34.0,7.575,-26.625,-28.725,196.9878,-8.4452,2.8778,1.97,19.85458,48.843838,2.3530045,485.9529,NaN,0.0,20.748388,,8 / 25,819,2022-01-10 17:27:00:893
-0.411266,0.938585,9.413962,-0.457329,1.13843,9.729605,-0.060642,0.249202,0.215182,-0.300529,-0.07217,-0.059653,34.0,7.575,-26.625,-28.725,196.9878,-8.4452,2.8778,1.97,19.85458,48.843838,2.3530045,485.9529,NaN,0.0,20.748388,,8 / 25,824,2022-01-10 17:27:00:898
-0.411266,0.938585,9.413962,-0.457329,1.13843,9.729605,-0.060642,0.249202,0.215182,-0.300529,-0.07217,-0.059653,34.0,6.9,-26.625,-28.8,196.9878,-8.4452,2.8778,1.97,19.85458,48.843838,2.3530045,485.9529,NaN,0.0,20.748388,,8 / 25,828,2022-01-10 17:27:00:902
-0.411266,0.938585,9.413962,-0.457329,1.13843,9.729605,-0.060642,0.249202,0.215182,-0.300529,-0.07217,-0.059653,34.0,6.9,-26.625,-28.8,193.5205,-6.6664,2.6911,1.97,19.85458,48.843838,2.3530045,485.9529,NaN,0.0,20.748388,,8 / 25,833,2022-01-10 17:27:00:907
-0.411266,0.938585,9.413962,-0.457329,1.13843,9.729605,-0.060642,0.249202,0.215182,-0.300529,-0.07217,-0.059653,34.0,6.9,-26.625,-28.8,193.5205,-6.6664,2.6911,1.97,19.85458,48.843838,2.3530045,485.9529,NaN,0.0,20.748388,,8 / 25,839,2022-01-10 17:27:00:913
-0.411266,0.938585,9.413962,-0.457329,1.13843,9.729605,-0.060642,0.249202,0.215182,-0.300529,-0.07217,-0.059653,34.0,6.9,-26.625,-28.8,193.5205,-6.6664,2.6911,1.97,19.85458,48.843838,2.3530045,485.9529,NaN,0.0,20.748388,,8 / 25,844,2022-01-10 17:27:00:918
-0.411266,0.938585,9.413962,-0.457329,1.13843,9.729605,-0.060642,0.249202,0.215182,-0.300529,-0.07217,-0.059653,34.0,6.9,-26.625,-28.8,193.5205,-6.6664,2.6911,1.97,19.85458,48.843838,2.3530045,485.9529,NaN,0.0,20.748388,,8 / 25,849,2022-01-10 17:27:00:923
-0.411266,0.938585,9.413962,-0.457329,1.13843,9.729605,-0.060642,0.249202,0.215182,-0.300529,-0.07217,-0.059653,34.0,6.9,-26.625,-28.8,193.5205,-6.6664,2.6911,1.97,19.85458,48.843838,2.3530045,485.9529,NaN,0.0,20.748388,,8 / 25,854,2022-01-10 17:27:00:928
-0.411266,0.938585,9.413962,-0.457329,1.13843,9.729605,-0.060642,0.249202,0.215182,-0.300529,-0.07217,-0.059653,34.0,6.9,-26.625,-28.8,193.5205,-6.6664,2.6911,1.97,19.85458,48.843838,2.3530045,485.9529,NaN,0.0,20.748388,,8 / 25,859,2022-01-10 17:27:00:933
-0.411266,0.938585,9.413962,-0.457329,1.13843,9.729605,-0.060642,0.249202,0.215182,-0.300529,-0.07217,-0.059653,34.0,6.9,-26.625,-28.8,193.5205,-6.6664,2.6911,1.97,19.85458,48.843838,2.3530045,485.9529,NaN,0.0,20.748388,,8 / 25,863,2022-01-10 17:27:00:937
-0.411266,0.938585,9.413962,-0.457329,1.13843,9.729605,-0.060642,0.249202,0.215182,-0.300529,-0.07217,-0.059653,34.0,6.9,-26.625,-28.8,193.5205,-6.6664,2.6911,1.97,19.85458,48.843838,2.3530045,485.9529,NaN,0.0,20.748388,,8 / 25,869,2022-01-10 17:27:00:943
-0.411266,0.938585,9.413962,-0.457329,1.13843,9.729605,-0.060642,0.249202,0.215182,-0.300529,-0.07217,-0.059653,34.0,6.9,-26.625,-28.8,193.5205,-6.6664,2.6911,1.97,19.85458,48.843838,2.3530045,485.9529,NaN,0.0,20.748388,,8 / 25,874,2022-01-10 17:27:00:948
0.188734,0.97687,9.754043,-0.457329,1.13843,9.729605,-0.060642,0.249202,0.215182,0.286148,-0.047137,-0.066178,34.0,6.9,-26.625,-28.8,193.5205,-6.6664,2.6911,1.97,19.85458,48.843838,2.3530045,485.9529,NaN,0.0,20.748388,,8 / 25,879,2022-01-10 17:27:00:953
0.188734,0.97687,9.754043,-0.457329,1.13843,9.729605,-0.060642,0.249202,0.215182,0.286148,-0.047137,-0.066178,34.0,6.9,-26.625,-28.8,193.5205,-6.6664,2.6911,1.97,19.85458,48.843838,2.3530045,485.9529,NaN,0.0,20.748388,,8 / 25,884,2022-01-10 17:27:00:958
0.188734,0.97687,9.754043,-0.457329,1.13843,9.729605,-0.060642,0.249202,0.215182,0.286148,-0.047137,-0.066178,34.0,6.9,-26.625,-28.8,193.5205,-6.6664,2.6911,1.97,19.85458,48.843838,2.3530045,485.9529,NaN,0.0,20.748388,,8 / 25,889,2022-01-10 17:27:00:963
0.188734,0.97687,9.754043,-0.457329,1.13843,9.729605,-0.060642,0.249202,0.215182,0.286148,-0.047137,-0.066178,34.0,6.9,-26.625,-28.8,193.5205,-6.6664,2.6911,1.97,19.85458,48.843838,2.3530045,485.9529,NaN,0.0,20.748388,,8 / 25,894,2022-01-10 17:27:00:968
0.188734,0.97687,9.754043,-0.457329,1.13843,9.729605,-0.060642,0.249202,0.215182,0.286148,-0.047137,-0.066178,34.0,6.9,-26.625,-28.8,193.5205,-6.6664,2.6911,1.97,19.85458,48.843838,2.3530045,485.9529,NaN,0.0,20.748388,,8 / 25,899,2022-01-10 17:27:00:973
0.188734,0.97687,9.754043,-0.457329,1.13843,9.729605,-0.060642,0.249202,0.215182,0.286148,-0.047137,-0.066178,34.0,6.9,-26.625,-28.8,193.5205,-6.6664,2.6911,1.97,19.85458,48.843838,2.3530045,485.9529,NaN,0.0,20.748388,,8 / 25,904,2022-01-10 17:27:00:978
0.188734,0.97687,9.754043,-0.457329,1.13843,9.729605,-0.060642,0.249202,0.215182,0.286148,-0.047137,-0.066178,34.0,6.9,-26.625,-28.8,193.5205,-6.6664,2.6911,1.97,19.85458,48.843838,2.3530045,485.9529,NaN,0.0,20.748388,,8 / 25,909,2022-01-10 17:27:00:983
0.188734,0.97687,9.754043,-0.457329,1.13843,9.729605,-0.060642,0.249202,0.215182,0.286148,-0.047137,-0.066178,34.0,6.9,-26.625,-28.8,193.5205,-6.6664,2.6911,1.97,19.85458,48.843838,2.3530045,485.9529,NaN,0.0,20.748388,,8 / 25,914,2022-01-10 17:27:00:988
0.188734,0.97687,9.754043,-0.433626,1.300028,9.710421,0.328511,0.130366,0.236055,0.286148,-0.047137,-0.066178,34.0,6.9,-26.625,-28.8,193.5205,-6.6664,2.6911,1.97,19.85458,48.843838,2.3530045,485.9529,NaN,0.0,20.748388,,8 / 25,919,2022-01-10 17:27:00:993
0.188734,0.97687,9.754043,-0.433626,1.300028,9.710421,0.328511,0.130366,0.236055,0.286148,-0.047137,-0.066178,34.0,6.9,-26.625,-28.8,193.5205,-6.6664,2.6911,1.97,19.85458,48.843838,2.3530045,485.9529,NaN,0.0,20.748388,,8 / 25,926,2022-01-10 17:27:01:000
0.188734,0.97687,9.754043,-0.433626,1.300028,9.710421,0.328511,0.130366,0.236055,0.286148,-0.047137,-0.066178,34.0,6.9,-26.625,-28.8,193.5205,-6.6664,2.6911,1.97,19.85458,48.843838,2.3530045,485.9529,NaN,0.0,20.748388,,8 / 25,929,2022-01-10 17:27:01:003
0.188734,0.97687,9.754043,-0.433626,1.300028,9.710421,0.328511,0.130366,0.236055,0.286148,-0.047137,-0.066178,34.0,6.9,-26.625,-28.8,193.5205,-6.6664,2.6911,1.97,19.85458,48.843838,2.3530045,485.9529,NaN,0.0,20.748388,,8 / 25,933,2022-01-10 17:27:01:007
0.188734,0.97687,9.754043,-0.433626,1.300028,9.710421,0.328511,0.130366,0.236055,0.286148,-0.047137,-0.066178,34.0,6.9,-26.625,-28.8,193.5205,-6.6664,2.6911,1.97,19.85458,48.843838,2.3530045,485.9529,NaN,0.0,20.748388,,8 / 25,939,2022-01-10 17:27:01:013
0.188734,0.97687,9.754043,-0.433626,1.300028,9.710421,0.328511,0.130366,0.236055,0.286148,-0.047137,-0.066178,34.0,6.9,-26.625,-28.8,193.5205,-6.6664,2.6911,1.97,19.85458,48.843838,2.3530045,485.9529,NaN,0.0,20.748388,,8 / 25,944,2022-01-10 17:27:01:018
0.188734,0.97687,9.754043,-0.433626,1.300028,9.710421,0.328511,0.130366,0.236055,0.286148,-0.047137,-0.066178,35.0,6.9,-26.625,-28.8,193.5205,-6.6664,2.6911,1.97,19.85458,48.843838,2.3530045,485.9529,NaN,0.0,20.748388,,8 / 25,949,2022-01-10 17:27:01:023
0.188734,0.97687,9.754043,-0.433626,1.300028,9.710421,0.328511,0.130366,0.236055,0.286148,-0.047137,-0.066178,35.0,6.9,-26.625,-28.8,193.5205,-6.6664,2.6911,1.97,19.85458,48.843838,2.3530045,485.9529,NaN,0.0,20.748388,,8 / 25,954,2022-01-10 17:27:01:028
0.188734,0.97687,9.754043,-0.433626,1.300028,9.710421,0.328511,0.130366,0.236055,0.286148,-0.047137,-0.066178,35.0,6.9,-26.625,-28.8,193.5205,-6.6664,2.6911,1.97,19.85458,48.843838,2.3530045,485.9529,NaN,0.0,20.748388,,8 / 25,959,2022-01-10 17:27:01:033
0.188734,0.97687,9.754043,-0.433626,1.300028,9.710421,0.328511,0.130366,0.236055,0.286148,-0.047137,-0.066178,35.0,6.9,-26.625,-28.8,193.5205,-6.6664,2.6911,1.97,19.85458,48.843838,2.3530045,485.9529,NaN,0.0,20.748388,,8 / 25,964,2022-01-10 17:27:01:038
0.188734,0.97687,9.754043,-0.433626,1.300028,9.710421,0.328511,0.130366,0.236055,0.286148,-0.047137,-0.066178,35.0,6.9,-26.625,-28.8,193.5205,-6.6664,2.6911,1.97,19.85458,48.843838,2.3530045,485.9529,NaN,0.0,20.748388,,8 / 25,969,2022-01-10 17:27:01:043
-0.467498,1.079761,9.576674,-0.433626,1.300028,9.710421,0.328511,0.130366,0.236055,0.286148,-0.047137,-0.066178,35.0,6.9,-26.625,-28.8,193.5205,-6.6664,2.6911,1.97,19.85458,48.843838,2.3530045,485.9529,NaN,0.0,20.748388,,8 / 25,973,2022-01-10 17:27:01:047
-0.467498,1.079761,9.576674,-0.433626,1.300028,9.710421,0.328511,0.130366,0.236055,0.286148,-0.047137,-0.066178,35.0,6.975,-26.1,-29.1,194.5945,-7.6179,2.5569,1.97,19.85458,48.843838,2.3530045,485.9529,NaN,0.0,20.748388,,8 / 25,978,2022-01-10 17:27:01:052
-0.467498,1.079761,9.576674,-0.433626,1.300028,9.710421,0.328511,0.130366,0.236055,0.286148,-0.047137,-0.066178,35.0,6.975,-26.1,-29.1,194.5945,-7.6179,2.5569,1.97,19.85458,48.843838,2.3530045,485.9529,NaN,0.0,20.748388,,8 / 25,984,2022-01-10 17:27:01:058
-0.467498,1.079761,9.576674,-0.433626,1.300028,9.710421,0.328511,0.130366,0.236055,0.286148,-0.047137,-0.066178,35.0,6.975,-26.1,-29.1,194.5945,-7.6179,2.5569,1.97,19.85458,48.843838,2.3530045,485.9529,NaN,0.0,20.748388,,8 / 25,988,2022-01-10 17:27:01:062
-0.467498,1.079761,9.576674,-0.433626,1.300028,9.710421,0.328511,0.130366,0.236055,0.286148,-0.047137,-0.066178,35.0,6.975,-26.1,-29.1,194.5945,-7.6179,2.5569,1.97,19.85458,48.843838,2.3530045,485.9529,NaN,0.0,20.748388,,8 / 25,994,2022-01-10 17:27:01:068
-0.467498,1.079761,9.576674,-0.433626,1.300028,9.710421,0.328511,0.130366,0.236055,0.286148,-0.047137,-0.066178,35.0,6.975,-26.1,-29.1,194.5945,-7.6179,2.5569,1.97,19.85458,48.843838,2.3530045,485.9529,NaN,0.0,20.748388,,8 / 25,998,2022-01-10 17:27:01:072
-0.467498,1.079761,9.576674,-0.433626,1.300028,9.710421,0.328511,0.130366,0.236055,0.286148,-0.047137,-0.066178,35.0,6.975,-26.1,-29.1,194.5945,-7.6179,2.5569,1.97,19.85458,48.843838,2.3530045,485.9529,NaN,0.0,20.748388,,8 / 25,1004,2022-01-10 17:27:01:078
-0.467498,1.079761,9.576674,-0.433626,1.300028,9.710421,0.328511,0.130366,0.236055,-0.03928,-0.08948,-0.001465,35.0,6.975,-26.1,-29.1,194.5945,-7.6179,2.5569,1.97,19.85458,48.843838,2.3530045,485.9529,NaN,0.0,20.748388,,8 / 25,1017,2022-01-10 17:27:01:091
-0.467498,1.079761,9.576674,-0.433626,1.300028,9.710421,0.328511,0.130366,0.236055,-0.03928,-0.08948,-0.001465,35.0,6.975,-26.1,-29.1,194.5945,-7.6179,2.5569,1.97,19.85458,48.843838,2.3530045,485.9529,NaN,0.0,20.748388,,8 / 25,1019,2022-01-10 17:27:01:093
-0.467498,1.079761,9.576674,-0.433626,1.300028,9.710421,0.328511,0.130366,0.236055,-0.03928,-0.08948,-0.001465,35.0,6.975,-26.1,-29.1,194.5945,-7.6179,2.5569,1.97,19.85458,48.843838,2.3530045,485.9529,NaN,0.0,20.748388,,8 / 25,1019,2022-01-10 17:27:01:093
-0.467498,1.079761,9.576674,-0.433626,1.300028,9.710421,0.328511,0.130366,0.236055,-0.03928,-0.08948,-0.001465,35.0,6.975,-26.1,-29.1,194.5945,-7.6179,2.5569,1.97,19.85458,48.843838,2.3530045,485.9529,NaN,0.0,20.748388,,8 / 25,1024,2022-01-10 17:27:01:098
-0.467498,1.079761,9.576674,-0.433626,1.300028,9.710421,0.328511,0.130366,0.236055,-0.03928,-0.08948,-0.001465,35.0,6.975,-26.1,-29.1,194.5945,-7.6179,2.5569,1.97,19.85458,48.843838,2.3530045,485.9529,NaN,0.0,20.748388,,8 / 25,1028,2022-01-10 17:27:01:102
-0.467498,1.079761,9.576674,-0.433626,1.300028,9.710421,0.328511,0.130366,0.236055,-0.03928,-0.08948,-0.001465,35.0,6.975,-26.1,-29.1,194.5945,-7.6179,2.5569,1.97,19.85458,48.843838,2.3530045,485.9529,NaN,0.0,20.748388,,8 / 25,1034,2022-01-10 17:27:01:108
-0.467498,1.079761,9.576674,-0.433626,1.300028,9.710421,0.328511,0.130366,0.236055,-0.03928,-0.08948,-0.001465,35.0,6.975,-26.1,-29.1,194.5945,-7.6179,2.5569,1.97,19.85458,48.843838,2.3530045,485.9529,NaN,0.0,20.748388,,8 / 25,1038,2022-01-10 17:27:01:112
-0.467498,1.079761,9.576674,-0.514283,1.130082,9.727735,-0.11478,0.034758,-0.037136,-0.03928,-0.08948,-0.001465,35.0,6.975,-26.1,-29.1,194.5945,-7.6179,2.5569,1.97,19.85458,48.843838,2.3530045,485.9529,NaN,0.0,20.748388,,8 / 25,1044,2022-01-10 17:27:01:118
-0.467498,1.079761,9.576674,-0.514283,1.130082,9.727735,-0.11478,0.034758,-0.037136,-0.03928,-0.08948,-0.001465,35.0,6.975,-26.1,-29.1,194.5945,-7.6179,2.5569,1.97,19.85458,48.843838,2.3530045,485.9529,NaN,0.0,20.748388,,8 / 25,1049,2022-01-10 17:27:01:123
-0.467498,1.079761,9.576674,-0.514283,1.130082,9.727735,-0.11478,0.034758,-0.037136,-0.03928,-0.08948,-0.001465,35.0,6.975,-26.1,-29.1,194.5945,-7.6179,2.5569,1.97,19.85458,48.843838,2.3530045,485.9529,NaN,0.0,20.748388,,8 / 25,1053,2022-01-10 17:27:01:127
-0.467498,1.079761,9.576674,-0.514283,1.130082,9.727735,-0.11478,0.034758,-0.037136,-0.03928,-0.08948,-0.001465,35.0,6.975,-26.1,-29.1,194.5945,-7.6179,2.5569,1.97,19.85458,48.843838,2.3530045,485.9529,NaN,0.0,20.748388,,8 / 25,1059,2022-01-10 17:27:01:133
-0.597906,0.925424,9.722936,-0.514283,1.130082,9.727735,-0.11478,0.034758,-0.037136,-0.03928,-0.08948,-0.001465,35.0,6.975,-26.1,-29.1,194.5945,-7.6179,2.5569,1.97,19.85458,48.843838,2.3530045,485.9529,NaN,0.0,20.748388,,8 / 25,1063,2022-01-10 17:27:01:137
-0.597906,0.925424,9.722936,-0.514283,1.130082,9.727735,-0.11478,0.034758,-0.037136,-0.03928,-0.08948,-0.001465,35.0,6.975,-26.1,-29.1,194.5945,-7.6179,2.5569,1.97,19.85458,48.843838,2.3530045,485.9529,NaN,0.0,20.748388,,8 / 25,1068,2022-01-10 17:27:01:142
-0.597906,0.925424,9.722936,-0.514283,1.130082,9.727735,-0.11478,0.034758,-0.037136,-0.03928,-0.08948,-0.001465,35.0,6.975,-26.1,-29.1,194.5945,-7.6179,2.5569,1.97,22.22208,48.843838,2.3530045,485.9529,NaN,0.0,20.748388,,8 / 25,1075,2022-01-10 17:27:01:149
-0.597906,0.925424,9.722936,-0.514283,1.130082,9.727735,-0.11478,0.034758,-0.037136,-0.03928,-0.08948,-0.001465,35.0,6.975,-26.1,-29.1,194.5945,-7.6179,2.5569,1.97,22.22208,48.843838,2.3530045,485.9529,NaN,0.0,20.748388,,8 / 25,1078,2022-01-10 17:27:01:152
-0.597906,0.925424,9.722936,-0.514283,1.130082,9.727735,-0.11478,0.034758,-0.037136,-0.03928,-0.08948,-0.001465,35.0,6.975,-26.1,-29.1,194.5945,-7.6179,2.5569,1.97,22.22208,48.843838,2.3530045,485.9529,NaN,0.0,20.748388,,8 / 25,1084,2022-01-10 17:27:01:158
-0.597906,0.925424,9.722936,-0.514283,1.130082,9.727735,-0.11478,0.034758,-0.037136,-0.03928,-0.08948,-0.001465,35.0,6.975,-26.1,-29.1,194.5945,-7.6179,2.5569,1.97,22.22208,48.843838,2.3530045,485.9529,NaN,0.0,20.748388,,8 / 25,1089,2022-01-10 17:27:01:163
-0.597906,0.925424,9.722936,-0.514283,1.130082,9.727735,-0.11478,0.034758,-0.037136,-0.03928,-0.08948,-0.001465,35.0,6.975,-26.1,-29.1,194.5945,-7.6179,2.5569,1.97,22.22208,48.843838,2.3530045,485.9529,NaN,0.0,20.748388,,8 / 25,1093,2022-01-10 17:27:01:167
-0.597906,0.925424,9.722936,-0.514283,1.130082,9.727735,-0.11478,0.034758,-0.037136,-0.03928,-0.08948,-0.001465,35.0,6.975,-26.1,-29.1,194.5945,-7.6179,2.5569,1.97,22.22208,48.843838,2.3530045,485.9529,NaN,0.0,20.748388,,8 / 25,1099,2022-01-10 17:27:01:173
-0.597906,0.925424,9.722936,-0.514283,1.130082,9.727735,-0.11478,0.034758,-0.037136,-0.03928,-0.08948,-0.001465,35.0,6.975,-26.1,-29.1,194.5945,-7.6179,2.5569,1.97,22.22208,48.843838,2.3530045,485.9529,NaN,0.0,20.748388,,8 / 25,1104,2022-01-10 17:27:01:178
-0.597906,0.925424,9.722936,-0.514283,1.130082,9.727735,-0.11478,0.034758,-0.037136,-0.03928,-0.08948,-0.001465,35.0,6.975,-26.1,-29.1,194.5945,-7.6179,2.5569,1.97,22.22208,48.843838,2.3530045,485.9529,NaN,0.0,20.748388,,8 / 25,1109,2022-01-10 17:27:01:183
-0.597906,0.925424,9.722936,-0.514283,1.130082,9.727735,-0.11478,0.034758,-0.037136,-0.03928,-0.08948,-0.001465,35.0,6.975,-26.1,-29.1,194.5945,-7.6179,2.5569,1.97,22.22208,48.843838,2.3530045,485.9529,NaN,0.0,20.748388,,8 / 25,1114,2022-01-10 17:27:01:188
-0.597906,0.925424,9.722936,-0.514283,1.130082,9.727735,-0.11478,0.034758,-0.037136,-0.03928,-0.08948,-0.001465,35.0,6.975,-26.1,-29.1,194.5945,-7.6179,2.5569,1.97,22.22208,48.843838,2.3530045,485.9529,NaN,0.0,20.748388,,8 / 25,1119,2022-01-10 17:27:01:193
-0.597906,0.925424,9.722936,-0.514283,1.130082,9.727735,-0.11478,0.034758,-0.037136,-0.03928,-0.08948,-0.001465,35.0,6.975,-26.1,-29.1,194.5945,-7.6179,2.5569,1.97,22.22208,48.843838,2.3530045,485.9529,NaN,0.0,20.748388,,8 / 25,1124,2022-01-10 17:27:01:198
-0.597906,0.925424,9.722936,-0.514283,1.130082,9.727735,-0.11478,0.034758,-0.037136,-0.03928,-0.08948,-0.001465,35.0,6.975,-26.1,-29.1,194.5945,-7.6179,2.5569,1.97,22.22208,48.843838,2.3530045,485.9529,NaN,0.0,20.748388,,8 / 25,1128,2022-01-10 17:27:01:202
-0.597906,0.925424,9.722936,-0.514283,1.130082,9.727735,-0.11478,0.034758,-0.037136,-0.03928,-0.08948,-0.001465,35.0,6.975,-26.1,-29.1,194.5945,-7.6179,2.5569,1.97,22.22208,48.843838,2.3530045,485.9529,NaN,0.0,20.748388,,8 / 25,1133,2022-01-10 17:27:01:207
-0.597906,0.925424,9.722936,-0.514283,1.130082,9.727735,-0.11478,0.034758,-0.037136,-0.03928,-0.08948,-0.001465,35.0,6.975,-26.1,-29.1,194.5945,-7.6179,2.5569,1.97,22.22208,48.843838,2.3530045,485.9529,NaN,0.0,20.748388,,8 / 25,1139,2022-01-10 17:27:01:213
-0.305683,1.308575,9.67149,-0.514283,1.130082,9.727735,-0.11478,0.034758,-0.037136,0.065379,-0.07643,0.04221,35.0,6.975,-26.1,-29.1,194.5945,-7.6179,2.5569,1.97,22.22208,48.843838,2.3530045,485.9529,NaN,0.0,20.748388,,8 / 25,1144,2022-01-10 17:27:01:218
-0.305683,1.308575,9.67149,-0.514283,1.130082,9.727735,-0.11478,0.034758,-0.037136,0.065379,-0.07643,0.04221,35.0,6.975,-26.1,-29.1,194.5945,-7.6179,2.5569,1.97,22.22208,48.843838,2.3530045,485.9529,NaN,0.0,20.748388,,8 / 25,1148,2022-01-10 17:27:01:222
-0.305683,1.308575,9.67149,-0.514283,1.130082,9.727735,-0.11478,0.034758,-0.037136,0.065379,-0.07643,0.04221,35.0,6.975,-26.1,-29.1,194.5945,-7.6179,2.5569,1.97,22.22208,48.843838,2.3530045,485.9529,NaN,0.0,20.748388,,8 / 25,1153,2022-01-10 17:27:01:227
-0.305683,1.308575,9.67149,-0.432532,1.148372,9.729569,-0.138844,-0.125324,0.16621,0.065379,-0.07643,0.04221,35.0,6.975,-26.1,-29.1,194.5945,-7.6179,2.5569,1.97,22.22208,48.843838,2.3530045,485.9529,NaN,0.0,20.748388,,8 / 25,1159,2022-01-10 17:27:01:233
-0.305683,1.308575,9.67149,-0.432532,1.148372,9.729569,-0.138844,-0.125324,0.16621,0.065379,-0.07643,0.04221,35.0,6.975,-26.1,-29.1,194.5945,-7.6179,2.5569,1.97,22.22208,48.843838,2.3530045,485.9529,NaN,0.0,20.748388,,8 / 25,1164,2022-01-10 17:27:01:238
-0.305683,1.308575,9.67149,-0.432532,1.148372,9.729569,-0.138844,-0.125324,0.16621,0.065379,-0.07643,0.04221,35.0,6.975,-26.1,-29.1,194.5945,-7.6179,2.5569,1.97,22.22208,48.843838,2.3530045,485.9529,NaN,0.0,20.748388,,8 / 25,1169,2022-01-10 17:27:01:243
-0.305683,1.308575,9.67149,-0.432532,1.148372,9.729569,-0.138844,-0.125324,0.16621,0.065379,-0.07643,0.04221,35.0,6.975,-26.1,-29.1,194.5945,-7.6179,2.5569,1.97,22.22208,48.843838,2.3530045,485.9529,NaN,0.0,20.748388,,8 / 25,1174,2022-01-10 17:27:01:248
-0.305683,1.308575,9.67149,-0.432532,1.148372,9.729569,-0.138844,-0.125324,0.16621,0.065379,-0.07643,0.04221,35.0,6.975,-26.1,-29.1,194.5945,-7.6179,2.5569,1.97,22.22208,48.843838,2.3530045,485.9529,NaN,0.0,20.748388,,8 / 25,1178,2022-01-10 17:27:01:252
-0.305683,1.308575,9.67149,-0.432532,1.148372,9.729569,-0.138844,-0.125324,0.16621,0.065379,-0.07643,0.04221,35.0,5.7,-25.35,-29.175,192.4003,-6.7248,2.5454,1.97,22.22208,48.843838,2.3530045,485.9529,NaN,0.0,20.748388,,8 / 25,1184,2022-01-10 17:27:01:258
-0.305683,1.308575,9.67149,-0.432532,1.148372,9.729569,-0.138844,-0.125324,0.16621,0.065379,-0.07643,0.04221,35.0,5.7,-25.35,-29.175,192.4003,-6.7248,2.5454,1.97,22.22208,48.843838,2.3530045,485.9529,NaN,0.0,20.748388,,8 / 25,1188,2022-01-10 17:27:01:262
-0.305683,1.308575,9.67149,-0.432532,1.148372,9.729569,-0.138844,-0.125324,0.16621,0.065379,-0.07643,0.04221,35.0,5.7,-25.35,-29.175,192.4003,-6.7248,2.5454,1.97,22.22208,48.843838,2.3530045,485.9529,NaN,0.0,20.748388,,8 / 25,1194,2022-01-10 17:27:01:268
-0.305683,1.308575,9.67149,-0.432532,1.148372,9.729569,-0.138844,-0.125324,0.16621,0.065379,-0.07643,0.04221,35.0,5.7,-25.35,-29.175,192.4003,-6.7248,2.5454,1.97,22.22208,48.843838,2.3530045,485.9529,NaN,0.0,20.748388,,8 / 25,1198,2022-01-10 17:27:01:272
-0.305683,1.308575,9.67149,-0.432532,1.148372,9.729569,-0.138844,-0.125324,0.16621,0.065379,-0.07643,0.04221,35.0,5.7,-25.35,-29.175,192.4003,-6.7248,2.5454,1.97,22.22208,48.843838,2.3530045,485.9529,NaN,0.0,20.748388,,8 / 25,1204,2022-01-10 17:27:01:278
-0.305683,1.308575,9.67149,-0.432532,1.148372,9.729569,-0.138844,-0.125324,0.16621,0.065379,-0.07643,0.04221,35.0,5.7,-25.35,-29.175,192.4003,-6.7248,2.5454,1.97,22.22208,48.843838,2.3530045,485.9529,NaN,0.0,20.748388,,8 / 25,1209,2022-01-10 17:27:01:283
-0.305683,1.308575,9.67149,-0.432532,1.148372,9.729569,-0.138844,-0.125324,0.16621,0.065379,-0.07643,0.04221,35.0,5.7,-25.35,-29.175,192.4003,-6.7248,2.5454,1.97,22.22208,48.843838,2.3530045,485.9529,NaN,0.0,20.748388,,8 / 25,1213,2022-01-10 17:27:01:287
-0.305683,1.308575,9.67149,-0.432532,1.148372,9.729569,-0.138844,-0.125324,0.16621,0.065379,-0.07643,0.04221,35.0,5.7,-25.35,-29.175,192.4003,-6.7248,2.5454,1.97,22.22208,48.843838,2.3530045,485.9529,NaN,0.0,20.748388,,8 / 25,1219,2022-01-10 17:27:01:293
-0.305683,1.308575,9.67149,-0.432532,1.148372,9.729569,-0.138844,-0.125324,0.16621,0.065379,-0.07643,0.04221,35.0,5.7,-25.35,-29.175,192.4003,-6.7248,2.5454,1.97,22.22208,48.843838,2.3530045,485.9529,NaN,0.0,20.748388,,8 / 25,1224,2022-01-10 17:27:01:298
-0.305683,1.308575,9.67149,-0.432532,1.148372,9.729569,-0.138844,-0.125324,0.16621,0.065379,-0.07643,0.04221,35.0,5.7,-25.35,-29.175,192.4003,-6.7248,2.5454,1.97,22.22208,48.843838,2.3530045,485.9529,NaN,0.0,20.748388,,8 / 25,1229,2022-01-10 17:27:01:303
-0.305683,1.308575,9.67149,-0.432532,1.148372,9.729569,-0.138844,-0.125324,0.16621,0.065379,-0.07643,0.04221,35.0,5.7,-25.35,-29.175,192.4003,-6.7248,2.5454,1.97,22.22208,48.843838,2.3530045,485.9529,NaN,0.0,20.748388,,8 / 25,1234,2022-01-10 17:27:01:308
-0.305683,1.308575,9.67149,-0.432532,1.148372,9.729569,-0.138844,-0.125324,0.16621,0.065379,-0.07643,0.04221,35.0,5.7,-25.35,-29.175,192.4003,-6.7248,2.5454,1.97,22.22208,48.843838,2.3530045,485.9529,NaN,0.0,20.748388,,8 / 25,1239,2022-01-10 17:27:01:313
-0.305683,1.308575,9.67149,-0.432532,1.148372,9.729569,-0.138844,-0.125324,0.16621,0.065379,-0.07643,0.04221,35.0,5.7,-25.35,-29.175,192.4003,-6.7248,2.5454,1.97,22.22208,48.843838,2.3530045,485.9529,NaN,0.0,20.748388,,8 / 25,1243,2022-01-10 17:27:01:317
-0.305683,1.308575,9.67149,-0.432532,1.148372,9.729569,-0.138844,-0.125324,0.16621,0.065379,-0.07643,0.04221,35.0,5.7,-25.35,-29.175,192.4003,-6.7248,2.5454,1.97,22.22208,48.843838,2.3530045,485.9529,NaN,0.0,20.748388,,8 / 25,1249,2022-01-10 17:27:01:323
-0.305683,1.308575,9.67149,-0.432532,1.148372,9.729569,-0.138844,-0.125324,0.16621,0.065379,-0.07643,0.04221,35.0,5.7,-25.35,-29.175,192.4003,-6.7248,2.5454,1.97,22.22208,48.843838,2.3530045,485.9529,NaN,0.0,20.748388,,8 / 25,1254,2022-01-10 17:27:01:328
-0.305683,1.308575,9.67149,-0.432532,1.148372,9.729569,-0.138844,-0.125324,0.16621,0.065379,-0.07643,0.04221,35.0,5.7,-25.35,-29.175,192.4003,-6.7248,2.5454,1.97,22.22208,48.843838,2.3530045,485.9529,NaN,0.0,20.748388,,8 / 25,1259,2022-01-10 17:27:01:333
-0.305683,1.308575,9.67149,-0.432532,1.148372,9.729569,-0.138844,-0.125324,0.16621,0.065379,-0.07643,0.04221,35.0,5.7,-25.35,-29.175,192.4003,-6.7248,2.5454,1.97,22.22208,48.843838,2.3530045,485.9529,NaN,0.0,20.748388,,8 / 25,1263,2022-01-10 17:27:01:337
-0.305683,1.308575,9.67149,-0.432532,1.148372,9.729569,-0.138844,-0.125324,0.16621,0.065379,-0.07643,0.04221,35.0,5.7,-25.35,-29.175,192.4003,-6.7248,2.5454,1.97,22.22208,48.843838,2.3530045,485.9529,NaN,0.0,20.748388,,8 / 25,1269,2022-01-10 17:27:01:343
-0.34666,1.121636,9.61496,-0.412199,1.101439,9.735878,-0.138844,-0.125324,0.16621,-0.006658,-0.016511,-0.041944,35.0,5.7,-25.35,-29.175,192.4003,-6.7248,2.5454,1.97,22.22208,48.843838,2.3530045,485.9529,NaN,0.0,20.748388,,8 / 25,1273,2022-01-10 17:27:01:347
-0.34666,1.121636,9.61496,-0.412199,1.101439,9.735878,6.9E-5,-0.013092,-0.013037,-0.006658,-0.016511,-0.041944,35.0,5.7,-25.35,-29.175,192.4003,-6.7248,2.5454,1.97,22.22208,48.843838,2.3530045,485.9529,NaN,0.0,20.748388,,8 / 25,1278,2022-01-10 17:27:01:352
-0.34666,1.121636,9.61496,-0.412199,1.101439,9.735878,6.9E-5,-0.013092,-0.013037,-0.006658,-0.016511,-0.041944,35.0,5.7,-25.35,-29.175,192.4003,-6.7248,2.5454,1.97,22.22208,48.843838,2.3530045,485.9529,NaN,0.0,20.748388,,8 / 25,1284,2022-01-10 17:27:01:358
-0.34666,1.121636,9.61496,-0.412199,1.101439,9.735878,6.9E-5,-0.013092,-0.013037,-0.006658,-0.016511,-0.041944,35.0,5.7,-25.35,-29.175,192.4003,-6.7248,2.5454,1.97,22.22208,48.843838,2.3530045,485.9529,NaN,0.0,20.748388,,8 / 25,1288,2022-01-10 17:27:01:362
-0.34666,1.121636,9.61496,-0.412199,1.101439,9.735878,6.9E-5,-0.013092,-0.013037,-0.006658,-0.016511,-0.041944,35.0,5.7,-25.35,-29.175,192.4003,-6.7248,2.5454,1.97,22.22208,48.843838,2.3530045,485.9529,NaN,0.0,20.748388,,8 / 25,1294,2022-01-10 17:27:01:368
-0.34666,1.121636,9.61496,-0.412199,1.101439,9.735878,6.9E-5,-0.013092,-0.013037,-0.006658,-0.016511,-0.041944,35.0,5.7,-25.35,-29.175,192.4003,-6.7248,2.5454,1.97,22.22208,48.843838,2.3530045,485.9529,NaN,0.0,20.748388,,8 / 25,1315,2022-01-10 17:27:01:389
-0.34666,1.121636,9.61496,-0.412199,1.101439,9.735878,6.9E-5,-0.013092,-0.013037,-0.006658,-0.016511,-0.041944,35.0,5.7,-25.35,-29.175,192.4003,-6.7248,2.5454,1.97,22.22208,48.843838,2.3530045,485.9529,NaN,0.0,20.748388,,8 / 25,1316,2022-01-10 17:27:01:390
-0.34666,1.121636,9.61496,-0.412199,1.101439,9.735878,6.9E-5,-0.013092,-0.013037,-0.006658,-0.016511,-0.041944,35.0,5.7,-25.35,-29.175,192.4003,-6.7248,2.5454,1.97,22.22208,48.843838,2.3530045,485.9529,NaN,0.0,20.748388,,8 / 25,1316,2022-01-10 17:27:01:390
-0.34666,1.121636,9.61496,-0.412199,1.101439,9.735878,6.9E-5,-0.013092,-0.013037,-0.006658,-0.016511,-0.041944,35.0,5.7,-25.35,-29.175,192.4003,-6.7248,2.5454,1.97,22.22208,48.843838,2.3530045,485.9529,NaN,0.0,20.748388,,8 / 25,1316,2022-01-10 17:27:01:390
-0.34666,1.121636,9.61496,-0.412199,1.101439,9.735878,6.9E-5,-0.013092,-0.013037,-0.006658,-0.016511,-0.041944,35.0,5.7,-25.35,-29.175,192.4003,-6.7248,2.5454,1.97,22.22208,48.843838,2.3530045,485.9529,NaN,0.0,20.748388,,8 / 25,1320,2022-01-10 17:27:01:394
-0.34666,1.121636,9.61496,-0.412199,1.101439,9.735878,6.9E-5,-0.013092,-0.013037,-0.006658,-0.016511,-0.041944,35.0,5.7,-25.35,-29.175,192.4003,-6.7248,2.5454,1.97,22.22208,48.843838,2.3530045,485.9529,NaN,0.0,20.748388,,8 / 25,1324,2022-01-10 17:27:01:398
-0.34666,1.121636,9.61496,-0.412199,1.101439,9.735878,6.9E-5,-0.013092,-0.013037,-0.006658,-0.016511,-0.041944,35.0,5.7,-25.35,-29.175,192.4003,-6.7248,2.5454,1.97,22.22208,48.843838,2.3530045,485.9529,NaN,0.0,20.748388,,8 / 25,1328,2022-01-10 17:27:01:402
-0.34666,1.121636,9.61496,-0.412199,1.101439,9.735878,6.9E-5,-0.013092,-0.013037,-0.006658,-0.016511,-0.041944,35.0,5.7,-25.35,-29.175,192.4003,-6.7248,2.5454,1.97,22.22208,48.843838,2.3530045,485.9529,NaN,0.0,20.748388,,8 / 25,1335,2022-01-10 17:27:01:409
-0.34666,1.121636,9.61496,-0.412199,1.101439,9.735878,6.9E-5,-0.013092,-0.013037,-0.006658,-0.016511,-0.041944,35.0,5.7,-25.35,-29.175,192.4003,-6.7248,2.5454,1.97,22.22208,48.843838,2.3530045,485.9529,NaN,0.0,20.748388,,8 / 25,1338,2022-01-10 17:27:01:412
-0.34666,1.121636,9.61496,-0.412199,1.101439,9.735878,6.9E-5,-0.013092,-0.013037,-0.006658,-0.016511,-0.041944,35.0,5.7,-25.35,-29.175,192.4003,-6.7248,2.5454,1.97,22.22208,48.843838,2.3530045,485.9529,NaN,0.0,20.748388,,8 / 25,1345,2022-01-10 17:27:01:419
-0.34666,1.121636,9.61496,-0.412199,1.101439,9.735878,6.9E-5,-0.013092,-0.013037,-0.006658,-0.016511,-0.041944,35.0,5.7,-25.35,-29.175,192.4003,-6.7248,2.5454,1.97,22.22208,48.843838,2.3530045,485.9529,NaN,0.0,20.748388,,8 / 25,1349,2022-01-10 17:27:01:423
-0.34666,1.121636,9.61496,-0.412199,1.101439,9.735878,6.9E-5,-0.013092,-0.013037,-0.006658,-0.016511,-0.041944,35.0,5.7,-25.35,-29.175,192.4003,-6.7248,2.5454,1.97,22.22208,48.843838,2.3530045,485.9529,NaN,0.0,20.748388,,8 / 25,1354,2022-01-10 17:27:01:428
-0.34666,1.121636,9.61496,-0.412199,1.101439,9.735878,6.9E-5,-0.013092,-0.013037,-0.006658,-0.016511,-0.041944,35.0,5.7,-25.35,-29.175,192.4003,-6.7248,2.5454,1.97,22.22208,48.843838,2.3530045,485.9529,NaN,0.0,20.748388,,8 / 25,1359,2022-01-10 17:27:01:433
-0.34666,1.121636,9.61496,-0.412199,1.101439,9.735878,6.9E-5,-0.013092,-0.013037,-0.006658,-0.016511,-0.041944,35.0,5.7,-25.35,-29.175,192.4003,-6.7248,2.5454,1.97,22.22208,48.843838,2.3530045,485.9529,NaN,0.0,20.748388,,8 / 25,1364,2022-01-10 17:27:01:438
-0.34666,1.121636,9.61496,-0.412199,1.101439,9.735878,6.9E-5,-0.013092,-0.013037,-0.006658,-0.016511,-0.041944,35.0,5.7,-25.35,-29.175,192.4003,-6.7248,2.5454,1.97,22.22208,48.843838,2.3530045,485.9529,NaN,0.0,20.748388,,8 / 25,1369,2022-01-10 17:27:01:443
-0.34666,1.121636,9.61496,-0.412199,1.101439,9.735878,6.9E-5,-0.013092,-0.013037,-0.006658,-0.016511,-0.041944,35.0,5.7,-25.35,-29.175,192.4003,-6.7248,2.5454,1.97,22.22208,48.843838,2.3530045,485.9529,NaN,0.0,20.748388,,8 / 25,1375,2022-01-10 17:27:01:449
-0.34666,1.121636,9.61496,-0.412199,1.101439,9.735878,6.9E-5,-0.013092,-0.013037,-0.006658,-0.016511,-0.041944,35.0,5.7,-25.35,-29.175,192.4003,-6.7248,2.5454,1.97,22.22208,48.843838,2.3530045,485.9529,NaN,0.0,20.748388,,8 / 25,1378,2022-01-10 17:27:01:452
-0.417248,1.055833,9.435498,-0.412199,1.101439,9.735878,6.9E-5,-0.013092,-0.013037,-0.006658,-0.016511,-0.041944,35.0,6.45,-24.75,-29.1,192.4706,-6.4488,2.4244,1.97,22.22208,48.843838,2.3530045,485.9529,NaN,0.0,20.748388,,8 / 25,1384,2022-01-10 17:27:01:458
-0.417248,1.055833,9.435498,-0.412199,1.101439,9.735878,6.9E-5,-0.013092,-0.013037,-0.006658,-0.016511,-0.041944,35.0,6.45,-24.75,-29.1,192.4706,-6.4488,2.4244,1.97,22.22208,48.843838,2.3530045,485.9529,NaN,0.0,20.748388,,8 / 25,1389,2022-01-10 17:27:01:463
-0.417248,1.055833,9.435498,-0.412199,1.101439,9.735878,6.9E-5,-0.013092,-0.013037,-0.006658,-0.016511,-0.041944,35.0,6.45,-24.75,-29.1,192.4706,-6.4488,2.4244,1.97,20.36557,48.843838,2.3530045,485.9529,NaN,0.0,20.748388,,8 / 25,1394,2022-01-10 17:27:01:468
-0.417248,1.055833,9.435498,-0.412199,1.101439,9.735878,6.9E-5,-0.013092,-0.013037,-0.006658,-0.016511,-0.041944,35.0,6.45,-24.75,-29.1,192.4706,-6.4488,2.4244,1.97,20.36557,48.843838,2.3530045,485.9529,NaN,0.0,20.748388,,8 / 25,1399,2022-01-10 17:27:01:473
-0.417248,1.055833,9.435498,-0.412199,1.101439,9.735878,6.9E-5,-0.013092,-0.013037,-0.006658,-0.016511,-0.041944,35.0,6.45,-24.75,-29.1,192.4706,-6.4488,2.4244,1.97,20.36557,48.843838,2.3530045,485.9529,NaN,0.0,20.748388,,8 / 25,1404,2022-01-10 17:27:01:478
-0.417248,1.055833,9.435498,-0.466256,1.094477,9.734223,0.05346,-0.087346,-0.045894,0.03209,0.051664,-0.03249,35.0,6.45,-24.75,-29.1,192.4706,-6.4488,2.4244,1.97,20.36557,48.843838,2.3530045,485.9529,NaN,0.0,20.748388,,8 / 25,1409,2022-01-10 17:27:01:483
-0.417248,1.055833,9.435498,-0.466256,1.094477,9.734223,0.05346,-0.087346,-0.045894,0.03209,0.051664,-0.03249,35.0,6.45,-24.75,-29.1,192.4706,-6.4488,2.4244,1.97,20.36557,48.843838,2.3530045,485.9529,NaN,0.0,20.748388,,8 / 25,1414,2022-01-10 17:27:01:488
-0.417248,1.055833,9.435498,-0.466256,1.094477,9.734223,0.05346,-0.087346,-0.045894,0.03209,0.051664,-0.03249,35.0,6.45,-24.75,-29.1,192.4706,-6.4488,2.4244,1.97,20.36557,48.843838,2.3530045,485.9529,NaN,0.0,20.748388,,8 / 25,1419,2022-01-10 17:27:01:493
-0.417248,1.055833,9.435498,-0.466256,1.094477,9.734223,0.05346,-0.087346,-0.045894,0.03209,0.051664,-0.03249,35.0,6.45,-24.75,-29.1,192.4706,-6.4488,2.4244,1.97,20.36557,48.843838,2.3530045,485.9529,NaN,0.0,20.748388,,8 / 25,1425,2022-01-10 17:27:01:499
-0.417248,1.055833,9.435498,-0.466256,1.094477,9.734223,0.05346,-0.087346,-0.045894,0.03209,0.051664,-0.03249,35.0,6.45,-24.75,-29.1,192.4706,-6.4488,2.4244,1.97,20.36557,48.843838,2.3530045,485.9529,NaN,0.0,20.748388,,8 / 25,1430,2022-01-10 17:27:01:504
-0.417248,1.055833,9.435498,-0.466256,1.094477,9.734223,0.05346,-0.087346,-0.045894,0.03209,0.051664,-0.03249,35.0,6.45,-24.75,-29.1,192.4706,-6.4488,2.4244,1.97,20.36557,48.843838,2.3530045,485.9529,NaN,0.0,20.748388,,8 / 25,1434,2022-01-10 17:27:01:508
-0.417248,1.055833,9.435498,-0.466256,1.094477,9.734223,0.05346,-0.087346,-0.045894,0.03209,0.051664,-0.03249,35.0,6.45,-24.75,-29.1,192.4706,-6.4488,2.4244,1.97,20.36557,48.843838,2.3530045,485.9529,NaN,0.0,20.748388,,8 / 25,1440,2022-01-10 17:27:01:514
-0.417248,1.055833,9.435498,-0.466256,1.094477,9.734223,0.05346,-0.087346,-0.045894,0.03209,0.051664,-0.03249,35.0,6.45,-24.75,-29.1,192.4706,-6.4488,2.4244,1.97,20.36557,48.843838,2.3530045,485.9529,NaN,0.0,20.748388,,8 / 25,1443,2022-01-10 17:27:01:517
-0.417248,1.055833,9.435498,-0.466256,1.094477,9.734223,0.05346,-0.087346,-0.045894,0.03209,0.051664,-0.03249,35.0,6.45,-24.75,-29.1,192.4706,-6.4488,2.4244,1.97,20.36557,48.843838,2.3530045,485.9529,NaN,0.0,20.748388,,8 / 25,1449,2022-01-10 17:27:01:523
-0.417248,1.055833,9.435498,-0.466256,1.094477,9.734223,0.05346,-0.087346,-0.045894,0.03209,0.051664,-0.03249,35.0,6.45,-24.75,-29.1,192.4706,-6.4488,2.4244,1.97,20.36557,48.843838,2.3530045,485.9529,NaN,0.0,20.748388,,8 / 25,1454,2022-01-10 17:27:01:528
-0.417248,1.055833,9.435498,-0.466256,1.094477,9.734223,0.05346,-0.087346,-0.045894,0.03209,0.051664,-0.03249,35.0,6.45,-24.75,-29.1,192.4706,-6.4488,2.4244,1.97,20.36557,48.843838,2.3530045,485.9529,NaN,0.0,20.748388,,8 / 25,1459,2022-01-10 17:27:01:533
-0.417248,1.055833,9.435498,-0.466256,1.094477,9.734223,0.05346,-0.087346,-0.045894,0.03209,0.051664,-0.03249,35.0,6.45,-24.75,-29.1,192.4706,-6.4488,2.4244,1.97,20.36557,48.843838,2.3530045,485.9529,NaN,0.0,20.748388,,8 / 25,1464,2022-01-10 17:27:01:538
-0.48664,1.090529,9.7349,-0.466256,1.094477,9.734223,0.05346,-0.087346,-0.045894,0.03209,0.051664,-0.03249,35.0,6.45,-24.75,-29.1,192.4706,-6.4488,2.4244,1.97,20.36557,48.843838,2.3530045,485.9529,NaN,0.0,20.748388,,8 / 25,1469,2022-01-10 17:27:01:543
-0.48664,1.090529,9.7349,-0.466256,1.094477,9.734223,0.05346,-0.087346,-0.045894,0.03209,0.051664,-0.03249,35.0,6.45,-24.75,-29.1,192.4706,-6.4488,2.4244,1.97,20.36557,48.843838,2.3530045,485.9529,NaN,0.0,20.748388,,8 / 25,1474,2022-01-10 17:27:01:548
-0.48664,1.090529,9.7349,-0.466256,1.094477,9.734223,0.05346,-0.087346,-0.045894,0.03209,0.051664,-0.03249,35.0,6.45,-24.75,-29.1,192.4706,-6.4488,2.4244,1.97,20.36557,48.843838,2.3530045,485.9529,NaN,0.0,20.748388,,8 / 25,1479,2022-01-10 17:27:01:553
-0.48664,1.090529,9.7349,-0.466256,1.094477,9.734223,0.05346,-0.087346,-0.045894,0.03209,0.051664,-0.03249,35.0,6.45,-24.75,-29.1,192.4706,-6.4488,2.4244,1.97,20.36557,48.843838,2.3530045,485.9529,NaN,0.0,20.748388,,8 / 25,1484,2022-01-10 17:27:01:558
-0.48664,1.090529,9.7349,-0.466256,1.094477,9.734223,0.05346,-0.087346,-0.045894,0.03209,0.051664,-0.03249,35.0,6.45,-24.75,-29.1,192.4706,-6.4488,2.4244,1.97,20.36557,48.843838,2.3530045,485.9529,NaN,0.0,20.748388,,8 / 25,1489,2022-01-10 17:27:01:563
-0.48664,1.090529,9.7349,-0.466256,1.094477,9.734223,0.05346,-0.087346,-0.045894,0.03209,0.051664,-0.03249,35.0,6.45,-24.75,-29.1,192.4706,-6.4488,2.4244,1.97,20.36557,48.843838,2.3530045,485.9529,NaN,0.0,20.748388,,8 / 25,1493,2022-01-10 17:27:01:567
-0.48664,1.090529,9.7349,-0.466256,1.094477,9.734223,0.05346,-0.087346,-0.045894,0.03209,0.051664,-0.03249,35.0,6.45,-24.75,-29.1,192.4706,-6.4488,2.4244,1.97,20.36557,48.843838,2.3530045,485.9529,NaN,0.0,20.748388,,8 / 25,1499,2022-01-10 17:27:01:573
-0.48664,1.090529,9.7349,-0.466256,1.094477,9.734223,0.05346,-0.087346,-0.045894,0.03209,0.051664,-0.03249,35.0,6.45,-24.75,-29.1,192.4706,-6.4488,2.4244,1.97,20.36557,48.843838,2.3530045,485.9529,NaN,0.0,20.748388,,8 / 25,1504,2022-01-10 17:27:01:578
-0.48664,1.090529,9.7349,-0.466256,1.094477,9.734223,0.05346,-0.087346,-0.045894,0.03209,0.051664,-0.03249,35.0,6.45,-24.75,-29.1,192.4706,-6.4488,2.4244,1.97,20.36557,48.843838,2.3530045,485.9529,NaN,0.0,20.748388,,8 / 25,1513,2022-01-10 17:27:01:587
-0.48664,1.090529,9.7349,-0.466256,1.094477,9.734223,0.05346,-0.087346,-0.045894,0.03209,0.051664,-0.03249,35.0,6.45,-24.75,-29.1,192.4706,-6.4488,2.4244,1.97,20.36557,48.843838,2.3530045,485.9529,NaN,0.0,20.748388,,8 / 25,1515,2022-01-10 17:27:01:589
-0.48664,1.090529,9.7349,-0.466256,1.094477,9.734223,0.05346,-0.087346,-0.045894,0.03209,0.051664,-0.03249,35.0,6.45,-24.75,-29.1,192.4706,-6.4488,2.4244,1.97,20.36557,48.843838,2.3530045,485.9529,NaN,0.0,20.748388,,8 / 25,1519,2022-01-10 17:27:01:593
-0.48664,1.090529,9.7349,-0.466256,1.094477,9.734223,0.05346,-0.087346,-0.045894,0.03209,0.051664,-0.03249,35.0,6.45,-24.75,-29.1,192.4706,-6.4488,2.4244,1.97,20.36557,48.843838,2.3530045,485.9529,NaN,0.0,20.748388,,8 / 25,1523,2022-01-10 17:27:01:597
-0.48664,1.090529,9.7349,-0.466256,1.094477,9.734223,0.05346,-0.087346,-0.045894,0.03209,0.051664,-0.03249,35.0,6.45,-24.75,-29.1,192.4706,-6.4488,2.4244,1.97,20.36557,48.843838,2.3530045,485.9529,NaN,0.0,20.748388,,8 / 25,1528,2022-01-10 17:27:01:602
-0.48664,1.090529,9.7349,-0.476375,1.080805,9.735261,0.048468,-6.83E-4,0.131585,-0.017976,0.001465,-0.034753,35.0,6.45,-24.75,-29.1,192.4706,-6.4488,2.4244,1.97,20.36557,48.843838,2.3530045,485.9529,NaN,0.0,20.748388,,8 / 25,1533,2022-01-10 17:27:01:607
-0.48664,1.090529,9.7349,-0.476375,1.080805,9.735261,0.048468,-6.83E-4,0.131585,-0.017976,0.001465,-0.034753,35.0,6.45,-24.75,-29.1,192.4706,-6.4488,2.4244,1.97,20.36557,48.843838,2.3530045,485.9529,NaN,0.0,20.748388,,8 / 25,1539,2022-01-10 17:27:01:613
-0.48664,1.090529,9.7349,-0.476375,1.080805,9.735261,0.048468,-6.83E-4,0.131585,-0.017976,0.001465,-0.034753,35.0,6.45,-24.75,-29.1,192.4706,-6.4488,2.4244,1.97,20.36557,48.843838,2.3530045,485.9529,NaN,0.0,20.748388,,8 / 25,1543,2022-01-10 17:27:01:617
-0.48664,1.090529,9.7349,-0.476375,1.080805,9.735261,0.048468,-6.83E-4,0.131585,-0.017976,0.001465,-0.034753,35.0,6.45,-24.75,-29.1,192.4706,-6.4488,2.4244,1.97,20.36557,48.843838,2.3530045,485.9529,NaN,0.0,20.748388,,8 / 25,1549,2022-01-10 17:27:01:623
-0.48664,1.090529,9.7349,-0.476375,1.080805,9.735261,0.048468,-6.83E-4,0.131585,-0.017976,0.001465,-0.034753,35.0,6.45,-24.75,-29.1,192.4706,-6.4488,2.4244,1.97,20.36557,48.843838,2.3530045,485.9529,NaN,0.0,20.748388,,8 / 25,1554,2022-01-10 17:27:01:628
-0.48664,1.090529,9.7349,-0.476375,1.080805,9.735261,0.048468,-6.83E-4,0.131585,-0.017976,0.001465,-0.034753,35.0,6.45,-24.75,-29.1,192.4706,-6.4488,2.4244,1.97,20.36557,48.843838,2.3530045,485.9529,NaN,0.0,20.748388,,8 / 25,1559,2022-01-10 17:27:01:633
-0.48664,1.090529,9.7349,-0.476375,1.080805,9.735261,0.048468,-6.83E-4,0.131585,-0.017976,0.001465,-0.034753,35.0,6.45,-24.75,-29.1,192.4706,-6.4488,2.4244,1.97,20.36557,48.843838,2.3530045,485.9529,NaN,0.0,20.748388,,8 / 25,1564,2022-01-10 17:27:01:638
-0.48664,1.090529,9.7349,-0.476375,1.080805,9.735261,0.048468,-6.83E-4,0.131585,-0.017976,0.001465,-0.034753,35.0,6.45,-24.75,-29.1,192.4706,-6.4488,2.4244,1.97,20.36557,48.843838,2.3530045,485.9529,NaN,0.0,20.748388,,8 / 25,1569,2022-01-10 17:27:01:643
-0.48664,1.090529,9.7349,-0.476375,1.080805,9.735261,0.048468,-6.83E-4,0.131585,-0.017976,0.001465,-0.034753,35.0,6.45,-24.75,-29.1,192.4706,-6.4488,2.4244,1.97,20.36557,48.843838,2.3530045,485.9529,NaN,0.0,20.748388,,8 / 25,1574,2022-01-10 17:27:01:648
-0.485444,1.249951,9.934999,-0.476375,1.080805,9.735261,0.048468,-6.83E-4,0.131585,-0.017976,0.001465,-0.034753,35.0,6.9,-24.825,-28.725,194.4592,-6.3275,2.8014,1.97,20.36557,48.843838,2.3530045,485.9529,NaN,0.0,20.748388,,8 / 25,1578,2022-01-10 17:27:01:652
-0.485444,1.249951,9.934999,-0.476375,1.080805,9.735261,0.048468,-6.83E-4,0.131585,-0.017976,0.001465,-0.034753,35.0,6.9,-24.825,-28.725,194.4592,-6.3275,2.8014,1.97,20.36557,48.843838,2.3530045,485.9529,NaN,0.0,20.748388,,8 / 25,1583,2022-01-10 17:27:01:657
-0.485444,1.249951,9.934999,-0.476375,1.080805,9.735261,0.048468,-6.83E-4,0.131585,-0.017976,0.001465,-0.034753,35.0,6.9,-24.825,-28.725,194.4592,-6.3275,2.8014,1.97,20.36557,48.843838,2.3530045,485.9529,NaN,0.0,20.748388,,8 / 25,1589,2022-01-10 17:27:01:663
-0.485444,1.249951,9.934999,-0.476375,1.080805,9.735261,0.048468,-6.83E-4,0.131585,-0.017976,0.001465,-0.034753,35.0,6.9,-24.825,-28.725,194.4592,-6.3275,2.8014,1.97,20.36557,48.843838,2.3530045,485.9529,NaN,0.0,20.748388,,8 / 25,1593,2022-01-10 17:27:01:667
-0.485444,1.249951,9.934999,-0.476375,1.080805,9.735261,0.048468,-6.83E-4,0.131585,-0.017976,0.001465,-0.034753,35.0,6.9,-24.825,-28.725,194.4592,-6.3275,2.8014,1.97,20.36557,48.843838,2.3530045,485.9529,NaN,0.0,20.748388,,8 / 25,1599,2022-01-10 17:27:01:673
-0.485444,1.249951,9.934999,-0.476375,1.080805,9.735261,0.048468,-6.83E-4,0.131585,-0.017976,0.001465,-0.034753,35.0,6.9,-24.825,-28.725,194.4592,-6.3275,2.8014,1.97,20.36557,48.843838,2.3530045,485.9529,NaN,0.0,20.748388,,8 / 25,1604,2022-01-10 17:27:01:678
-0.485444,1.249951,9.934999,-0.476375,1.080805,9.735261,0.048468,-6.83E-4,0.131585,-0.017976,0.001465,-0.034753,35.0,6.9,-24.825,-28.725,194.4592,-6.3275,2.8014,1.97,20.36557,48.843838,2.3530045,485.9529,NaN,0.0,20.748388,,8 / 25,1608,2022-01-10 17:27:01:682
-0.485444,1.249951,9.934999,-0.476375,1.080805,9.735261,0.048468,-6.83E-4,0.131585,-0.017976,0.001465,-0.034753,35.0,6.9,-24.825,-28.725,194.4592,-6.3275,2.8014,1.97,20.36557,48.843838,2.3530045,485.9529,NaN,0.0,20.748388,,8 / 25,1614,2022-01-10 17:27:01:688
-0.485444,1.249951,9.934999,-0.476375,1.080805,9.735261,0.048468,-6.83E-4,0.131585,-0.017976,0.001465,-0.034753,35.0,6.9,-24.825,-28.725,194.4592,-6.3275,2.8014,1.97,20.36557,48.843838,2.3530045,485.9529,NaN,0.0,20.748388,,8 / 25,1619,2022-01-10 17:27:01:693
-0.485444,1.249951,9.934999,-0.476375,1.080805,9.735261,0.048468,-6.83E-4,0.131585,-0.017976,0.001465,-0.034753,35.0,6.9,-24.825,-28.725,194.4592,-6.3275,2.8014,1.97,20.36557,48.843838,2.3530045,485.9529,NaN,0.0,20.748388,,8 / 25,1623,2022-01-10 17:27:01:697
-0.485444,1.249951,9.934999,-0.476375,1.080805,9.735261,0.048468,-6.83E-4,0.131585,-0.017976,0.001465,-0.034753,35.0,6.9,-24.825,-28.725,194.4592,-6.3275,2.8014,1.97,20.36557,48.843838,2.3530045,485.9529,NaN,0.0,20.748388,,8 / 25,1629,2022-01-10 17:27:01:703
-0.485444,1.249951,9.934999,-0.476375,1.080805,9.735261,0.048468,-6.83E-4,0.131585,-0.017976,0.001465,-0.034753,35.0,6.9,-24.825,-28.725,194.4592,-6.3275,2.8014,1.97,20.36557,48.843838,2.3530045,485.9529,NaN,0.0,20.748388,,8 / 25,1634,2022-01-10 17:27:01:708
-0.485444,1.249951,9.934999,-0.476375,1.080805,9.735261,0.048468,-6.83E-4,0.131585,-0.017976,0.001465,-0.034753,35.0,6.9,-24.825,-28.725,194.4592,-6.3275,2.8014,1.97,20.36557,48.843838,2.3530045,485.9529,NaN,0.0,20.748388,,8 / 25,1638,2022-01-10 17:27:01:712
-0.485444,1.249951,9.934999,-0.460745,1.096112,9.734303,-0.005689,0.149769,0.208794,-0.017976,0.001465,-0.034753,35.0,6.9,-24.825,-28.725,194.4592,-6.3275,2.8014,1.97,20.36557,48.843838,2.3530045,485.9529,NaN,0.0,20.748388,,8 / 25,1644,2022-01-10 17:27:01:718
-0.485444,1.249951,9.934999,-0.460745,1.096112,9.734303,-0.005689,0.149769,0.208794,-0.017976,0.001465,-0.034753,35.0,6.9,-24.825,-28.725,194.4592,-6.3275,2.8014,1.97,20.36557,48.843838,2.3530045,485.9529,NaN,0.0,20.748388,,8 / 25,1649,2022-01-10 17:27:01:723
-0.485444,1.249951,9.934999,-0.460745,1.096112,9.734303,-0.005689,0.149769,0.208794,-0.017976,0.001465,-0.034753,35.0,6.9,-24.825,-28.725,194.4592,-6.3275,2.8014,1.97,20.36557,48.843838,2.3530045,485.9529,NaN,0.0,20.748388,,8 / 25,1654,2022-01-10 17:27:01:728
-0.485444,1.249951,9.934999,-0.460745,1.096112,9.734303,-0.005689,0.149769,0.208794,-0.017976,0.001465,-0.034753,35.0,6.9,-24.825,-28.725,194.4592,-6.3275,2.8014,1.97,20.36557,48.843838,2.3530045,485.9529,NaN,0.0,20.748388,,8 / 25,1659,2022-01-10 17:27:01:733
-0.526122,1.08335,9.683455,-0.460745,1.096112,9.734303,-0.005689,0.149769,0.208794,-0.010652,-0.003728,-0.02197,35.0,6.9,-24.825,-28.725,194.4592,-6.3275,2.8014,1.97,20.36557,48.843838,2.3530045,485.9529,NaN,0.0,20.748388,,8 / 25,1663,2022-01-10 17:27:01:737
-0.526122,1.08335,9.683455,-0.460745,1.096112,9.734303,-0.005689,0.149769,0.208794,-0.010652,-0.003728,-0.02197,35.0,6.9,-24.825,-28.725,194.4592,-6.3275,2.8014,1.97,20.36557,48.843838,2.3530045,485.9529,NaN,0.0,20.748388,,8 / 25,1668,2022-01-10 17:27:01:742
-0.526122,1.08335,9.683455,-0.460745,1.096112,9.734303,-0.005689,0.149769,0.208794,-0.010652,-0.003728,-0.02197,35.0,6.9,-24.825,-28.725,194.4592,-6.3275,2.8014,1.97,20.36557,48.843838,2.3530045,485.9529,NaN,0.0,20.748388,,8 / 25,1673,2022-01-10 17:27:01:747
-0.526122,1.08335,9.683455,-0.460745,1.096112,9.734303,-0.005689,0.149769,0.208794,-0.010652,-0.003728,-0.02197,35.0,6.9,-24.825,-28.725,194.4592,-6.3275,2.8014,1.97,20.36557,48.843838,2.3530045,485.9529,NaN,0.0,20.748388,,8 / 25,1679,2022-01-10 17:27:01:753
-0.526122,1.08335,9.683455,-0.460745,1.096112,9.734303,-0.005689,0.149769,0.208794,-0.010652,-0.003728,-0.02197,35.0,6.9,-24.825,-28.725,194.4592,-6.3275,2.8014,1.97,20.36557,48.843838,2.3530045,485.9529,NaN,0.0,20.748388,,8 / 25,1684,2022-01-10 17:27:01:758
-0.526122,1.08335,9.683455,-0.460745,1.096112,9.734303,-0.005689,0.149769,0.208794,-0.010652,-0.003728,-0.02197,35.0,6.9,-24.825,-28.725,194.4592,-6.3275,2.8014,1.97,20.36557,48.843838,2.3530045,485.9529,NaN,0.0,20.748388,,8 / 25,1691,2022-01-10 17:27:01:765
-0.526122,1.08335,9.683455,-0.460745,1.096112,9.734303,-0.005689,0.149769,0.208794,-0.010652,-0.003728,-0.02197,35.0,6.9,-24.825,-28.725,194.4592,-6.3275,2.8014,1.97,20.36557,48.843838,2.3530045,485.9529,NaN,0.0,20.748388,,8 / 25,1694,2022-01-10 17:27:01:768
-0.526122,1.08335,9.683455,-0.460745,1.096112,9.734303,-0.005689,0.149769,0.208794,-0.010652,-0.003728,-0.02197,35.0,6.9,-24.825,-28.725,194.4592,-6.3275,2.8014,1.97,20.36557,48.843838,2.3530045,485.9529,NaN,0.0,20.748388,,8 / 25,1700,2022-01-10 17:27:01:774
-0.526122,1.08335,9.683455,-0.460745,1.096112,9.734303,-0.005689,0.149769,0.208794,-0.010652,-0.003728,-0.02197,35.0,6.9,-24.825,-28.725,194.4592,-6.3275,2.8014,1.97,20.36557,48.843838,2.3530045,485.9529,NaN,0.0,20.748388,,8 / 25,1706,2022-01-10 17:27:01:780
-0.526122,1.08335,9.683455,-0.460745,1.096112,9.734303,-0.005689,0.149769,0.208794,-0.010652,-0.003728,-0.02197,35.0,6.9,-24.825,-28.725,194.4592,-6.3275,2.8014,1.97,20.36557,48.843838,2.3530045,485.9529,NaN,0.0,20.748388,,8 / 25,1709,2022-01-10 17:27:01:783
-0.526122,1.08335,9.683455,-0.460745,1.096112,9.734303,-0.005689,0.149769,0.208794,-0.010652,-0.003728,-0.02197,35.0,6.9,-24.825,-28.725,194.4592,-6.3275,2.8014,1.97,20.36557,48.843838,2.3530045,485.9529,NaN,0.0,20.748388,,8 / 25,1716,2022-01-10 17:27:01:790
-0.526122,1.08335,9.683455,-0.460745,1.096112,9.734303,-0.005689,0.149769,0.208794,-0.010652,-0.003728,-0.02197,35.0,6.9,-24.825,-28.725,194.4592,-6.3275,2.8014,1.97,20.36557,48.843838,2.3530045,485.9529,NaN,0.0,20.748388,,8 / 25,1719,2022-01-10 17:27:01:793
-0.526122,1.08335,9.683455,-0.460745,1.096112,9.734303,-0.005689,0.149769,0.208794,-0.010652,-0.003728,-0.02197,35.0,6.9,-24.825,-28.725,194.4592,-6.3275,2.8014,1.97,20.36557,48.843838,2.3530045,485.9529,NaN,0.0,20.748388,,8 / 25,1724,2022-01-10 17:27:01:798
-0.526122,1.08335,9.683455,-0.460745,1.096112,9.734303,-0.005689,0.149769,0.208794,-0.010652,-0.003728,-0.02197,35.0,6.9,-24.825,-28.725,194.4592,-6.3275,2.8014,1.97,20.36557,48.843838,2.3530045,485.9529,NaN,0.0,20.748388,,8 / 25,1730,2022-01-10 17:27:01:804
-0.526122,1.08335,9.683455,-0.460745,1.096112,9.734303,-0.005689,0.149769,0.208794,-0.010652,-0.003728,-0.02197,35.0,6.9,-24.825,-28.725,194.4592,-6.3275,2.8014,1.97,20.36557,48.843838,2.3530045,485.9529,NaN,0.0,20.748388,,8 / 25,1734,2022-01-10 17:27:01:808
-0.526122,1.08335,9.683455,-0.460745,1.096112,9.734303,-0.005689,0.149769,0.208794,-0.010652,-0.003728,-0.02197,35.0,6.9,-24.825,-28.725,194.4592,-6.3275,2.8014,1.97,20.36557,48.843838,2.3530045,485.9529,NaN,0.0,20.748388,,8 / 25,1739,2022-01-10 17:27:01:813
-0.526122,1.08335,9.683455,-0.460745,1.096112,9.734303,-0.005689,0.149769,0.208794,-0.010652,-0.003728,-0.02197,35.0,6.9,-24.825,-28.725,194.4592,-6.3275,2.8014,1.97,20.36557,48.843838,2.3530045,485.9529,NaN,0.0,20.748388,,8 / 25,1744,2022-01-10 17:27:01:818
-0.526122,1.08335,9.683455,-0.460745,1.096112,9.734303,-0.005689,0.149769,0.208794,-0.010652,-0.003728,-0.02197,35.0,6.9,-24.825,-28.725,194.4592,-6.3275,2.8014,1.97,20.36557,48.843838,2.3530045,485.9529,NaN,0.0,20.748388,,8 / 25,1749,2022-01-10 17:27:01:823
-0.477069,1.012762,9.550353,-0.460745,1.096112,9.734303,-0.005689,0.149769,0.208794,-0.010652,-0.003728,-0.02197,35.0,6.9,-24.825,-28.725,194.4592,-6.3275,2.8014,1.97,20.36557,48.843838,2.3530045,485.9529,NaN,0.0,20.748388,,8 / 25,1754,2022-01-10 17:27:01:828
-0.477069,1.012762,9.550353,-0.460745,1.096112,9.734303,-0.005689,0.149769,0.208794,-0.010652,-0.003728,-0.02197,35.0,6.9,-24.825,-28.725,194.4592,-6.3275,2.8014,1.97,20.24301,48.843838,2.3530045,485.9529,NaN,0.0,20.748388,,8 / 25,1759,2022-01-10 17:27:01:833
-0.477069,1.012762,9.550353,-0.460745,1.096112,9.734303,-0.005689,0.149769,0.208794,-0.010652,-0.003728,-0.02197,35.0,6.9,-24.825,-28.725,194.4592,-6.3275,2.8014,1.97,20.24301,48.843838,2.3530045,485.9529,NaN,0.0,20.748388,,8 / 25,1764,2022-01-10 17:27:01:838
-0.477069,1.012762,9.550353,-0.460745,1.096112,9.734303,-0.005689,0.149769,0.208794,-0.010652,-0.003728,-0.02197,35.0,6.9,-24.825,-28.725,194.4592,-6.3275,2.8014,1.97,20.24301,48.843838,2.3530045,485.9529,NaN,0.0,20.748388,,8 / 25,1770,2022-01-10 17:27:01:844
-0.477069,1.012762,9.550353,-0.477271,1.106547,9.732325,-0.005073,-0.017114,0.007062,-0.010652,-0.003728,-0.02197,35.0,6.9,-24.825,-28.725,194.4592,-6.3275,2.8014,1.97,20.24301,48.843838,2.3530045,485.9529,NaN,0.0,20.748388,,8 / 25,1774,2022-01-10 17:27:01:848
-0.477069,1.012762,9.550353,-0.477271,1.106547,9.732325,-0.005073,-0.017114,0.007062,-0.010652,-0.003728,-0.02197,35.0,7.125,-24.975,-28.575,194.5056,-6.4788,2.8075,1.97,20.24301,48.843838,2.3530045,485.9529,NaN,0.0,20.748388,,8 / 25,1780,2022-01-10 17:27:01:854
-0.477069,1.012762,9.550353,-0.477271,1.106547,9.732325,-0.005073,-0.017114,0.007062,-0.010652,-0.003728,-0.02197,35.0,7.125,-24.975,-28.575,194.5056,-6.4788,2.8075,1.97,20.24301,48.843838,2.3530045,485.9529,NaN,0.0,20.748388,,8 / 25,1783,2022-01-10 17:27:01:857
-0.477069,1.012762,9.550353,-0.477271,1.106547,9.732325,-0.005073,-0.017114,0.007062,-0.010652,-0.003728,-0.02197,35.0,7.125,-24.975,-28.575,194.5056,-6.4788,2.8075,1.97,20.24301,48.843838,2.3530045,485.9529,NaN,0.0,20.748388,,8 / 25,1789,2022-01-10 17:27:01:863
-0.477069,1.012762,9.550353,-0.477271,1.106547,9.732325,-0.005073,-0.017114,0.007062,-0.019574,0.025832,-0.030892,35.0,7.125,-24.975,-28.575,194.5056,-6.4788,2.8075,1.97,20.24301,48.843838,2.3530045,485.9529,NaN,0.0,20.748388,,8 / 25,1794,2022-01-10 17:27:01:868
-0.477069,1.012762,9.550353,-0.477271,1.106547,9.732325,-0.005073,-0.017114,0.007062,-0.019574,0.025832,-0.030892,35.0,7.125,-24.975,-28.575,194.5056,-6.4788,2.8075,1.97,20.24301,48.843838,2.3530045,485.9529,NaN,0.0,20.748388,,8 / 25,1799,2022-01-10 17:27:01:873
-0.477069,1.012762,9.550353,-0.477271,1.106547,9.732325,-0.005073,-0.017114,0.007062,-0.019574,0.025832,-0.030892,35.0,7.125,-24.975,-28.575,194.5056,-6.4788,2.8075,1.97,20.24301,48.843838,2.3530045,485.9529,NaN,0.0,20.748388,,8 / 25,1804,2022-01-10 17:27:01:878
-0.477069,1.012762,9.550353,-0.477271,1.106547,9.732325,-0.005073,-0.017114,0.007062,-0.019574,0.025832,-0.030892,35.0,7.125,-24.975,-28.575,194.5056,-6.4788,2.8075,1.97,20.24301,48.843838,2.3530045,485.9529,NaN,0.0,20.748388,,8 / 25,1809,2022-01-10 17:27:01:883
-0.477069,1.012762,9.550353,-0.477271,1.106547,9.732325,-0.005073,-0.017114,0.007062,-0.019574,0.025832,-0.030892,35.0,7.125,-24.975,-28.575,194.5056,-6.4788,2.8075,1.97,20.24301,48.843838,2.3530045,485.9529,NaN,0.0,20.748388,,8 / 25,1814,2022-01-10 17:27:01:888
-0.477069,1.012762,9.550353,-0.477271,1.106547,9.732325,-0.005073,-0.017114,0.007062,-0.019574,0.025832,-0.030892,35.0,7.125,-24.975,-28.575,194.5056,-6.4788,2.8075,1.97,20.24301,48.843838,2.3530045,485.9529,NaN,0.0,20.748388,,8 / 25,1819,2022-01-10 17:27:01:893
-0.477069,1.012762,9.550353,-0.477271,1.106547,9.732325,-0.005073,-0.017114,0.007062,-0.019574,0.025832,-0.030892,35.0,7.125,-24.975,-28.575,194.5056,-6.4788,2.8075,1.97,20.24301,48.843838,2.3530045,485.9529,NaN,0.0,20.748388,,8 / 25,1824,2022-01-10 17:27:01:898
-0.477069,1.012762,9.550353,-0.477271,1.106547,9.732325,-0.005073,-0.017114,0.007062,-0.019574,0.025832,-0.030892,35.0,7.125,-24.975,-28.575,194.5056,-6.4788,2.8075,1.97,20.24301,48.843838,2.3530045,485.9529,NaN,0.0,20.748388,,8 / 25,1829,2022-01-10 17:27:01:903
-0.477069,1.012762,9.550353,-0.477271,1.106547,9.732325,-0.005073,-0.017114,0.007062,-0.019574,0.025832,-0.030892,35.0,7.125,-24.975,-28.575,194.5056,-6.4788,2.8075,1.97,20.24301,48.843838,2.3530045,485.9529,NaN,0.0,20.748388,,8 / 25,1834,2022-01-10 17:27:01:908
-0.477069,1.012762,9.550353,-0.477271,1.106547,9.732325,-0.005073,-0.017114,0.007062,-0.019574,0.025832,-0.030892,35.0,7.125,-24.975,-28.575,194.5056,-6.4788,2.8075,1.97,20.24301,48.843838,2.3530045,485.9529,NaN,0.0,20.748388,,8 / 25,1840,2022-01-10 17:27:01:914
-0.477069,1.012762,9.550353,-0.477271,1.106547,9.732325,-0.005073,-0.017114,0.007062,-0.019574,0.025832,-0.030892,35.0,7.125,-24.975,-28.575,194.5056,-6.4788,2.8075,1.97,20.24301,48.843838,2.3530045,485.9529,NaN,0.0,20.748388,,8 / 25,1845,2022-01-10 17:27:01:919
-0.477069,1.012762,9.550353,-0.477271,1.106547,9.732325,-0.005073,-0.017114,0.007062,-0.019574,0.025832,-0.030892,35.0,7.125,-24.975,-28.575,194.5056,-6.4788,2.8075,1.97,20.24301,48.843838,2.3530045,485.9529,NaN,0.0,20.748388,,8 / 25,1849,2022-01-10 17:27:01:923
-0.477069,1.012762,9.550353,-0.477271,1.106547,9.732325,-0.005073,-0.017114,0.007062,-0.019574,0.025832,-0.030892,35.0,7.125,-24.975,-28.575,194.5056,-6.4788,2.8075,1.97,20.24301,48.843838,2.3530045,485.9529,NaN,0.0,20.748388,,8 / 25,1854,2022-01-10 17:27:01:928
-0.477069,1.012762,9.550353,-0.477271,1.106547,9.732325,-0.005073,-0.017114,0.007062,-0.019574,0.025832,-0.030892,35.0,7.125,-24.975,-28.575,194.5056,-6.4788,2.8075,1.97,20.24301,48.843838,2.3530045,485.9529,NaN,0.0,20.748388,,8 / 25,1859,2022-01-10 17:27:01:933
-0.477069,1.012762,9.550353,-0.477271,1.106547,9.732325,-0.005073,-0.017114,0.007062,-0.019574,0.025832,-0.030892,35.0,7.125,-24.975,-28.575,194.5056,-6.4788,2.8075,1.97,20.24301,48.843838,2.3530045,485.9529,NaN,0.0,20.748388,,8 / 25,1864,2022-01-10 17:27:01:938
-0.477069,1.012762,9.550353,-0.477271,1.106547,9.732325,-0.005073,-0.017114,0.007062,-0.019574,0.025832,-0.030892,35.0,7.125,-24.975,-28.575,194.5056,-6.4788,2.8075,1.97,20.24301,48.843838,2.3530045,485.9529,NaN,0.0,20.748388,,8 / 25,1869,2022-01-10 17:27:01:943
-0.468694,1.015155,9.62812,-0.477271,1.106547,9.732325,-0.005073,-0.017114,0.007062,-0.019574,0.025832,-0.030892,35.0,7.125,-24.975,-28.575,194.5056,-6.4788,2.8075,1.97,20.24301,48.843838,2.3530045,485.9529,NaN,0.0,20.748388,,8 / 25,1874,2022-01-10 17:27:01:948
-0.468694,1.015155,9.62812,-0.477271,1.106547,9.732325,-0.005073,-0.017114,0.007062,-0.019574,0.025832,-0.030892,35.0,7.125,-24.975,-28.575,194.5056,-6.4788,2.8075,1.97,20.24301,48.843838,2.3530045,485.9529,NaN,0.0,20.748388,,8 / 25,1879,2022-01-10 17:27:01:953
-0.468694,1.015155,9.62812,-0.477271,1.106547,9.732325,-0.005073,-0.017114,0.007062,-0.019574,0.025832,-0.030892,35.0,7.125,-24.975,-28.575,194.5056,-6.4788,2.8075,1.97,20.24301,48.843838,2.3530045,485.9529,NaN,0.0,20.748388,,8 / 25,1884,2022-01-10 17:27:01:958
-0.468694,1.015155,9.62812,-0.495292,1.074933,9.734967,-0.031239,-0.085074,-0.018105,-0.019574,0.025832,-0.030892,35.0,7.125,-24.975,-28.575,194.5056,-6.4788,2.8075,1.97,20.24301,48.843838,2.3530045,485.9529,NaN,0.0,20.748388,,8 / 25,1889,2022-01-10 17:27:01:963
-0.468694,1.015155,9.62812,-0.495292,1.074933,9.734967,-0.031239,-0.085074,-0.018105,-0.019574,0.025832,-0.030892,35.0,7.125,-24.975,-28.575,194.5056,-6.4788,2.8075,1.97,20.24301,48.843838,2.3530045,485.9529,NaN,0.0,20.748388,,8 / 25,1894,2022-01-10 17:27:01:968
-0.468694,1.015155,9.62812,-0.495292,1.074933,9.734967,-0.031239,-0.085074,-0.018105,-0.019574,0.025832,-0.030892,35.0,7.125,-24.975,-28.575,194.5056,-6.4788,2.8075,1.97,20.24301,48.843838,2.3530045,485.9529,NaN,0.0,20.748388,,8 / 25,1899,2022-01-10 17:27:01:973
-0.468694,1.015155,9.62812,-0.495292,1.074933,9.734967,-0.031239,-0.085074,-0.018105,-0.019574,0.025832,-0.030892,35.0,7.125,-24.975,-28.575,194.5056,-6.4788,2.8075,1.97,20.24301,48.843838,2.3530045,485.9529,NaN,0.0,20.748388,,8 / 25,1904,2022-01-10 17:27:01:978
-0.468694,1.015155,9.62812,-0.495292,1.074933,9.734967,-0.031239,-0.085074,-0.018105,-0.019574,0.025832,-0.030892,35.0,7.125,-24.975,-28.575,194.5056,-6.4788,2.8075,1.97,20.24301,48.843838,2.3530045,485.9529,NaN,0.0,20.748388,,8 / 25,1909,2022-01-10 17:27:01:983
-0.468694,1.015155,9.62812,-0.495292,1.074933,9.734967,-0.031239,-0.085074,-0.018105,-0.019574,0.025832,-0.030892,35.0,7.125,-24.975,-28.575,194.5056,-6.4788,2.8075,1.97,20.24301,48.843838,2.3530045,485.9529,NaN,0.0,20.748388,,8 / 25,1914,2022-01-10 17:27:01:988
-0.468694,1.015155,9.62812,-0.495292,1.074933,9.734967,-0.031239,-0.085074,-0.018105,-0.019574,0.025832,-0.030892,35.0,7.125,-24.975,-28.575,194.5056,-6.4788,2.8075,1.97,20.24301,48.843838,2.3530045,485.9529,NaN,0.0,20.748388,,8 / 25,1920,2022-01-10 17:27:01:994
-0.468694,1.015155,9.62812,-0.495292,1.074933,9.734967,-0.031239,-0.085074,-0.018105,-0.019574,0.025832,-0.030892,35.0,7.125,-24.975,-28.575,194.5056,-6.4788,2.8075,1.97,20.24301,48.843838,2.3530045,485.9529,NaN,0.0,20.748388,,8 / 25,1924,2022-01-10 17:27:01:998
-0.468694,1.015155,9.62812,-0.495292,1.074933,9.734967,-0.031239,-0.085074,-0.018105,-0.019574,0.025832,-0.030892,35.0,7.125,-24.975,-28.575,194.5056,-6.4788,2.8075,1.97,20.24301,48.843838,2.3530045,485.9529,NaN,0.0,20.748388,,8 / 25,1930,2022-01-10 17:27:02:004
-0.468694,1.015155,9.62812,-0.495292,1.074933,9.734967,-0.031239,-0.085074,-0.018105,-0.019574,0.025832,-0.030892,35.0,7.125,-24.975,-28.575,194.5056,-6.4788,2.8075,1.97,20.24301,48.843838,2.3530045,485.9529,NaN,0.0,20.748388,,8 / 25,1934,2022-01-10 17:27:02:008
-0.468694,1.015155,9.62812,-0.495292,1.074933,9.734967,-0.031239,-0.085074,-0.018105,-0.019574,0.025832,-0.030892,35.0,7.125,-24.975,-28.575,194.5056,-6.4788,2.8075,1.97,20.24301,48.843838,2.3530045,485.9529,NaN,0.0,20.748388,,8 / 25,1939,2022-01-10 17:27:02:013
-0.468694,1.015155,9.62812,-0.495292,1.074933,9.734967,-0.031239,-0.085074,-0.018105,-0.01012,0.003595,-0.007323,35.0,7.125,-24.975,-28.575,194.5056,-6.4788,2.8075,1.97,20.24301,48.843838,2.3530045,485.9529,NaN,0.0,20.748388,,8 / 25,1944,2022-01-10 17:27:02:018
-0.468694,1.015155,9.62812,-0.495292,1.074933,9.734967,-0.031239,-0.085074,-0.018105,-0.01012,0.003595,-0.007323,35.0,7.125,-24.975,-28.575,194.5056,-6.4788,2.8075,1.97,20.24301,48.843838,2.3530045,485.9529,NaN,0.0,20.748388,,8 / 25,1949,2022-01-10 17:27:02:023
-0.468694,1.015155,9.62812,-0.495292,1.074933,9.734967,-0.031239,-0.085074,-0.018105,-0.01012,0.003595,-0.007323,35.0,7.125,-24.975,-28.575,194.5056,-6.4788,2.8075,1.97,20.24301,48.843838,2.3530045,485.9529,NaN,0.0,20.748388,,8 / 25,1954,2022-01-10 17:27:02:028
-0.468694,1.015155,9.62812,-0.495292,1.074933,9.734967,-0.031239,-0.085074,-0.018105,-0.01012,0.003595,-0.007323,35.0,7.125,-24.975,-28.575,194.5056,-6.4788,2.8075,1.97,20.24301,48.843838,2.3530045,485.9529,NaN,0.0,20.748388,,8 / 25,1959,2022-01-10 17:27:02:033
-0.468694,1.015155,9.62812,-0.495292,1.074933,9.734967,-0.031239,-0.085074,-0.018105,-0.01012,0.003595,-0.007323,35.0,7.125,-24.975,-28.575,194.5056,-6.4788,2.8075,1.97,20.24301,48.843838,2.3530045,485.9529,NaN,0.0,20.748388,,8 / 25,1963,2022-01-10 17:27:02:037
-0.468694,1.015155,9.62812,-0.495292,1.074933,9.734967,-0.031239,-0.085074,-0.018105,-0.01012,0.003595,-0.007323,35.0,7.125,-24.975,-28.575,194.5056,-6.4788,2.8075,1.97,20.24301,48.843838,2.3530045,485.9529,NaN,0.0,20.748388,,8 / 25,1968,2022-01-10 17:27:02:042
-0.468694,1.015155,9.62812,-0.495292,1.074933,9.734967,-0.031239,-0.085074,-0.018105,-0.01012,0.003595,-0.007323,35.0,7.125,-24.975,-28.575,194.5056,-6.4788,2.8075,1.97,20.24301,48.843838,2.3530045,485.9529,NaN,0.0,20.748388,,8 / 25,1974,2022-01-10 17:27:02:048
-0.468694,1.015155,9.62812,-0.495292,1.074933,9.734967,-0.031239,-0.085074,-0.018105,-0.01012,0.003595,-0.007323,35.0,7.125,-24.975,-28.575,194.5056,-6.4788,2.8075,1.97,20.24301,48.843838,2.3530045,485.9529,NaN,0.0,20.748388,,8 / 25,1979,2022-01-10 17:27:02:053
-0.461516,1.021137,9.642477,-0.495292,1.074933,9.734967,-0.031239,-0.085074,-0.018105,-0.01012,0.003595,-0.007323,35.0,7.275,-24.9,-28.8,194.3063,-6.293,2.9126,1.97,20.24301,48.843838,2.3530045,485.9529,NaN,0.0,20.748388,,8 / 25,1983,2022-01-10 17:27:02:057
-0.461516,1.021137,9.642477,-0.495292,1.074933,9.734967,-0.031239,-0.085074,-0.018105,-0.01012,0.003595,-0.007323,35.0,7.275,-24.9,-28.8,194.3063,-6.293,2.9126,1.97,20.24301,48.843838,2.3530045,485.9529,NaN,0.0,20.748388,,8 / 25,1989,2022-01-10 17:27:02:063
-0.461516,1.021137,9.642477,-0.495292,1.074933,9.734967,-0.031239,-0.085074,-0.018105,-0.01012,0.003595,-0.007323,35.0,7.275,-24.9,-28.8,194.3063,-6.293,2.9126,1.97,20.24301,48.843838,2.3530045,485.9529,NaN,0.0,20.748388,,8 / 25,1994,2022-01-10 17:27:02:068
-0.461516,1.021137,9.642477,-0.495292,1.074933,9.734967,-0.031239,-0.085074,-0.018105,-0.01012,0.003595,-0.007323,35.0,7.275,-24.9,-28.8,194.3063,-6.293,2.9126,1.97,20.24301,48.843838,2.3530045,485.9529,NaN,0.0,20.748388,,8 / 25,1999,2022-01-10 17:27:02:073
-0.461516,1.021137,9.642477,-0.495292,1.074933,9.734967,-0.031239,-0.085074,-0.018105,-0.01012,0.003595,-0.007323,35.0,7.275,-24.9,-28.8,194.3063,-6.293,2.9126,1.97,20.24301,48.843838,2.3530045,485.9529,NaN,0.0,20.748388,,8 / 25,2003,2022-01-10 17:27:02:077
-0.461516,1.021137,9.642477,-0.495499,1.061562,9.736424,-0.018406,0.021522,-0.008254,-0.01012,0.003595,-0.007323,35.0,7.275,-24.9,-28.8,194.3063,-6.293,2.9126,1.97,20.24301,48.843838,2.3530045,485.9529,NaN,0.0,20.748388,,8 / 25,2012,2022-01-10 17:27:02:086
-0.461516,1.021137,9.642477,-0.495499,1.061562,9.736424,-0.018406,0.021522,-0.008254,-0.01012,0.003595,-0.007323,35.0,7.275,-24.9,-28.8,194.3063,-6.293,2.9126,1.97,20.24301,48.843838,2.3530045,485.9529,NaN,0.0,20.748388,,8 / 25,2014,2022-01-10 17:27:02:088
-0.461516,1.021137,9.642477,-0.495499,1.061562,9.736424,-0.018406,0.021522,-0.008254,-0.01012,0.003595,-0.007323,35.0,7.275,-24.9,-28.8,194.3063,-6.293,2.9126,1.97,20.24301,48.843838,2.3530045,485.9529,NaN,0.0,20.748388,,8 / 25,2020,2022-01-10 17:27:02:094
-0.461516,1.021137,9.642477,-0.495499,1.061562,9.736424,-0.018406,0.021522,-0.008254,-0.01012,0.003595,-0.007323,35.0,7.275,-24.9,-28.8,194.3063,-6.293,2.9126,1.97,20.24301,48.843838,2.3530045,485.9529,NaN,0.0,20.748388,,8 / 25,2024,2022-01-10 17:27:02:098
-0.461516,1.021137,9.642477,-0.495499,1.061562,9.736424,-0.018406,0.021522,-0.008254,-0.01012,0.003595,-0.007323,35.0,7.275,-24.9,-28.8,194.3063,-6.293,2.9126,1.97,20.24301,48.843838,2.3530045,485.9529,NaN,0.0,20.748388,,8 / 25,2028,2022-01-10 17:27:02:102
-0.461516,1.021137,9.642477,-0.495499,1.061562,9.736424,-0.018406,0.021522,-0.008254,-0.01012,0.003595,-0.007323,35.0,7.275,-24.9,-28.8,194.3063,-6.293,2.9126,1.97,20.24301,48.843838,2.3530045,485.9529,NaN,0.0,20.748388,,8 / 25,2033,2022-01-10 17:27:02:107
-0.461516,1.021137,9.642477,-0.495499,1.061562,9.736424,-0.018406,0.021522,-0.008254,-0.01012,0.003595,-0.007323,35.0,7.275,-24.9,-28.8,194.3063,-6.293,2.9126,1.97,20.24301,48.843838,2.3530045,485.9529,NaN,0.0,20.748388,,8 / 25,2038,2022-01-10 17:27:02:112
-0.461516,1.021137,9.642477,-0.495499,1.061562,9.736424,-0.018406,0.021522,-0.008254,-0.01012,0.003595,-0.007323,35.0,7.275,-24.9,-28.8,194.3063,-6.293,2.9126,1.97,20.24301,48.843838,2.3530045,485.9529,NaN,0.0,20.748388,,8 / 25,2044,2022-01-10 17:27:02:118
-0.461516,1.021137,9.642477,-0.495499,1.061562,9.736424,-0.018406,0.021522,-0.008254,-0.01012,0.003595,-0.007323,35.0,7.275,-24.9,-28.8,194.3063,-6.293,2.9126,1.97,20.24301,48.843838,2.3530045,485.9529,NaN,0.0,20.748388,,8 / 25,2049,2022-01-10 17:27:02:123
-0.461516,1.021137,9.642477,-0.495499,1.061562,9.736424,-0.018406,0.021522,-0.008254,-0.01012,0.003595,-0.007323,35.0,7.275,-24.9,-28.8,194.3063,-6.293,2.9126,1.97,20.24301,48.843838,2.3530045,485.9529,NaN,0.0,20.748388,,8 / 25,2053,2022-01-10 17:27:02:127
-0.461516,1.021137,9.642477,-0.495499,1.061562,9.736424,-0.018406,0.021522,-0.008254,-0.01012,0.003595,-0.007323,35.0,7.275,-24.9,-28.8,194.3063,-6.293,2.9126,1.97,20.24301,48.843838,2.3530045,485.9529,NaN,0.0,20.748388,,8 / 25,2059,2022-01-10 17:27:02:133
-0.461516,1.021137,9.642477,-0.495499,1.061562,9.736424,-0.018406,0.021522,-0.008254,-0.01012,0.003595,-0.007323,35.0,7.275,-24.9,-28.8,194.3063,-6.293,2.9126,1.97,20.46477,48.843838,2.3530045,485.9529,NaN,0.0,20.748388,,8 / 25,2064,2022-01-10 17:27:02:138
-0.461516,1.021137,9.642477,-0.495499,1.061562,9.736424,-0.018406,0.021522,-0.008254,-0.01012,0.003595,-0.007323,35.0,7.275,-24.9,-28.8,194.3063,-6.293,2.9126,1.97,20.46477,48.843838,2.3530045,485.9529,NaN,0.0,20.748388,,8 / 25,2070,2022-01-10 17:27:02:144
-0.461516,1.021137,9.642477,-0.495499,1.061562,9.736424,-0.018406,0.021522,-0.008254,-0.01012,0.003595,-0.007323,35.0,7.275,-24.9,-28.8,194.3063,-6.293,2.9126,1.97,20.46477,48.843838,2.3530045,485.9529,NaN,0.0,20.748388,,8 / 25,2073,2022-01-10 17:27:02:147
-0.517747,1.080958,9.752846,-0.495499,1.061562,9.736424,-0.018406,0.021522,-0.008254,-0.011451,-0.01225,-0.019707,35.0,7.275,-24.9,-28.8,194.3063,-6.293,2.9126,1.97,20.46477,48.843838,2.3530045,485.9529,NaN,0.0,20.748388,,8 / 25,2078,2022-01-10 17:27:02:152
-0.517747,1.080958,9.752846,-0.495499,1.061562,9.736424,-0.018406,0.021522,-0.008254,-0.011451,-0.01225,-0.019707,35.0,7.275,-24.9,-28.8,194.3063,-6.293,2.9126,1.97,20.46477,48.843838,2.3530045,485.9529,NaN,0.0,20.748388,,8 / 25,2084,2022-01-10 17:27:02:158
-0.517747,1.080958,9.752846,-0.495499,1.061562,9.736424,-0.018406,0.021522,-0.008254,-0.011451,-0.01225,-0.019707,35.0,7.275,-24.9,-28.8,194.3063,-6.293,2.9126,1.97,20.46477,48.843838,2.3530045,485.9529,NaN,0.0,20.748388,,8 / 25,2088,2022-01-10 17:27:02:162
-0.517747,1.080958,9.752846,-0.495499,1.061562,9.736424,-0.018406,0.021522,-0.008254,-0.011451,-0.01225,-0.019707,35.0,7.275,-24.9,-28.8,194.3063,-6.293,2.9126,1.97,20.46477,48.843838,2.3530045,485.9529,NaN,0.0,20.748388,,8 / 25,2093,2022-01-10 17:27:02:167
-0.517747,1.080958,9.752846,-0.495499,1.061562,9.736424,-0.018406,0.021522,-0.008254,-0.011451,-0.01225,-0.019707,35.0,7.275,-24.9,-28.8,194.3063,-6.293,2.9126,1.97,20.46477,48.843838,2.3530045,485.9529,NaN,0.0,20.748388,,8 / 25,2098,2022-01-10 17:27:02:172
-0.517747,1.080958,9.752846,-0.495499,1.061562,9.736424,-0.018406,0.021522,-0.008254,-0.011451,-0.01225,-0.019707,35.0,7.275,-24.9,-28.8,194.3063,-6.293,2.9126,1.97,20.46477,48.843838,2.3530045,485.9529,NaN,0.0,20.748388,,8 / 25,2104,2022-01-10 17:27:02:178
-0.517747,1.080958,9.752846,-0.495499,1.061562,9.736424,-0.018406,0.021522,-0.008254,-0.011451,-0.01225,-0.019707,35.0,7.275,-24.9,-28.8,194.3063,-6.293,2.9126,1.97,20.46477,48.843838,2.3530045,485.9529,NaN,0.0,20.748388,,8 / 25,2109,2022-01-10 17:27:02:183
-0.517747,1.080958,9.752846,-0.495499,1.061562,9.736424,-0.018406,0.021522,-0.008254,-0.011451,-0.01225,-0.019707,35.0,7.275,-24.9,-28.8,194.3063,-6.293,2.9126,1.97,20.46477,48.843838,2.3530045,485.9529,NaN,0.0,20.748388,,8 / 25,2113,2022-01-10 17:27:02:187
-0.517747,1.080958,9.752846,-0.495499,1.061562,9.736424,-0.018406,0.021522,-0.008254,-0.011451,-0.01225,-0.019707,35.0,7.275,-24.9,-28.8,194.3063,-6.293,2.9126,1.97,20.46477,48.843838,2.3530045,485.9529,NaN,0.0,20.748388,,8 / 25,2119,2022-01-10 17:27:02:193
-0.517747,1.080958,9.752846,-0.495499,1.061562,9.736424,-0.018406,0.021522,-0.008254,-0.011451,-0.01225,-0.019707,35.0,7.275,-24.9,-28.8,194.3063,-6.293,2.9126,1.97,20.46477,48.843838,2.3530045,485.9529,NaN,0.0,20.748388,,8 / 25,2124,2022-01-10 17:27:02:198
-0.517747,1.080958,9.752846,-0.495311,1.038827,9.738886,0.016117,0.040071,0.068182,-0.011451,-0.01225,-0.019707,35.0,7.275,-24.9,-28.8,194.3063,-6.293,2.9126,1.97,20.46477,48.843838,2.3530045,485.9529,NaN,0.0,20.748388,,8 / 25,2129,2022-01-10 17:27:02:203
-0.517747,1.080958,9.752846,-0.495311,1.038827,9.738886,0.016117,0.040071,0.068182,-0.011451,-0.01225,-0.019707,35.0,7.275,-24.9,-28.8,194.3063,-6.293,2.9126,1.97,20.46477,48.843838,2.3530045,485.9529,NaN,0.0,20.748388,,8 / 25,2134,2022-01-10 17:27:02:208
-0.517747,1.080958,9.752846,-0.495311,1.038827,9.738886,0.016117,0.040071,0.068182,-0.011451,-0.01225,-0.019707,35.0,7.275,-24.9,-28.8,194.3063,-6.293,2.9126,1.97,20.46477,48.843838,2.3530045,485.9529,NaN,0.0,20.748388,,8 / 25,2139,2022-01-10 17:27:02:213
-0.517747,1.080958,9.752846,-0.495311,1.038827,9.738886,0.016117,0.040071,0.068182,-0.011451,-0.01225,-0.019707,35.0,7.275,-24.9,-28.8,194.3063,-6.293,2.9126,1.97,20.46477,48.843838,2.3530045,485.9529,NaN,0.0,20.748388,,8 / 25,2143,2022-01-10 17:27:02:217
-0.517747,1.080958,9.752846,-0.495311,1.038827,9.738886,0.016117,0.040071,0.068182,-0.011451,-0.01225,-0.019707,35.0,7.275,-24.9,-28.8,194.3063,-6.293,2.9126,1.97,20.46477,48.843838,2.3530045,485.9529,NaN,0.0,20.748388,,8 / 25,2149,2022-01-10 17:27:02:223
-0.517747,1.080958,9.752846,-0.495311,1.038827,9.738886,0.016117,0.040071,0.068182,-0.011451,-0.01225,-0.019707,35.0,7.275,-24.9,-28.8,194.3063,-6.293,2.9126,1.97,20.46477,48.843838,2.3530045,485.9529,NaN,0.0,20.748388,,8 / 25,2154,2022-01-10 17:27:02:228
-0.517747,1.080958,9.752846,-0.495311,1.038827,9.738886,0.016117,0.040071,0.068182,-0.011451,-0.01225,-0.019707,35.0,7.275,-24.9,-28.8,194.3063,-6.293,2.9126,1.97,20.46477,48.843838,2.3530045,485.9529,NaN,0.0,20.748388,,8 / 25,2159,2022-01-10 17:27:02:233
-0.517747,1.080958,9.752846,-0.495311,1.038827,9.738886,0.016117,0.040071,0.068182,-0.011451,-0.01225,-0.019707,35.0,7.275,-24.9,-28.8,194.3063,-6.293,2.9126,1.97,20.46477,48.843838,2.3530045,485.9529,NaN,0.0,20.748388,,8 / 25,2164,2022-01-10 17:27:02:238
-0.517747,1.080958,9.752846,-0.495311,1.038827,9.738886,0.016117,0.040071,0.068182,-0.011451,-0.01225,-0.019707,35.0,7.275,-24.9,-28.8,194.3063,-6.293,2.9126,1.97,20.46477,48.843838,2.3530045,485.9529,NaN,0.0,20.748388,,8 / 25,2169,2022-01-10 17:27:02:243
-0.517747,1.080958,9.752846,-0.495311,1.038827,9.738886,0.016117,0.040071,0.068182,-0.011451,-0.01225,-0.019707,35.0,7.275,-24.9,-28.8,194.3063,-6.293,2.9126,1.97,20.46477,48.843838,2.3530045,485.9529,NaN,0.0,20.748388,,8 / 25,2174,2022-01-10 17:27:02:248
-0.565603,0.994816,9.666704,-0.495311,1.038827,9.738886,0.016117,0.040071,0.068182,-0.011451,-0.01225,-0.019707,35.0,7.65,-24.75,-28.95,196.6803,-6.0808,2.9115,1.97,20.46477,48.843838,2.3530045,485.9529,NaN,0.0,20.748388,,8 / 25,2179,2022-01-10 17:27:02:253
-0.565603,0.994816,9.666704,-0.495311,1.038827,9.738886,0.016117,0.040071,0.068182,-0.011451,-0.01225,-0.019707,35.0,7.65,-24.75,-28.95,196.6803,-6.0808,2.9115,1.97,20.46477,48.843838,2.3530045,485.9529,NaN,0.0,20.748388,,8 / 25,2184,2022-01-10 17:27:02:258
-0.565603,0.994816,9.666704,-0.495311,1.038827,9.738886,0.016117,0.040071,0.068182,-0.011451,-0.01225,-0.019707,35.0,7.65,-24.75,-28.95,196.6803,-6.0808,2.9115,1.97,20.46477,48.843838,2.3530045,485.9529,NaN,0.0,20.748388,,8 / 25,2189,2022-01-10 17:27:02:263
-0.565603,0.994816,9.666704,-0.495311,1.038827,9.738886,0.016117,0.040071,0.068182,-0.011451,-0.01225,-0.019707,35.0,7.65,-24.75,-28.95,196.6803,-6.0808,2.9115,1.97,20.46477,48.843838,2.3530045,485.9529,NaN,0.0,20.748388,,8 / 25,2195,2022-01-10 17:27:02:269
-0.565603,0.994816,9.666704,-0.495311,1.038827,9.738886,0.016117,0.040071,0.068182,-0.011451,-0.01225,-0.019707,35.0,7.65,-24.75,-28.95,196.6803,-6.0808,2.9115,1.97,20.46477,48.843838,2.3530045,485.9529,NaN,0.0,20.748388,,8 / 25,2198,2022-01-10 17:27:02:272
-0.565603,0.994816,9.666704,-0.495311,1.038827,9.738886,0.016117,0.040071,0.068182,-0.01265,0.006525,-0.01265,35.0,7.65,-24.75,-28.95,196.6803,-6.0808,2.9115,1.97,20.46477,48.843838,2.3530045,485.9529,NaN,0.0,20.748388,,8 / 25,2205,2022-01-10 17:27:02:279
-0.565603,0.994816,9.666704,-0.495311,1.038827,9.738886,0.016117,0.040071,0.068182,-0.01265,0.006525,-0.01265,35.0,7.65,-24.75,-28.95,196.6803,-6.0808,2.9115,1.97,20.46477,48.843838,2.3530045,485.9529,NaN,0.0,20.748388,,8 / 25,2210,2022-01-10 17:27:02:284
-0.565603,0.994816,9.666704,-0.495311,1.038827,9.738886,0.016117,0.040071,0.068182,-0.01265,0.006525,-0.01265,35.0,7.65,-24.75,-28.95,196.6803,-6.0808,2.9115,1.97,20.46477,48.843838,2.3530045,485.9529,NaN,0.0,20.748388,,8 / 25,2213,2022-01-10 17:27:02:287
-0.565603,0.994816,9.666704,-0.495311,1.038827,9.738886,0.016117,0.040071,0.068182,-0.01265,0.006525,-0.01265,35.0,7.65,-24.75,-28.95,196.6803,-6.0808,2.9115,1.97,20.46477,48.843838,2.3530045,485.9529,NaN,0.0,20.748388,,8 / 25,2221,2022-01-10 17:27:02:295
-0.565603,0.994816,9.666704,-0.495311,1.038827,9.738886,0.016117,0.040071,0.068182,-0.01265,0.006525,-0.01265,35.0,7.65,-24.75,-28.95,196.6803,-6.0808,2.9115,1.97,20.46477,48.843838,2.3530045,485.9529,NaN,0.0,20.748388,,8 / 25,2224,2022-01-10 17:27:02:298
-0.565603,0.994816,9.666704,-0.495311,1.038827,9.738886,0.016117,0.040071,0.068182,-0.01265,0.006525,-0.01265,35.0,7.65,-24.75,-28.95,196.6803,-6.0808,2.9115,1.97,20.46477,48.843838,2.3530045,485.9529,NaN,0.0,20.748388,,8 / 25,2229,2022-01-10 17:27:02:303
-0.565603,0.994816,9.666704,-0.495311,1.038827,9.738886,0.016117,0.040071,0.068182,-0.01265,0.006525,-0.01265,35.0,7.65,-24.75,-28.95,196.6803,-6.0808,2.9115,1.97,20.46477,48.843838,2.3530045,485.9529,NaN,0.0,20.748388,,8 / 25,2233,2022-01-10 17:27:02:307
-0.565603,0.994816,9.666704,-0.495311,1.038827,9.738886,0.016117,0.040071,0.068182,-0.01265,0.006525,-0.01265,35.0,7.65,-24.75,-28.95,196.6803,-6.0808,2.9115,1.97,20.46477,48.843838,2.3530045,485.9529,NaN,0.0,20.748388,,8 / 25,2239,2022-01-10 17:27:02:313
-0.565603,0.994816,9.666704,-0.495311,1.038827,9.738886,0.016117,0.040071,0.068182,-0.01265,0.006525,-0.01265,35.0,7.65,-24.75,-28.95,196.6803,-6.0808,2.9115,1.97,20.46477,48.843838,2.3530045,485.9529,NaN,0.0,20.748388,,8 / 25,2244,2022-01-10 17:27:02:318
-0.565603,0.994816,9.666704,-0.495311,1.038827,9.738886,0.016117,0.040071,0.068182,-0.01265,0.006525,-0.01265,35.0,7.65,-24.75,-28.95,196.6803,-6.0808,2.9115,1.97,20.46477,48.843838,2.3530045,485.9529,NaN,0.0,20.748388,,8 / 25,2248,2022-01-10 17:27:02:322
-0.565603,0.994816,9.666704,-0.495311,1.038827,9.738886,0.016117,0.040071,0.068182,-0.01265,0.006525,-0.01265,35.0,7.65,-24.75,-28.95,196.6803,-6.0808,2.9115,1.97,20.46477,48.843838,2.3530045,485.9529,NaN,0.0,20.748388,,8 / 25,2254,2022-01-10 17:27:02:328
-0.565603,0.994816,9.666704,-0.495311,1.038827,9.738886,0.016117,0.040071,0.068182,-0.01265,0.006525,-0.01265,35.0,7.65,-24.75,-28.95,196.6803,-6.0808,2.9115,1.97,20.46477,48.843838,2.3530045,485.9529,NaN,0.0,20.748388,,8 / 25,2258,2022-01-10 17:27:02:332
-0.565603,0.994816,9.666704,-0.506288,1.023276,9.739967,-0.046983,-0.002145,-0.043873,-0.01265,0.006525,-0.01265,35.0,7.65,-24.75,-28.95,196.6803,-6.0808,2.9115,1.97,20.46477,48.843838,2.3530045,485.9529,NaN,0.0,20.748388,,8 / 25,2264,2022-01-10 17:27:02:338
-0.565603,0.994816,9.666704,-0.506288,1.023276,9.739967,-0.046983,-0.002145,-0.043873,-0.01265,0.006525,-0.01265,35.0,7.65,-24.75,-28.95,196.6803,-6.0808,2.9115,1.97,20.46477,48.843838,2.3530045,485.9529,NaN,0.0,20.748388,,8 / 25,2269,2022-01-10 17:27:02:343
-0.565603,0.994816,9.666704,-0.506288,1.023276,9.739967,-0.046983,-0.002145,-0.043873,-0.01265,0.006525,-0.01265,35.0,7.65,-24.75,-28.95,196.6803,-6.0808,2.9115,1.97,20.46477,48.843838,2.3530045,485.9529,NaN,0.0,20.748388,,8 / 25,2275,2022-01-10 17:27:02:349
-0.565603,0.994816,9.666704,-0.506288,1.023276,9.739967,-0.046983,-0.002145,-0.043873,-0.01265,0.006525,-0.01265,35.0,7.65,-24.75,-28.95,196.6803,-6.0808,2.9115,1.97,20.46477,48.843838,2.3530045,485.9529,NaN,0.0,20.748388,,8 / 25,2280,2022-01-10 17:27:02:354
-0.425623,0.996012,9.528818,-0.506288,1.023276,9.739967,-0.046983,-0.002145,-0.043873,-0.01265,0.006525,-0.01265,35.0,7.65,-24.75,-28.95,196.6803,-6.0808,2.9115,1.97,20.46477,48.843838,2.3530045,485.9529,NaN,0.0,20.748388,,8 / 25,2283,2022-01-10 17:27:02:357
-0.425623,0.996012,9.528818,-0.506288,1.023276,9.739967,-0.046983,-0.002145,-0.043873,-0.01265,0.006525,-0.01265,35.0,7.65,-24.75,-28.95,196.6803,-6.0808,2.9115,1.97,20.46477,48.843838,2.3530045,485.9529,NaN,0.0,20.748388,,8 / 25,2289,2022-01-10 17:27:02:363
-0.425623,0.996012,9.528818,-0.506288,1.023276,9.739967,-0.046983,-0.002145,-0.043873,-0.01265,0.006525,-0.01265,35.0,7.65,-24.75,-28.95,196.6803,-6.0808,2.9115,1.97,20.46477,48.843838,2.3530045,485.9529,NaN,0.0,20.748388,,8 / 25,2296,2022-01-10 17:27:02:370
-0.425623,0.996012,9.528818,-0.506288,1.023276,9.739967,-0.046983,-0.002145,-0.043873,-0.01265,0.006525,-0.01265,35.0,7.65,-24.75,-28.95,196.6803,-6.0808,2.9115,1.97,20.46477,48.84385,2.352985,480.3461,NaN,0.0,20.748388,,5 / 25,2303,2022-01-10 17:27:02:377
-0.425623,0.996012,9.528818,-0.506288,1.023276,9.739967,-0.046983,-0.002145,-0.043873,-0.01265,0.006525,-0.01265,35.0,7.65,-24.75,-28.95,196.6803,-6.0808,2.9115,1.97,20.46477,48.84385,2.352985,480.3461,NaN,0.0,20.748388,,5 / 25,2313,2022-01-10 17:27:02:387
-0.425623,0.996012,9.528818,-0.506288,1.023276,9.739967,-0.046983,-0.002145,-0.043873,-0.01265,0.006525,-0.01265,35.0,7.65,-24.75,-28.95,196.6803,-6.0808,2.9115,1.97,20.46477,48.84385,2.352985,480.3461,NaN,0.0,20.748388,,5 / 25,2313,2022-01-10 17:27:02:387
-0.425623,0.996012,9.528818,-0.506288,1.023276,9.739967,-0.046983,-0.002145,-0.043873,-0.01265,0.006525,-0.01265,35.0,7.65,-24.75,-28.95,196.6803,-6.0808,2.9115,1.97,20.46477,48.84385,2.352985,480.3461,NaN,0.0,20.748388,,5 / 25,2313,2022-01-10 17:27:02:387
-0.425623,0.996012,9.528818,-0.506288,1.023276,9.739967,-0.046983,-0.002145,-0.043873,-0.01265,0.006525,-0.01265,35.0,7.65,-24.75,-28.95,196.6803,-6.0808,2.9115,1.97,20.46477,48.84385,2.352985,480.3461,NaN,0.0,20.748388,,5 / 25,2318,2022-01-10 17:27:02:392
