ACCELEROMETER X (m/s²),ACCELEROMETER Y (m/s²),ACCELEROMETER Z (m/s²),GRAVITY X (m/s²),GRAVITY Y (m/s²),GRAVITY Z (m/s²),LINEAR ACCELERATION X (m/s²),LINEAR ACCELERATION Y (m/s²),LINEAR ACCELERATION Z (m/s²),GYROSCOPE X (rad/s),GYROSCOPE Y (rad/s),GYROSCOPE Z (rad/s),LIGHT (lux),MAGNETIC FIELD X (μT),MAGNETIC FIELD Y (μT),MAGNETIC FIELD Z (μT),ORIENTATION Z (azimuth °),ORIENTATION X (pitch °),ORIENTATION Y (roll °),PROXIMITY (i),SOUND LEVEL (dB),LOCATION Latitude : ,LOCATION Longitude : ,LOCATION Altitude ( m),LOCATION Altitude-google ( m),LOCATION Speed ( Kmh),LOCATION Accuracy ( m),LOCATION ORIENTATION (°),Satellites in range,Time since start in ms ,YYYY-MO-DD HH-MI-SS_SSS
-0.637687,2.069193,9.791131,-0.730538,1.875646,9.597846,-0.058631,0.234738,-0.042568,0.069773,-0.107455,-0.016245,67.0,11.625,-2.925,-29.925,288.6884,-11.2989,5.1897,5.0,31.81033,48.84391,2.3533595,307.0968,NaN,,37.019352,,0 / 18,13,2022-01-10 16:59:01:140
-0.637687,2.069193,9.791131,-0.730538,1.875646,9.597846,-0.058631,0.234738,-0.042568,0.069773,-0.107455,-0.016245,67.0,11.625,-2.925,-29.925,288.6884,-11.2989,5.1897,5.0,31.81033,48.84391,2.3533595,307.0968,NaN,,37.019352,,0 / 18,18,2022-01-10 16:59:01:145
-0.637687,2.069193,9.791131,-0.730538,1.875646,9.597846,-0.058631,0.234738,-0.042568,0.069773,-0.107455,-0.016245,67.0,11.625,-2.925,-29.925,288.6884,-11.2989,5.1897,5.0,31.81033,48.84391,2.3533595,307.0968,NaN,,37.019352,,0 / 18,22,2022-01-10 16:59:01:149
-0.637687,2.069193,9.791131,-0.730538,1.875646,9.597846,-0.058631,0.234738,-0.042568,0.069773,-0.107455,-0.016245,67.0,11.625,-2.925,-29.925,288.6884,-11.2989,5.1897,5.0,31.81033,48.84391,2.3533595,307.0968,NaN,,37.019352,,0 / 18,28,2022-01-10 16:59:01:155
-0.637687,2.069193,9.791131,-0.730538,1.875646,9.597846,-0.058631,0.234738,-0.042568,0.069773,-0.107455,-0.016245,67.0,11.625,-2.925,-29.925,288.6884,-11.2989,5.1897,5.0,31.81033,48.84391,2.3533595,307.0968,NaN,,37.019352,,0 / 18,33,2022-01-10 16:59:01:160
-0.637687,2.069193,9.791131,-0.730538,1.875646,9.597846,-0.058631,0.234738,-0.042568,0.069773,-0.107455,-0.016245,67.0,11.625,-2.925,-29.925,288.6884,-11.2989,5.1897,5.0,31.81033,48.84391,2.3533595,307.0968,NaN,,37.019352,,0 / 18,38,2022-01-10 16:59:01:165
-0.298505,1.986641,9.404391,-0.575262,1.915764,9.600485,0.237727,-0.019337,0.063218,0.069773,-0.107455,-0.016245,67.0,11.025,-2.1,-30.15,294.265,-11.0265,4.3527,5.0,31.81033,48.84391,2.3533595,307.0968,NaN,,37.019352,,0 / 18,43,2022-01-10 16:59:01:170
-0.298505,1.986641,9.404391,-0.575262,1.915764,9.600485,0.237727,-0.019337,0.063218,0.069773,-0.107455,-0.016245,67.0,11.025,-2.1,-30.15,294.265,-11.0265,4.3527,5.0,31.81033,48.84391,2.3533595,307.0968,NaN,,37.019352,,0 / 18,48,2022-01-10 16:59:01:175
-0.298505,1.986641,9.404391,-0.575262,1.915764,9.600485,0.237727,-0.019337,0.063218,0.069773,-0.107455,-0.016245,67.0,11.025,-2.1,-30.15,294.265,-11.0265,4.3527,5.0,31.81033,48.84391,2.3533595,307.0968,NaN,,37.019352,,0 / 18,53,2022-01-10 16:59:01:180
-0.298505,1.986641,9.404391,-0.575262,1.915764,9.600485,0.237727,-0.019337,0.063218,0.069773,-0.107455,-0.016245,67.0,11.025,-2.1,-30.15,294.265,-11.0265,4.3527,5.0,31.81033,48.84391,2.3533595,307.0968,NaN,,37.019352,,0 / 18,59,2022-01-10 16:59:01:186
-0.298505,1.986641,9.404391,-0.575262,1.915764,9.600485,0.237727,-0.019337,0.063218,0.069773,-0.107455,-0.016245,67.0,11.025,-2.1,-30.15,294.265,-11.0265,4.3527,5.0,31.81033,48.84391,2.3533595,307.0968,NaN,,37.019352,,0 / 18,63,2022-01-10 16:59:01:190
-0.298505,1.986641,9.404391,-0.575262,1.915764,9.600485,0.237727,-0.019337,0.063218,0.069773,-0.107455,-0.016245,67.0,11.025,-2.1,-30.15,294.265,-11.0265,4.3527,5.0,31.81033,48.84391,2.3533595,307.0968,NaN,,37.019352,,0 / 18,68,2022-01-10 16:59:01:195
-0.298505,1.986641,9.404391,-0.575262,1.915764,9.600485,0.237727,-0.019337,0.063218,0.069773,-0.107455,-0.016245,67.0,11.025,-2.1,-30.15,294.265,-11.0265,4.3527,5.0,31.81033,48.84391,2.3533595,307.0968,NaN,,37.019352,,0 / 18,72,2022-01-10 16:59:01:199
-0.298505,1.986641,9.404391,-0.575262,1.915764,9.600485,0.237727,-0.019337,0.063218,0.069773,-0.107455,-0.016245,67.0,11.025,-2.1,-30.15,294.265,-11.0265,4.3527,5.0,31.81033,48.84391,2.3533595,307.0968,NaN,,37.019352,,0 / 18,78,2022-01-10 16:59:01:205
-0.298505,1.986641,9.404391,-0.575262,1.915764,9.600485,0.237727,-0.019337,0.063218,0.069773,-0.107455,-0.016245,67.0,11.025,-2.1,-30.15,294.265,-11.0265,4.3527,5.0,31.81033,48.84391,2.3533595,307.0968,NaN,,37.019352,,0 / 18,83,2022-01-10 16:59:01:210
-0.298505,1.986641,9.404391,-0.575262,1.915764,9.600485,0.237727,-0.019337,0.063218,0.069773,-0.107455,-0.016245,67.0,11.025,-2.1,-30.15,294.265,-11.0265,4.3527,5.0,31.81033,48.84391,2.3533595,307.0968,NaN,,37.019352,,0 / 18,88,2022-01-10 16:59:01:215
-0.298505,1.986641,9.404391,-0.575262,1.915764,9.600485,0.237727,-0.019337,0.063218,0.069773,-0.107455,-0.016245,67.0,11.025,-2.1,-30.15,294.265,-11.0265,4.3527,5.0,31.81033,48.84391,2.3533595,307.0968,NaN,,37.019352,,0 / 18,94,2022-01-10 16:59:01:221
-0.298505,1.986641,9.404391,-0.575262,1.915764,9.600485,0.237727,-0.019337,0.063218,0.069773,-0.107455,-0.016245,67.0,11.025,-2.1,-30.15,294.265,-11.0265,4.3527,5.0,31.81033,48.84391,2.3533595,307.0968,NaN,,37.019352,,0 / 18,98,2022-01-10 16:59:01:225
-0.298505,1.986641,9.404391,-0.575262,1.915764,9.600485,0.237727,-0.019337,0.063218,0.069773,-0.107455,-0.016245,67.0,11.025,-2.1,-30.15,294.265,-11.0265,4.3527,5.0,31.81033,48.84391,2.3533595,307.0968,NaN,,37.019352,,0 / 18,104,2022-01-10 16:59:01:231
-0.298505,1.986641,9.404391,-0.575262,1.915764,9.600485,0.237727,-0.019337,0.063218,0.069773,-0.107455,-0.016245,67.0,11.025,-2.1,-30.15,294.265,-11.0265,4.3527,5.0,31.81033,48.84391,2.3533595,307.0968,NaN,,37.019352,,0 / 18,109,2022-01-10 16:59:01:236
-0.298505,1.986641,9.404391,-0.575262,1.915764,9.600485,0.237727,-0.019337,0.063218,0.069773,-0.107455,-0.016245,67.0,11.025,-2.1,-30.15,294.265,-11.0265,4.3527,5.0,31.81033,48.84391,2.3533595,307.0968,NaN,,37.019352,,0 / 18,113,2022-01-10 16:59:01:240
-0.298505,1.986641,9.404391,-0.575262,1.915764,9.600485,0.237727,-0.019337,0.063218,0.069773,-0.107455,-0.016245,67.0,11.025,-2.1,-30.15,294.265,-11.0265,4.3527,5.0,31.81033,48.84391,2.3533595,307.0968,NaN,,37.019352,,0 / 18,119,2022-01-10 16:59:01:246
-0.298505,1.986641,9.404391,-0.575262,1.915764,9.600485,0.237727,-0.019337,0.063218,0.069773,-0.107455,-0.016245,67.0,11.025,-2.1,-30.15,294.265,-11.0265,4.3527,5.0,31.81033,48.84391,2.3533595,307.0968,NaN,,37.019352,,0 / 18,124,2022-01-10 16:59:01:251
-0.298505,1.986641,9.404391,-0.575262,1.915764,9.600485,0.237727,-0.019337,0.063218,0.069773,-0.107455,-0.016245,67.0,11.025,-2.1,-30.15,294.265,-11.0265,4.3527,5.0,31.81033,48.84391,2.3533595,307.0968,NaN,,37.019352,,0 / 18,128,2022-01-10 16:59:01:255
-0.051745,2.011766,8.980264,-0.575262,1.915764,9.600485,0.237727,-0.019337,0.063218,-0.034886,-0.20053,-0.197068,67.0,11.025,-2.1,-30.15,294.265,-11.0265,4.3527,5.0,31.81033,48.84391,2.3533595,307.0968,NaN,,37.019352,,0 / 18,134,2022-01-10 16:59:01:261
-0.051745,2.011766,8.980264,-0.575262,1.915764,9.600485,0.237727,-0.019337,0.063218,-0.034886,-0.20053,-0.197068,67.0,11.025,-2.1,-30.15,294.265,-11.0265,4.3527,5.0,31.81033,48.84391,2.3533595,307.0968,NaN,,37.019352,,0 / 18,138,2022-01-10 16:59:01:265
-0.051745,2.011766,8.980264,-0.575262,1.915764,9.600485,0.237727,-0.019337,0.063218,-0.034886,-0.20053,-0.197068,67.0,11.025,-2.1,-30.15,294.265,-11.0265,4.3527,5.0,31.81033,48.84391,2.3533595,307.0968,NaN,,37.019352,,0 / 18,143,2022-01-10 16:59:01:270
-0.051745,2.011766,8.980264,-0.575262,1.915764,9.600485,0.237727,-0.019337,0.063218,-0.034886,-0.20053,-0.197068,67.0,11.025,-2.1,-30.15,294.265,-11.0265,4.3527,5.0,31.81033,48.84391,2.3533595,307.0968,NaN,,37.019352,,0 / 18,148,2022-01-10 16:59:01:275
-0.051745,2.011766,8.980264,-0.575262,1.915764,9.600485,0.237727,-0.019337,0.063218,-0.034886,-0.20053,-0.197068,67.0,11.025,-2.1,-30.15,294.265,-11.0265,4.3527,5.0,31.81033,48.84391,2.3533595,307.0968,NaN,,37.019352,,0 / 18,154,2022-01-10 16:59:01:281
-0.051745,2.011766,8.980264,-0.575262,1.915764,9.600485,0.237727,-0.019337,0.063218,-0.034886,-0.20053,-0.197068,67.0,11.025,-2.1,-30.15,294.265,-11.0265,4.3527,5.0,31.81033,48.84391,2.3533595,307.0968,NaN,,37.019352,,0 / 18,158,2022-01-10 16:59:01:285
-0.051745,2.011766,8.980264,-0.348431,1.90496,9.613539,0.314918,0.036006,-0.064775,-0.034886,-0.20053,-0.197068,67.0,11.025,-2.1,-30.15,294.265,-11.0265,4.3527,5.0,31.81033,48.84391,2.3533595,307.0968,NaN,,37.019352,,0 / 18,163,2022-01-10 16:59:01:290
-0.051745,2.011766,8.980264,-0.348431,1.90496,9.613539,0.314918,0.036006,-0.064775,-0.034886,-0.20053,-0.197068,67.0,11.025,-2.1,-30.15,294.265,-11.0265,4.3527,5.0,31.81033,48.84391,2.3533595,307.0968,NaN,,37.019352,,0 / 18,169,2022-01-10 16:59:01:296
-0.051745,2.011766,8.980264,-0.348431,1.90496,9.613539,0.314918,0.036006,-0.064775,-0.034886,-0.20053,-0.197068,67.0,11.025,-2.1,-30.15,294.265,-11.0265,4.3527,5.0,31.81033,48.84391,2.3533595,307.0968,NaN,,37.019352,,0 / 18,174,2022-01-10 16:59:01:301
-0.051745,2.011766,8.980264,-0.348431,1.90496,9.613539,0.314918,0.036006,-0.064775,-0.034886,-0.20053,-0.197068,67.0,11.025,-2.1,-30.15,294.265,-11.0265,4.3527,5.0,31.81033,48.84391,2.3533595,307.0968,NaN,,37.019352,,0 / 18,178,2022-01-10 16:59:01:305
-0.051745,2.011766,8.980264,-0.348431,1.90496,9.613539,0.314918,0.036006,-0.064775,-0.034886,-0.20053,-0.197068,67.0,11.025,-2.1,-30.15,294.265,-11.0265,4.3527,5.0,31.81033,48.84391,2.3533595,307.0968,NaN,,37.019352,,0 / 18,183,2022-01-10 16:59:01:310
-0.051745,2.011766,8.980264,-0.348431,1.90496,9.613539,0.314918,0.036006,-0.064775,-0.034886,-0.20053,-0.197068,67.0,11.025,-2.1,-30.15,294.265,-11.0265,4.3527,5.0,31.81033,48.84391,2.3533595,307.0968,NaN,,37.019352,,0 / 18,189,2022-01-10 16:59:01:316
-0.051745,2.011766,8.980264,-0.348431,1.90496,9.613539,0.314918,0.036006,-0.064775,-0.034886,-0.20053,-0.197068,67.0,11.025,-2.1,-30.15,294.265,-11.0265,4.3527,5.0,31.81033,48.84391,2.3533595,307.0968,NaN,,37.019352,,0 / 18,194,2022-01-10 16:59:01:321
-0.051745,2.011766,8.980264,-0.348431,1.90496,9.613539,0.314918,0.036006,-0.064775,-0.034886,-0.20053,-0.197068,67.0,11.025,-2.1,-30.15,294.265,-11.0265,4.3527,5.0,31.81033,48.84391,2.3533595,307.0968,NaN,,37.019352,,0 / 18,198,2022-01-10 16:59:01:325
-0.051745,2.011766,8.980264,-0.348431,1.90496,9.613539,0.314918,0.036006,-0.064775,-0.034886,-0.20053,-0.197068,67.0,11.025,-2.1,-30.15,294.265,-11.0265,4.3527,5.0,31.81033,48.84391,2.3533595,307.0968,NaN,,37.019352,,0 / 18,204,2022-01-10 16:59:01:331
-0.051745,2.011766,8.980264,-0.348431,1.90496,9.613539,0.314918,0.036006,-0.064775,-0.034886,-0.20053,-0.197068,67.0,11.025,-2.1,-30.15,294.265,-11.0265,4.3527,5.0,31.81033,48.84391,2.3533595,307.0968,NaN,,37.019352,,0 / 18,209,2022-01-10 16:59:01:336
-0.051745,2.011766,8.980264,-0.348431,1.90496,9.613539,0.314918,0.036006,-0.064775,-0.034886,-0.20053,-0.197068,67.0,11.025,-2.1,-30.15,294.265,-11.0265,4.3527,5.0,31.81033,48.84391,2.3533595,307.0968,NaN,,37.019352,,0 / 18,213,2022-01-10 16:59:01:340
-0.051745,2.011766,8.980264,-0.348431,1.90496,9.613539,0.314918,0.036006,-0.064775,-0.034886,-0.20053,-0.197068,67.0,11.025,-2.1,-30.15,294.265,-11.0265,4.3527,5.0,31.81033,48.84391,2.3533595,307.0968,NaN,,37.019352,,0 / 18,218,2022-01-10 16:59:01:345
-0.051745,2.011766,8.980264,-0.348431,1.90496,9.613539,0.314918,0.036006,-0.064775,-0.034886,-0.20053,-0.197068,67.0,11.025,-2.1,-30.15,294.265,-11.0265,4.3527,5.0,31.81033,48.84391,2.3533595,307.0968,NaN,,37.019352,,0 / 18,223,2022-01-10 16:59:01:350
-0.051745,2.011766,8.980264,-0.348431,1.90496,9.613539,0.314918,0.036006,-0.064775,-0.034886,-0.20053,-0.197068,67.0,11.025,-2.1,-30.15,294.265,-11.0265,4.3527,5.0,31.81033,48.84391,2.3533595,307.0968,NaN,,37.019352,,0 / 18,228,2022-01-10 16:59:01:355
-0.315254,1.907379,9.999606,-0.348431,1.90496,9.613539,0.314918,0.036006,-0.064775,-0.034886,-0.20053,-0.197068,67.0,11.025,-2.1,-30.15,294.265,-11.0265,4.3527,5.0,31.81033,48.84391,2.3533595,307.0968,NaN,,37.019352,,0 / 18,233,2022-01-10 16:59:01:360
-0.315254,1.907379,9.999606,-0.348431,1.90496,9.613539,0.314918,0.036006,-0.064775,-0.034886,-0.20053,-0.197068,67.0,11.025,-2.1,-30.15,294.265,-11.0265,4.3527,5.0,31.81033,48.84391,2.3533595,307.0968,NaN,,37.019352,,0 / 18,238,2022-01-10 16:59:01:365
-0.315254,1.907379,9.999606,-0.348431,1.90496,9.613539,0.314918,0.036006,-0.064775,-0.034886,-0.20053,-0.197068,67.0,9.9,-1.425,-30.6,299.9312,-11.201,2.0757,5.0,31.81033,48.84391,2.3533595,307.0968,NaN,,37.019352,,0 / 18,250,2022-01-10 16:59:01:377
-0.315254,1.907379,9.999606,-0.348431,1.90496,9.613539,0.314918,0.036006,-0.064775,-0.034886,-0.20053,-0.197068,67.0,9.9,-1.425,-30.6,299.9312,-11.201,2.0757,5.0,31.81033,48.84391,2.3533595,307.0968,NaN,,37.019352,,0 / 18,251,2022-01-10 16:59:01:378
-0.315254,1.907379,9.999606,-0.348431,1.90496,9.613539,0.314918,0.036006,-0.064775,-0.034886,-0.20053,-0.197068,67.0,9.9,-1.425,-30.6,299.9312,-11.201,2.0757,5.0,31.81033,48.84391,2.3533595,307.0968,NaN,,37.019352,,0 / 18,254,2022-01-10 16:59:01:381
-0.315254,1.907379,9.999606,-0.348431,1.90496,9.613539,0.314918,0.036006,-0.064775,-0.034886,-0.20053,-0.197068,67.0,9.9,-1.425,-30.6,299.9312,-11.201,2.0757,5.0,31.81033,48.84391,2.3533595,307.0968,NaN,,37.019352,,0 / 18,258,2022-01-10 16:59:01:385
-0.315254,1.907379,9.999606,-0.348431,1.90496,9.613539,0.314918,0.036006,-0.064775,-0.034886,-0.20053,-0.197068,67.0,9.9,-1.425,-30.6,299.9312,-11.201,2.0757,5.0,31.81033,48.84391,2.3533595,307.0968,NaN,,37.019352,,0 / 18,263,2022-01-10 16:59:01:390
-0.315254,1.907379,9.999606,-0.348431,1.90496,9.613539,0.314918,0.036006,-0.064775,-0.034886,-0.20053,-0.197068,67.0,9.9,-1.425,-30.6,299.9312,-11.201,2.0757,5.0,31.81033,48.84391,2.3533595,307.0968,NaN,,37.019352,,0 / 18,268,2022-01-10 16:59:01:395
-0.315254,1.907379,9.999606,-0.348431,1.90496,9.613539,0.314918,0.036006,-0.064775,0.032356,-0.306121,-0.408117,67.0,9.9,-1.425,-30.6,299.9312,-11.201,2.0757,5.0,27.84259,48.84391,2.3533595,307.0968,NaN,,37.019352,,0 / 18,273,2022-01-10 16:59:01:400
-0.315254,1.907379,9.999606,-0.348431,1.90496,9.613539,0.314918,0.036006,-0.064775,0.032356,-0.306121,-0.408117,67.0,9.9,-1.425,-30.6,299.9312,-11.201,2.0757,5.0,27.84259,48.84391,2.3533595,307.0968,NaN,,37.019352,,0 / 18,278,2022-01-10 16:59:01:405
-0.315254,1.907379,9.999606,-0.348431,1.90496,9.613539,0.314918,0.036006,-0.064775,0.032356,-0.306121,-0.408117,67.0,9.9,-1.425,-30.6,299.9312,-11.201,2.0757,5.0,27.84259,48.84391,2.3533595,307.0968,NaN,,37.019352,,0 / 18,283,2022-01-10 16:59:01:410
-0.315254,1.907379,9.999606,-0.141704,1.786859,9.641444,0.042436,0.060415,0.730825,0.032356,-0.306121,-0.408117,67.0,9.9,-1.425,-30.6,299.9312,-11.201,2.0757,5.0,27.84259,48.84391,2.3533595,307.0968,NaN,,37.019352,,0 / 18,288,2022-01-10 16:59:01:415
-0.315254,1.907379,9.999606,-0.141704,1.786859,9.641444,0.042436,0.060415,0.730825,0.032356,-0.306121,-0.408117,67.0,9.9,-1.425,-30.6,299.9312,-11.201,2.0757,5.0,27.84259,48.84391,2.3533595,307.0968,NaN,,37.019352,,0 / 18,293,2022-01-10 16:59:01:420
-0.315254,1.907379,9.999606,-0.141704,1.786859,9.641444,0.042436,0.060415,0.730825,0.032356,-0.306121,-0.408117,67.0,9.9,-1.425,-30.6,299.9312,-11.201,2.0757,5.0,27.84259,48.84391,2.3533595,307.0968,NaN,,37.019352,,0 / 18,298,2022-01-10 16:59:01:425
-0.315254,1.907379,9.999606,-0.141704,1.786859,9.641444,0.042436,0.060415,0.730825,0.032356,-0.306121,-0.408117,67.0,9.9,-1.425,-30.6,299.9312,-11.201,2.0757,5.0,27.84259,48.84391,2.3533595,307.0968,NaN,,37.019352,,0 / 18,303,2022-01-10 16:59:01:430
-0.315254,1.907379,9.999606,-0.141704,1.786859,9.641444,0.042436,0.060415,0.730825,0.032356,-0.306121,-0.408117,67.0,9.9,-1.425,-30.6,299.9312,-11.201,2.0757,5.0,27.84259,48.84391,2.3533595,307.0968,NaN,,37.019352,,0 / 18,308,2022-01-10 16:59:01:435
-0.315254,1.907379,9.999606,-0.141704,1.786859,9.641444,0.042436,0.060415,0.730825,0.032356,-0.306121,-0.408117,67.0,9.9,-1.425,-30.6,299.9312,-11.201,2.0757,5.0,27.84259,48.84391,2.3533595,307.0968,NaN,,37.019352,,0 / 18,313,2022-01-10 16:59:01:440
-0.315254,1.907379,9.999606,-0.141704,1.786859,9.641444,0.042436,0.060415,0.730825,0.032356,-0.306121,-0.408117,67.0,9.9,-1.425,-30.6,299.9312,-11.201,2.0757,5.0,27.84259,48.84391,2.3533595,307.0968,NaN,,37.019352,,0 / 18,318,2022-01-10 16:59:01:445
-0.282951,2.204388,8.731111,-0.141704,1.786859,9.641444,0.042436,0.060415,0.730825,0.032356,-0.306121,-0.408117,67.0,9.9,-1.425,-30.6,299.9312,-11.201,2.0757,5.0,27.84259,48.84391,2.3533595,307.0968,NaN,,37.019352,,0 / 18,323,2022-01-10 16:59:01:450
-0.282951,2.204388,8.731111,-0.141704,1.786859,9.641444,0.042436,0.060415,0.730825,0.032356,-0.306121,-0.408117,67.0,9.9,-1.425,-30.6,299.9312,-11.201,2.0757,5.0,27.84259,48.84391,2.3533595,307.0968,NaN,,37.019352,,0 / 18,328,2022-01-10 16:59:01:455
-0.282951,2.204388,8.731111,-0.141704,1.786859,9.641444,0.042436,0.060415,0.730825,0.032356,-0.306121,-0.408117,67.0,9.9,-1.425,-30.6,299.9312,-11.201,2.0757,5.0,27.84259,48.84391,2.3533595,307.0968,NaN,,37.019352,,0 / 18,333,2022-01-10 16:59:01:460
-0.282951,2.204388,8.731111,-0.141704,1.786859,9.641444,0.042436,0.060415,0.730825,0.032356,-0.306121,-0.408117,67.0,9.9,-1.425,-30.6,299.9312,-11.201,2.0757,5.0,27.84259,48.84391,2.3533595,307.0968,NaN,,37.019352,,0 / 18,337,2022-01-10 16:59:01:464
-0.282951,2.204388,8.731111,-0.141704,1.786859,9.641444,0.042436,0.060415,0.730825,0.032356,-0.306121,-0.408117,67.0,9.9,-1.425,-30.6,299.9312,-11.201,2.0757,5.0,27.84259,48.84391,2.3533595,307.0968,NaN,,37.019352,,0 / 18,343,2022-01-10 16:59:01:470
-0.282951,2.204388,8.731111,-0.141704,1.786859,9.641444,0.042436,0.060415,0.730825,0.032356,-0.306121,-0.408117,67.0,9.9,-1.425,-30.6,299.9312,-11.201,2.0757,5.0,27.84259,48.84391,2.3533595,307.0968,NaN,,37.019352,,0 / 18,348,2022-01-10 16:59:01:475
-0.282951,2.204388,8.731111,-0.141704,1.786859,9.641444,0.042436,0.060415,0.730825,0.032356,-0.306121,-0.408117,67.0,9.9,-1.425,-30.6,299.9312,-11.201,2.0757,5.0,27.84259,48.84391,2.3533595,307.0968,NaN,,37.019352,,0 / 18,354,2022-01-10 16:59:01:481
-0.282951,2.204388,8.731111,-0.141704,1.786859,9.641444,0.042436,0.060415,0.730825,0.032356,-0.306121,-0.408117,67.0,9.9,-1.425,-30.6,299.9312,-11.201,2.0757,5.0,27.84259,48.84391,2.3533595,307.0968,NaN,,37.019352,,0 / 18,358,2022-01-10 16:59:01:485
-0.282951,2.204388,8.731111,-0.141704,1.786859,9.641444,0.042436,0.060415,0.730825,0.032356,-0.306121,-0.408117,67.0,9.9,-1.425,-30.6,299.9312,-11.201,2.0757,5.0,27.84259,48.84391,2.3533595,307.0968,NaN,,37.019352,,0 / 18,363,2022-01-10 16:59:01:490
-0.282951,2.204388,8.731111,-0.141704,1.786859,9.641444,0.042436,0.060415,0.730825,0.032356,-0.306121,-0.408117,67.0,9.9,-1.425,-30.6,299.9312,-11.201,2.0757,5.0,27.84259,48.84391,2.3533595,307.0968,NaN,,37.019352,,0 / 18,368,2022-01-10 16:59:01:495
-0.282951,2.204388,8.731111,-0.141704,1.786859,9.641444,0.042436,0.060415,0.730825,0.032356,-0.306121,-0.408117,67.0,9.9,-1.425,-30.6,299.9312,-11.201,2.0757,5.0,27.84259,48.84391,2.3533595,307.0968,NaN,,37.019352,,0 / 18,373,2022-01-10 16:59:01:500
-0.282951,2.204388,8.731111,-0.141704,1.786859,9.641444,0.042436,0.060415,0.730825,0.032356,-0.306121,-0.408117,67.0,9.9,-1.425,-30.6,299.9312,-11.201,2.0757,5.0,27.84259,48.84391,2.3533595,307.0968,NaN,,37.019352,,0 / 18,378,2022-01-10 16:59:01:505
-0.282951,2.204388,8.731111,-0.141704,1.786859,9.641444,0.042436,0.060415,0.730825,0.032356,-0.306121,-0.408117,67.0,9.9,-1.425,-30.6,299.9312,-11.201,2.0757,5.0,27.84259,48.84391,2.3533595,307.0968,NaN,,37.019352,,0 / 18,383,2022-01-10 16:59:01:510
-0.282951,2.204388,8.731111,-0.141704,1.786859,9.641444,0.042436,0.060415,0.730825,0.032356,-0.306121,-0.408117,67.0,9.9,-1.425,-30.6,299.9312,-11.201,2.0757,5.0,27.84259,48.84391,2.3533595,307.0968,NaN,,37.019352,,0 / 18,388,2022-01-10 16:59:01:515
-0.282951,2.204388,8.731111,-0.141704,1.786859,9.641444,0.042436,0.060415,0.730825,0.032356,-0.306121,-0.408117,67.0,9.9,-1.425,-30.6,299.9312,-11.201,2.0757,5.0,27.84259,48.84391,2.3533595,307.0968,NaN,,37.019352,,0 / 18,393,2022-01-10 16:59:01:520
-0.282951,2.204388,8.731111,-0.141704,1.786859,9.641444,0.042436,0.060415,0.730825,0.032356,-0.306121,-0.408117,67.0,9.9,-1.425,-30.6,299.9312,-11.201,2.0757,5.0,27.84259,48.84391,2.3533595,307.0968,NaN,,37.019352,,0 / 18,398,2022-01-10 16:59:01:525
-0.282951,2.204388,8.731111,0.094571,1.50278,9.690361,0.042436,0.060415,0.730825,-0.410248,-0.287746,-0.2972,67.0,9.9,-1.425,-30.6,299.9312,-11.201,2.0757,5.0,27.84259,48.84391,2.3533595,307.0968,NaN,,37.019352,,0 / 18,403,2022-01-10 16:59:01:530
-0.282951,2.204388,8.731111,0.094571,1.50278,9.690361,-0.298889,0.481915,-0.410707,-0.410248,-0.287746,-0.2972,67.0,9.9,-1.425,-30.6,299.9312,-11.201,2.0757,5.0,27.84259,48.84391,2.3533595,307.0968,NaN,,37.019352,,0 / 18,409,2022-01-10 16:59:01:536
-0.282951,2.204388,8.731111,0.094571,1.50278,9.690361,-0.298889,0.481915,-0.410707,-0.410248,-0.287746,-0.2972,67.0,9.9,-1.425,-30.6,299.9312,-11.201,2.0757,5.0,27.84259,48.84391,2.3533595,307.0968,NaN,,37.019352,,0 / 18,412,2022-01-10 16:59:01:539
-0.282951,2.204388,8.731111,0.094571,1.50278,9.690361,-0.298889,0.481915,-0.410707,-0.410248,-0.287746,-0.2972,67.0,9.9,-1.425,-30.6,299.9312,-11.201,2.0757,5.0,27.84259,48.84391,2.3533595,307.0968,NaN,,37.019352,,0 / 18,418,2022-01-10 16:59:01:545
-0.282951,2.204388,8.731111,0.094571,1.50278,9.690361,-0.298889,0.481915,-0.410707,-0.410248,-0.287746,-0.2972,67.0,9.9,-1.425,-30.6,299.9312,-11.201,2.0757,5.0,27.84259,48.84391,2.3533595,307.0968,NaN,,37.019352,,0 / 18,423,2022-01-10 16:59:01:550
-0.282951,2.204388,8.731111,0.094571,1.50278,9.690361,-0.298889,0.481915,-0.410707,-0.410248,-0.287746,-0.2972,67.0,9.9,-1.425,-30.6,299.9312,-11.201,2.0757,5.0,27.84259,48.84391,2.3533595,307.0968,NaN,,37.019352,,0 / 18,428,2022-01-10 16:59:01:555
-0.282951,2.204388,8.731111,0.094571,1.50278,9.690361,-0.298889,0.481915,-0.410707,-0.410248,-0.287746,-0.2972,67.0,9.9,-1.425,-30.6,299.9312,-11.201,2.0757,5.0,27.84259,48.84391,2.3533595,307.0968,NaN,,37.019352,,0 / 18,433,2022-01-10 16:59:01:560
-0.282951,2.204388,8.731111,0.094571,1.50278,9.690361,-0.298889,0.481915,-0.410707,-0.410248,-0.287746,-0.2972,67.0,9.9,-1.425,-30.6,299.9312,-11.201,2.0757,5.0,27.84259,48.84391,2.3533595,307.0968,NaN,,37.019352,,0 / 18,438,2022-01-10 16:59:01:565
-0.282951,2.204388,8.731111,0.094571,1.50278,9.690361,-0.298889,0.481915,-0.410707,-0.410248,-0.287746,-0.2972,67.0,9.9,-1.425,-30.6,299.9312,-11.201,2.0757,5.0,27.84259,48.84391,2.3533595,307.0968,NaN,,37.019352,,0 / 18,443,2022-01-10 16:59:01:570
-0.282951,2.204388,8.731111,0.094571,1.50278,9.690361,-0.298889,0.481915,-0.410707,-0.410248,-0.287746,-0.2972,67.0,9.9,-1.425,-30.6,299.9312,-11.201,2.0757,5.0,27.84259,48.84391,2.3533595,307.0968,NaN,,37.019352,,0 / 18,452,2022-01-10 16:59:01:579
-0.282951,2.204388,8.731111,0.094571,1.50278,9.690361,-0.298889,0.481915,-0.410707,-0.410248,-0.287746,-0.2972,67.0,9.9,-1.425,-30.6,299.9312,-11.201,2.0757,5.0,27.84259,48.84391,2.3533595,307.0968,NaN,,37.019352,,0 / 18,452,2022-01-10 16:59:01:579
-0.282951,2.204388,8.731111,0.094571,1.50278,9.690361,-0.298889,0.481915,-0.410707,-0.410248,-0.287746,-0.2972,67.0,9.9,-1.425,-30.6,299.9312,-11.201,2.0757,5.0,27.84259,48.84391,2.3533595,307.0968,NaN,,37.019352,,0 / 18,459,2022-01-10 16:59:01:586
-0.282951,2.204388,8.731111,0.094571,1.50278,9.690361,-0.298889,0.481915,-0.410707,-0.410248,-0.287746,-0.2972,67.0,9.9,-1.425,-30.6,299.9312,-11.201,2.0757,5.0,27.84259,48.84391,2.3533595,307.0968,NaN,,37.019352,,0 / 18,464,2022-01-10 16:59:01:591
-0.282951,2.204388,8.731111,0.094571,1.50278,9.690361,-0.298889,0.481915,-0.410707,-0.410248,-0.287746,-0.2972,67.0,9.9,-1.425,-30.6,299.9312,-11.201,2.0757,5.0,27.84259,48.84391,2.3533595,307.0968,NaN,,37.019352,,0 / 18,468,2022-01-10 16:59:01:595
-0.282951,2.204388,8.731111,0.094571,1.50278,9.690361,-0.298889,0.481915,-0.410707,-0.410248,-0.287746,-0.2972,67.0,9.9,-1.425,-30.6,299.9312,-11.201,2.0757,5.0,27.84259,48.84391,2.3533595,307.0968,NaN,,37.019352,,0 / 18,473,2022-01-10 16:59:01:600
-0.282951,2.204388,8.731111,0.094571,1.50278,9.690361,-0.298889,0.481915,-0.410707,-0.410248,-0.287746,-0.2972,67.0,9.9,-1.425,-30.6,299.9312,-11.201,2.0757,5.0,27.84259,48.84391,2.3533595,307.0968,NaN,,37.019352,,0 / 18,478,2022-01-10 16:59:01:605
-0.282951,2.204388,8.731111,0.094571,1.50278,9.690361,-0.298889,0.481915,-0.410707,-0.410248,-0.287746,-0.2972,67.0,9.9,-1.425,-30.6,299.9312,-11.201,2.0757,5.0,27.84259,48.84391,2.3533595,307.0968,NaN,,37.019352,,0 / 18,482,2022-01-10 16:59:01:609
-0.211167,1.603191,9.219845,0.094571,1.50278,9.690361,-0.298889,0.481915,-0.410707,-0.410248,-0.287746,-0.2972,67.0,8.7,0.15,-30.675,296.986,-8.8148,-0.5591,5.0,27.84259,48.84391,2.3533595,307.0968,NaN,,37.019352,,0 / 18,488,2022-01-10 16:59:01:615
-0.211167,1.603191,9.219845,0.094571,1.50278,9.690361,-0.298889,0.481915,-0.410707,-0.410248,-0.287746,-0.2972,67.0,8.7,0.15,-30.675,296.986,-8.8148,-0.5591,5.0,27.84259,48.84391,2.3533595,307.0968,NaN,,37.019352,,0 / 18,495,2022-01-10 16:59:01:622
-0.211167,1.603191,9.219845,0.094571,1.50278,9.690361,-0.298889,0.481915,-0.410707,-0.410248,-0.287746,-0.2972,67.0,8.7,0.15,-30.675,296.986,-8.8148,-0.5591,5.0,27.84259,48.84391,2.3533595,307.0968,NaN,,37.019352,,0 / 18,499,2022-01-10 16:59:01:626
-0.211167,1.603191,9.219845,0.094571,1.50278,9.690361,-0.298889,0.481915,-0.410707,-0.410248,-0.287746,-0.2972,67.0,8.7,0.15,-30.675,296.986,-8.8148,-0.5591,5.0,27.84259,48.84391,2.3533595,307.0968,NaN,,37.019352,,0 / 18,504,2022-01-10 16:59:01:631
-0.211167,1.603191,9.219845,0.094571,1.50278,9.690361,-0.298889,0.481915,-0.410707,-0.410248,-0.287746,-0.2972,67.0,8.7,0.15,-30.675,296.986,-8.8148,-0.5591,5.0,27.84259,48.84391,2.3533595,307.0968,NaN,,37.019352,,0 / 18,508,2022-01-10 16:59:01:635
0.6667,1.055833,10.730015,0.256393,1.035429,9.748464,-0.30063,0.750567,-0.707602,-0.67376,-0.06165,-0.258852,82.0,8.7,0.15,-30.675,296.986,-8.8148,-0.5591,5.0,27.84259,48.84391,2.3533595,307.0968,NaN,,37.019352,,0 / 18,606,2022-01-10 16:59:01:733
0.6667,1.055833,10.730015,0.256393,1.035429,9.748464,-0.30063,0.750567,-0.707602,-0.67376,-0.06165,-0.258852,82.0,8.7,0.15,-30.675,296.986,-8.8148,-0.5591,5.0,43.0419,48.84391,2.3533595,307.0968,NaN,,37.019352,,0 / 18,611,2022-01-10 16:59:01:738
0.6667,1.055833,10.730015,0.256393,1.035429,9.748464,-0.30063,0.750567,-0.707602,-0.67376,-0.06165,-0.258852,82.0,8.7,0.15,-30.675,296.986,-8.8148,-0.5591,5.0,43.0419,48.84391,2.3533595,307.0968,NaN,,37.019352,,0 / 18,612,2022-01-10 16:59:01:739
0.6667,1.055833,10.730015,0.256393,1.035429,9.748464,-0.30063,0.750567,-0.707602,-0.67376,-0.06165,-0.258852,82.0,8.7,0.15,-30.675,296.986,-8.8148,-0.5591,5.0,43.0419,48.84391,2.3533595,307.0968,NaN,,37.019352,,0 / 18,612,2022-01-10 16:59:01:739
0.6667,1.055833,10.730015,0.256393,1.035429,9.748464,-0.30063,0.750567,-0.707602,-0.67376,-0.06165,-0.258852,82.0,8.7,0.15,-30.675,296.986,-8.8148,-0.5591,5.0,43.0419,48.84391,2.3533595,307.0968,NaN,,37.019352,,0 / 18,612,2022-01-10 16:59:01:739
0.6667,1.055833,10.730015,0.256393,1.035429,9.748464,-0.30063,0.750567,-0.707602,-0.67376,-0.06165,-0.258852,82.0,8.7,0.15,-30.675,296.986,-8.8148,-0.5591,5.0,43.0419,48.84391,2.3533595,307.0968,NaN,,37.019352,,0 / 18,612,2022-01-10 16:59:01:739
0.6667,1.055833,10.730015,0.256393,1.035429,9.748464,-0.30063,0.750567,-0.707602,-0.67376,-0.06165,-0.258852,82.0,8.7,0.15,-30.675,296.986,-8.8148,-0.5591,5.0,43.0419,48.84391,2.3533595,307.0968,NaN,,37.019352,,0 / 18,612,2022-01-10 16:59:01:739
0.6667,1.055833,10.730015,0.256393,1.035429,9.748464,-0.30063,0.750567,-0.707602,-0.67376,-0.06165,-0.258852,82.0,8.7,0.15,-30.675,296.986,-8.8148,-0.5591,5.0,43.0419,48.84391,2.3533595,307.0968,NaN,,37.019352,,0 / 18,612,2022-01-10 16:59:01:739
0.6667,1.055833,10.730015,0.256393,1.035429,9.748464,-0.30063,0.750567,-0.707602,-0.67376,-0.06165,-0.258852,82.0,8.7,0.15,-30.675,296.986,-8.8148,-0.5591,5.0,43.0419,48.84391,2.3533595,307.0968,NaN,,37.019352,,0 / 18,612,2022-01-10 16:59:01:739
0.6667,1.055833,10.730015,0.256393,1.035429,9.748464,-0.30063,0.750567,-0.707602,-0.67376,-0.06165,-0.258852,82.0,8.7,0.15,-30.675,296.986,-8.8148,-0.5591,5.0,43.0419,48.84391,2.3533595,307.0968,NaN,,37.019352,,0 / 18,612,2022-01-10 16:59:01:739
0.6667,1.055833,10.730015,0.256393,1.035429,9.748464,-0.30063,0.750567,-0.707602,-0.67376,-0.06165,-0.258852,82.0,8.7,0.15,-30.675,296.986,-8.8148,-0.5591,5.0,43.0419,48.84391,2.3533595,307.0968,NaN,,37.019352,,0 / 18,612,2022-01-10 16:59:01:739
0.6667,1.055833,10.730015,0.256393,1.035429,9.748464,-0.30063,0.750567,-0.707602,-0.67376,-0.06165,-0.258852,82.0,8.7,0.15,-30.675,296.986,-8.8148,-0.5591,5.0,43.0419,48.84391,2.3533595,307.0968,NaN,,37.019352,,0 / 18,613,2022-01-10 16:59:01:740
0.6667,1.055833,10.730015,0.256393,1.035429,9.748464,-0.30063,0.750567,-0.707602,-0.67376,-0.06165,-0.258852,82.0,8.7,0.15,-30.675,296.986,-8.8148,-0.5591,5.0,43.0419,48.84391,2.3533595,307.0968,NaN,,37.019352,,0 / 18,613,2022-01-10 16:59:01:740
0.6667,1.055833,10.730015,0.256393,1.035429,9.748464,-0.30063,0.750567,-0.707602,-0.67376,-0.06165,-0.258852,82.0,8.7,0.15,-30.675,296.986,-8.8148,-0.5591,5.0,43.0419,48.84391,2.3533595,307.0968,NaN,,37.019352,,0 / 18,613,2022-01-10 16:59:01:740
0.6667,1.055833,10.730015,0.256393,1.035429,9.748464,-0.30063,0.750567,-0.707602,-0.67376,-0.06165,-0.258852,82.0,8.7,0.15,-30.675,296.986,-8.8148,-0.5591,5.0,43.0419,48.84391,2.3533595,307.0968,NaN,,37.019352,,0 / 18,613,2022-01-10 16:59:01:740
0.6667,1.055833,10.730015,0.256393,1.035429,9.748464,-0.30063,0.750567,-0.707602,-0.67376,-0.06165,-0.258852,82.0,8.7,0.15,-30.675,296.986,-8.8148,-0.5591,5.0,43.0419,48.84391,2.3533595,307.0968,NaN,,37.019352,,0 / 18,613,2022-01-10 16:59:01:740
0.6667,1.055833,10.730015,0.256393,1.035429,9.748464,-0.30063,0.750567,-0.707602,-0.67376,-0.06165,-0.258852,82.0,8.7,0.15,-30.675,296.986,-8.8148,-0.5591,5.0,43.0419,48.84391,2.3533595,307.0968,NaN,,37.019352,,0 / 18,613,2022-01-10 16:59:01:740
0.6667,1.055833,10.730015,0.256393,1.035429,9.748464,-0.30063,0.750567,-0.707602,-0.67376,-0.06165,-0.258852,82.0,8.7,0.15,-30.675,296.986,-8.8148,-0.5591,5.0,43.0419,48.84391,2.3533595,307.0968,NaN,,37.019352,,0 / 18,614,2022-01-10 16:59:01:741
0.6667,1.055833,10.730015,0.256393,1.035429,9.748464,-0.30063,0.750567,-0.707602,-0.67376,-0.06165,-0.258852,82.0,8.7,0.15,-30.675,296.986,-8.8148,-0.5591,5.0,43.0419,48.84391,2.3533595,307.0968,NaN,,37.019352,,0 / 18,614,2022-01-10 16:59:01:741
0.6667,1.055833,10.730015,0.256393,1.035429,9.748464,-0.30063,0.750567,-0.707602,-0.67376,-0.06165,-0.258852,82.0,8.7,0.15,-30.675,296.986,-8.8148,-0.5591,5.0,43.0419,48.84391,2.3533595,307.0968,NaN,,37.019352,,0 / 18,614,2022-01-10 16:59:01:741
0.6667,1.055833,10.730015,0.256393,1.035429,9.748464,-0.30063,0.750567,-0.707602,-0.67376,-0.06165,-0.258852,82.0,8.7,0.15,-30.675,296.986,-8.8148,-0.5591,5.0,43.0419,48.84391,2.3533595,307.0968,NaN,,37.019352,,0 / 18,614,2022-01-10 16:59:01:741
0.6667,1.055833,10.730015,0.256393,1.035429,9.748464,-0.30063,0.750567,-0.707602,-0.67376,-0.06165,-0.258852,82.0,8.7,0.15,-30.675,296.986,-8.8148,-0.5591,5.0,43.0419,48.84391,2.3533595,307.0968,NaN,,37.019352,,0 / 18,618,2022-01-10 16:59:01:745
0.6667,1.055833,10.730015,0.256393,1.035429,9.748464,-0.30063,0.750567,-0.707602,-0.67376,-0.06165,-0.258852,82.0,8.7,0.15,-30.675,296.986,-8.8148,-0.5591,5.0,43.0419,48.84391,2.3533595,307.0968,NaN,,37.019352,,0 / 18,623,2022-01-10 16:59:01:750
0.6667,1.055833,10.730015,0.256393,1.035429,9.748464,-0.30063,0.750567,-0.707602,-0.67376,-0.06165,-0.258852,82.0,8.7,0.15,-30.675,296.986,-8.8148,-0.5591,5.0,43.0419,48.84391,2.3533595,307.0968,NaN,,37.019352,,0 / 18,628,2022-01-10 16:59:01:755
0.6667,1.055833,10.730015,0.256393,1.035429,9.748464,-0.30063,0.750567,-0.707602,-0.67376,-0.06165,-0.258852,82.0,8.7,0.15,-30.675,296.986,-8.8148,-0.5591,5.0,43.0419,48.84391,2.3533595,307.0968,NaN,,37.019352,,0 / 18,633,2022-01-10 16:59:01:760
0.6667,1.055833,10.730015,0.256393,1.035429,9.748464,-0.30063,0.750567,-0.707602,-0.67376,-0.06165,-0.258852,82.0,8.7,0.15,-30.675,296.986,-8.8148,-0.5591,5.0,43.0419,48.84391,2.3533595,307.0968,NaN,,37.019352,,0 / 18,638,2022-01-10 16:59:01:765
0.6667,1.055833,10.730015,0.088972,0.640135,9.785331,0.688332,0.092095,0.75875,-0.67376,-0.06165,-0.258852,82.0,5.85,4.425,-30.825,316.7128,-6.0608,-1.5066,5.0,43.0419,48.84391,2.3533595,307.0968,NaN,,37.019352,,0 / 18,643,2022-01-10 16:59:01:770
0.6667,1.055833,10.730015,0.088972,0.640135,9.785331,0.688332,0.092095,0.75875,-0.67376,-0.06165,-0.258852,82.0,5.85,4.425,-30.825,316.7128,-6.0608,-1.5066,5.0,43.0419,48.84391,2.3533595,307.0968,NaN,,37.019352,,0 / 18,648,2022-01-10 16:59:01:775
0.6667,1.055833,10.730015,0.088972,0.640135,9.785331,0.688332,0.092095,0.75875,-0.67376,-0.06165,-0.258852,82.0,5.85,4.425,-30.825,316.7128,-6.0608,-1.5066,5.0,43.0419,48.84391,2.3533595,307.0968,NaN,,37.019352,,0 / 18,653,2022-01-10 16:59:01:780
0.6667,1.055833,10.730015,0.088972,0.640135,9.785331,0.688332,0.092095,0.75875,-0.67376,-0.06165,-0.258852,82.0,5.85,4.425,-30.825,316.7128,-6.0608,-1.5066,5.0,43.0419,48.84391,2.3533595,307.0968,NaN,,37.019352,,0 / 18,658,2022-01-10 16:59:01:785
0.6667,1.055833,10.730015,0.088972,0.640135,9.785331,0.688332,0.092095,0.75875,-0.67376,-0.06165,-0.258852,82.0,5.85,4.425,-30.825,316.7128,-6.0608,-1.5066,5.0,43.0419,48.84391,2.3533595,307.0968,NaN,,37.019352,,0 / 18,663,2022-01-10 16:59:01:790
0.37328,-0.762413,10.694122,0.088972,0.640135,9.785331,0.688332,0.092095,0.75875,-0.358051,0.283219,-0.223033,82.0,5.85,4.425,-30.825,316.7128,-6.0608,-1.5066,5.0,43.0419,48.84391,2.3533595,307.0968,NaN,,37.019352,,0 / 18,669,2022-01-10 16:59:01:796
0.37328,-0.762413,10.694122,0.088972,0.640135,9.785331,0.688332,0.092095,0.75875,-0.358051,0.283219,-0.223033,82.0,5.85,4.425,-30.825,316.7128,-6.0608,-1.5066,5.0,43.0419,48.84391,2.3533595,307.0968,NaN,,37.019352,,0 / 18,673,2022-01-10 16:59:01:800
0.37328,-0.762413,10.694122,0.088972,0.640135,9.785331,0.688332,0.092095,0.75875,-0.358051,0.283219,-0.223033,82.0,5.85,4.425,-30.825,316.7128,-6.0608,-1.5066,5.0,43.0419,48.84391,2.3533595,307.0968,NaN,,37.019352,,0 / 18,678,2022-01-10 16:59:01:805
0.37328,-0.762413,10.694122,0.088972,0.640135,9.785331,0.688332,0.092095,0.75875,-0.358051,0.283219,-0.223033,82.0,5.85,4.425,-30.825,316.7128,-6.0608,-1.5066,5.0,43.0419,48.84391,2.3533595,307.0968,NaN,,37.019352,,0 / 18,683,2022-01-10 16:59:01:810
0.37328,-0.762413,10.694122,0.088972,0.640135,9.785331,0.688332,0.092095,0.75875,-0.358051,0.283219,-0.223033,82.0,5.85,4.425,-30.825,316.7128,-6.0608,-1.5066,5.0,43.0419,48.84391,2.3533595,307.0968,NaN,,37.019352,,0 / 18,688,2022-01-10 16:59:01:815
0.37328,-0.762413,10.694122,0.088972,0.640135,9.785331,0.688332,0.092095,0.75875,-0.358051,0.283219,-0.223033,82.0,5.85,4.425,-30.825,316.7128,-6.0608,-1.5066,5.0,43.0419,48.84391,2.3533595,307.0968,NaN,,37.019352,,0 / 18,693,2022-01-10 16:59:01:820
0.37328,-0.762413,10.694122,0.088972,0.640135,9.785331,0.688332,0.092095,0.75875,-0.358051,0.283219,-0.223033,82.0,5.85,4.425,-30.825,316.7128,-6.0608,-1.5066,5.0,43.0419,48.84391,2.3533595,307.0968,NaN,,37.019352,,0 / 18,698,2022-01-10 16:59:01:825
0.37328,-0.762413,10.694122,0.088972,0.640135,9.785331,0.688332,0.092095,0.75875,-0.358051,0.283219,-0.223033,82.0,5.85,4.425,-30.825,316.7128,-6.0608,-1.5066,5.0,43.0419,48.84391,2.3533595,307.0968,NaN,,37.019352,,0 / 18,703,2022-01-10 16:59:01:830
0.37328,-0.762413,10.694122,0.088972,0.640135,9.785331,0.688332,0.092095,0.75875,-0.358051,0.283219,-0.223033,82.0,5.85,4.425,-30.825,316.7128,-6.0608,-1.5066,5.0,43.0419,48.84391,2.3533595,307.0968,NaN,,37.019352,,0 / 18,708,2022-01-10 16:59:01:835
0.37328,-0.762413,10.694122,0.088972,0.640135,9.785331,0.688332,0.092095,0.75875,-0.358051,0.283219,-0.223033,82.0,5.85,4.425,-30.825,316.7128,-6.0608,-1.5066,5.0,43.0419,48.84391,2.3533595,307.0968,NaN,,37.019352,,0 / 18,713,2022-01-10 16:59:01:840
0.37328,-0.762413,10.694122,0.088972,0.640135,9.785331,0.688332,0.092095,0.75875,-0.358051,0.283219,-0.223033,82.0,5.85,4.425,-30.825,316.7128,-6.0608,-1.5066,5.0,43.0419,48.84391,2.3533595,307.0968,NaN,,37.019352,,0 / 18,718,2022-01-10 16:59:01:845
0.37328,-0.762413,10.694122,0.088972,0.640135,9.785331,0.688332,0.092095,0.75875,-0.358051,0.283219,-0.223033,82.0,5.85,4.425,-30.825,316.7128,-6.0608,-1.5066,5.0,43.0419,48.84391,2.3533595,307.0968,NaN,,37.019352,,0 / 18,722,2022-01-10 16:59:01:849
0.37328,-0.762413,10.694122,0.088972,0.640135,9.785331,0.688332,0.092095,0.75875,-0.358051,0.283219,-0.223033,82.0,5.85,4.425,-30.825,316.7128,-6.0608,-1.5066,5.0,43.0419,48.84391,2.3533595,307.0968,NaN,,37.019352,,0 / 18,728,2022-01-10 16:59:01:855
0.37328,-0.762413,10.694122,0.088972,0.640135,9.785331,0.688332,0.092095,0.75875,-0.358051,0.283219,-0.223033,82.0,5.85,4.425,-30.825,316.7128,-6.0608,-1.5066,5.0,43.0419,48.84391,2.3533595,307.0968,NaN,,37.019352,,0 / 18,733,2022-01-10 16:59:01:860
0.37328,-0.762413,10.694122,0.088972,0.640135,9.785331,0.688332,0.092095,0.75875,-0.358051,0.283219,-0.223033,82.0,5.85,4.425,-30.825,316.7128,-6.0608,-1.5066,5.0,43.0419,48.84391,2.3533595,307.0968,NaN,,37.019352,,0 / 18,738,2022-01-10 16:59:01:865
0.37328,-0.762413,10.694122,0.088972,0.640135,9.785331,0.688332,0.092095,0.75875,-0.358051,0.283219,-0.223033,82.0,5.85,4.425,-30.825,316.7128,-6.0608,-1.5066,5.0,43.0419,48.84391,2.3533595,307.0968,NaN,,37.019352,,0 / 18,744,2022-01-10 16:59:01:871
0.37328,-0.762413,10.694122,0.088972,0.640135,9.785331,0.688332,0.092095,0.75875,-0.358051,0.283219,-0.223033,82.0,5.85,4.425,-30.825,316.7128,-6.0608,-1.5066,5.0,43.0419,48.84391,2.3533595,307.0968,NaN,,37.019352,,0 / 18,748,2022-01-10 16:59:01:875
0.37328,-0.762413,10.694122,0.088972,0.640135,9.785331,0.688332,0.092095,0.75875,-0.358051,0.283219,-0.223033,82.0,5.85,4.425,-30.825,316.7128,-6.0608,-1.5066,5.0,43.0419,48.84391,2.3533595,307.0968,NaN,,37.019352,,0 / 18,753,2022-01-10 16:59:01:880
0.37328,-0.762413,10.694122,0.088972,0.640135,9.785331,0.688332,0.092095,0.75875,-0.358051,0.283219,-0.223033,82.0,5.85,4.425,-30.825,316.7128,-6.0608,-1.5066,5.0,43.0419,48.84391,2.3533595,307.0968,NaN,,37.019352,,0 / 18,758,2022-01-10 16:59:01:885
0.37328,-0.762413,10.694122,0.088972,0.640135,9.785331,0.688332,0.092095,0.75875,-0.358051,0.283219,-0.223033,82.0,5.85,4.425,-30.825,316.7128,-6.0608,-1.5066,5.0,43.0419,48.84391,2.3533595,307.0968,NaN,,37.019352,,0 / 18,763,2022-01-10 16:59:01:890
0.37328,-0.762413,10.694122,0.088972,0.640135,9.785331,0.688332,0.092095,0.75875,-0.358051,0.283219,-0.223033,82.0,5.85,4.425,-30.825,316.7128,-6.0608,-1.5066,5.0,43.0419,48.84391,2.3533595,307.0968,NaN,,37.019352,,0 / 18,768,2022-01-10 16:59:01:895
0.37328,-0.762413,10.694122,0.088972,0.640135,9.785331,0.688332,0.092095,0.75875,-0.358051,0.283219,-0.223033,82.0,5.85,4.425,-30.825,316.7128,-6.0608,-1.5066,5.0,43.0419,48.84391,2.3533595,307.0968,NaN,,37.019352,,0 / 18,773,2022-01-10 16:59:01:900
0.37328,-0.762413,10.694122,0.088972,0.640135,9.785331,0.688332,0.092095,0.75875,-0.358051,0.283219,-0.223033,82.0,5.85,4.425,-30.825,316.7128,-6.0608,-1.5066,5.0,43.0419,48.84391,2.3533595,307.0968,NaN,,37.019352,,0 / 18,778,2022-01-10 16:59:01:905
0.125324,-2.138585,11.548061,-0.015044,0.040872,9.806553,-0.193819,-0.872392,0.930779,-0.358051,0.283219,-0.223033,82.0,5.85,4.425,-30.825,316.7128,-6.0608,-1.5066,5.0,43.0419,48.84391,2.3533595,307.0968,NaN,,37.019352,,0 / 18,783,2022-01-10 16:59:01:910
0.125324,-2.138585,11.548061,-0.015044,0.040872,9.806553,-0.193819,-0.872392,0.930779,-0.358051,0.283219,-0.223033,82.0,5.85,4.425,-30.825,316.7128,-6.0608,-1.5066,5.0,43.0419,48.84391,2.3533595,307.0968,NaN,,37.019352,,0 / 18,788,2022-01-10 16:59:01:915
0.125324,-2.138585,11.548061,-0.015044,0.040872,9.806553,-0.193819,-0.872392,0.930779,-0.358051,0.283219,-0.223033,82.0,5.85,4.425,-30.825,316.7128,-6.0608,-1.5066,5.0,43.0419,48.84391,2.3533595,307.0968,NaN,,37.019352,,0 / 18,793,2022-01-10 16:59:01:920
0.125324,-2.138585,11.548061,-0.015044,0.040872,9.806553,-0.193819,-0.872392,0.930779,-0.337945,0.114779,-0.107056,82.0,5.85,4.425,-30.825,316.7128,-6.0608,-1.5066,5.0,43.0419,48.84391,2.3533595,307.0968,NaN,,37.019352,,0 / 18,800,2022-01-10 16:59:01:927
0.125324,-2.138585,11.548061,-0.015044,0.040872,9.806553,-0.193819,-0.872392,0.930779,-0.337945,0.114779,-0.107056,82.0,5.85,4.425,-30.825,316.7128,-6.0608,-1.5066,5.0,43.0419,48.84391,2.3533595,307.0968,NaN,,37.019352,,0 / 18,803,2022-01-10 16:59:01:930
0.125324,-2.138585,11.548061,-0.015044,0.040872,9.806553,-0.193819,-0.872392,0.930779,-0.337945,0.114779,-0.107056,82.0,5.85,4.425,-30.825,316.7128,-6.0608,-1.5066,5.0,43.0419,48.84391,2.3533595,307.0968,NaN,,37.019352,,0 / 18,808,2022-01-10 16:59:01:935
0.125324,-2.138585,11.548061,-0.015044,0.040872,9.806553,-0.193819,-0.872392,0.930779,-0.337945,0.114779,-0.107056,82.0,5.85,4.425,-30.825,316.7128,-6.0608,-1.5066,5.0,43.0419,48.84391,2.3533595,307.0968,NaN,,37.019352,,0 / 18,813,2022-01-10 16:59:01:940
0.125324,-2.138585,11.548061,-0.015044,0.040872,9.806553,-0.193819,-0.872392,0.930779,-0.337945,0.114779,-0.107056,82.0,5.85,4.425,-30.825,316.7128,-6.0608,-1.5066,5.0,43.0419,48.84391,2.3533595,307.0968,NaN,,37.019352,,0 / 18,818,2022-01-10 16:59:01:945
0.125324,-2.138585,11.548061,-0.015044,0.040872,9.806553,-0.193819,-0.872392,0.930779,-0.337945,0.114779,-0.107056,82.0,5.85,4.425,-30.825,316.7128,-6.0608,-1.5066,5.0,43.0419,48.84391,2.3533595,307.0968,NaN,,37.019352,,0 / 18,822,2022-01-10 16:59:01:949
0.125324,-2.138585,11.548061,-0.015044,0.040872,9.806553,-0.193819,-0.872392,0.930779,-0.337945,0.114779,-0.107056,82.0,5.85,4.425,-30.825,316.7128,-6.0608,-1.5066,5.0,43.0419,48.84391,2.3533595,307.0968,NaN,,37.019352,,0 / 18,828,2022-01-10 16:59:01:955
0.125324,-2.138585,11.548061,-0.015044,0.040872,9.806553,-0.193819,-0.872392,0.930779,-0.337945,0.114779,-0.107056,82.0,5.85,4.425,-30.825,316.7128,-6.0608,-1.5066,5.0,43.0419,48.84391,2.3533595,307.0968,NaN,,37.019352,,0 / 18,833,2022-01-10 16:59:01:960
0.125324,-2.138585,11.548061,-0.015044,0.040872,9.806553,-0.193819,-0.872392,0.930779,-0.337945,0.114779,-0.107056,82.0,8.325,21.375,-38.025,339.4265,-0.2388,0.0879,5.0,43.0419,48.84391,2.3533595,307.0968,NaN,,37.019352,,0 / 18,838,2022-01-10 16:59:01:965
0.125324,-2.138585,11.548061,-0.015044,0.040872,9.806553,-0.193819,-0.872392,0.930779,-0.337945,0.114779,-0.107056,82.0,8.325,21.375,-38.025,339.4265,-0.2388,0.0879,5.0,43.0419,48.84391,2.3533595,307.0968,NaN,,37.019352,,0 / 18,843,2022-01-10 16:59:01:970
0.125324,-2.138585,11.548061,-0.015044,0.040872,9.806553,-0.193819,-0.872392,0.930779,-0.337945,0.114779,-0.107056,82.0,8.325,21.375,-38.025,339.4265,-0.2388,0.0879,5.0,43.0419,48.84391,2.3533595,307.0968,NaN,,37.019352,,0 / 18,848,2022-01-10 16:59:01:975
0.125324,-2.138585,11.548061,-0.015044,0.040872,9.806553,-0.193819,-0.872392,0.930779,-0.337945,0.114779,-0.107056,82.0,8.325,21.375,-38.025,339.4265,-0.2388,0.0879,5.0,43.0419,48.84391,2.3533595,307.0968,NaN,,37.019352,,0 / 18,853,2022-01-10 16:59:01:980
0.125324,-2.138585,11.548061,-0.015044,0.040872,9.806553,-0.193819,-0.872392,0.930779,-0.337945,0.114779,-0.107056,82.0,8.325,21.375,-38.025,339.4265,-0.2388,0.0879,5.0,43.0419,48.84391,2.3533595,307.0968,NaN,,37.019352,,0 / 18,858,2022-01-10 16:59:01:985
0.125324,-2.138585,11.548061,-0.015044,0.040872,9.806553,-0.193819,-0.872392,0.930779,-0.337945,0.114779,-0.107056,82.0,8.325,21.375,-38.025,339.4265,-0.2388,0.0879,5.0,43.0419,48.84391,2.3533595,307.0968,NaN,,37.019352,,0 / 18,863,2022-01-10 16:59:01:990
-0.619741,-0.929911,10.891829,-0.015044,0.040872,9.806553,-0.193819,-0.872392,0.930779,-0.337945,0.114779,-0.107056,82.0,8.325,21.375,-38.025,339.4265,-0.2388,0.0879,5.0,43.0419,48.84391,2.3533595,307.0968,NaN,,37.019352,,0 / 18,868,2022-01-10 16:59:01:995
-0.619741,-0.929911,10.891829,-0.015044,0.040872,9.806553,-0.193819,-0.872392,0.930779,-0.337945,0.114779,-0.107056,82.0,8.325,21.375,-38.025,339.4265,-0.2388,0.0879,5.0,43.0419,48.84391,2.3533595,307.0968,NaN,,37.019352,,0 / 18,873,2022-01-10 16:59:02:000
-0.619741,-0.929911,10.891829,-0.015044,0.040872,9.806553,-0.193819,-0.872392,0.930779,-0.337945,0.114779,-0.107056,82.0,8.325,21.375,-38.025,339.4265,-0.2388,0.0879,5.0,43.0419,48.84391,2.3533595,307.0968,NaN,,37.019352,,0 / 18,878,2022-01-10 16:59:02:005
-0.619741,-0.929911,10.891829,-0.015044,0.040872,9.806553,-0.193819,-0.872392,0.930779,-0.337945,0.114779,-0.107056,82.0,8.325,21.375,-38.025,339.4265,-0.2388,0.0879,5.0,43.0419,48.84391,2.3533595,307.0968,NaN,,37.019352,,0 / 18,883,2022-01-10 16:59:02:010
-0.619741,-0.929911,10.891829,-0.425835,-0.180635,9.795735,-0.199474,-1.235497,2.041462,-0.337945,0.114779,-0.107056,82.0,8.325,21.375,-38.025,339.4265,-0.2388,0.0879,5.0,43.0419,48.84391,2.3533595,307.0968,NaN,,37.019352,,0 / 18,888,2022-01-10 16:59:02:015
-0.619741,-0.929911,10.891829,-0.425835,-0.180635,9.795735,-0.199474,-1.235497,2.041462,-0.337945,0.114779,-0.107056,82.0,8.325,21.375,-38.025,339.4265,-0.2388,0.0879,5.0,43.0419,48.84391,2.3533595,307.0968,NaN,,37.019352,,0 / 18,893,2022-01-10 16:59:02:020
-0.619741,-0.929911,10.891829,-0.425835,-0.180635,9.795735,-0.199474,-1.235497,2.041462,-0.337945,0.114779,-0.107056,82.0,8.325,21.375,-38.025,339.4265,-0.2388,0.0879,5.0,43.0419,48.84391,2.3533595,307.0968,NaN,,37.019352,,0 / 18,898,2022-01-10 16:59:02:025
-0.619741,-0.929911,10.891829,-0.425835,-0.180635,9.795735,-0.199474,-1.235497,2.041462,-0.337945,0.114779,-0.107056,82.0,8.325,21.375,-38.025,339.4265,-0.2388,0.0879,5.0,43.0419,48.84391,2.3533595,307.0968,NaN,,37.019352,,0 / 18,904,2022-01-10 16:59:02:031
-0.619741,-0.929911,10.891829,-0.425835,-0.180635,9.795735,-0.199474,-1.235497,2.041462,-0.337945,0.114779,-0.107056,82.0,8.325,21.375,-38.025,339.4265,-0.2388,0.0879,5.0,43.0419,48.84391,2.3533595,307.0968,NaN,,37.019352,,0 / 18,908,2022-01-10 16:59:02:035
-0.619741,-0.929911,10.891829,-0.425835,-0.180635,9.795735,-0.199474,-1.235497,2.041462,-0.337945,0.114779,-0.107056,82.0,8.325,21.375,-38.025,339.4265,-0.2388,0.0879,5.0,43.0419,48.84391,2.3533595,307.0968,NaN,,37.019352,,0 / 18,913,2022-01-10 16:59:02:040
-0.619741,-0.929911,10.891829,-0.425835,-0.180635,9.795735,-0.199474,-1.235497,2.041462,-0.337945,0.114779,-0.107056,82.0,8.325,21.375,-38.025,339.4265,-0.2388,0.0879,5.0,43.0419,48.84391,2.3533595,307.0968,NaN,,37.019352,,0 / 18,918,2022-01-10 16:59:02:045
-0.619741,-0.929911,10.891829,-0.425835,-0.180635,9.795735,-0.199474,-1.235497,2.041462,-0.337945,0.114779,-0.107056,82.0,8.325,21.375,-38.025,339.4265,-0.2388,0.0879,5.0,43.0419,48.84391,2.3533595,307.0968,NaN,,37.019352,,0 / 18,923,2022-01-10 16:59:02:050
-0.619741,-0.929911,10.891829,-0.425835,-0.180635,9.795735,-0.199474,-1.235497,2.041462,-0.337945,0.114779,-0.107056,82.0,8.325,21.375,-38.025,339.4265,-0.2388,0.0879,5.0,43.0419,48.84391,2.3533595,307.0968,NaN,,37.019352,,0 / 18,928,2022-01-10 16:59:02:055
-0.619741,-0.929911,10.891829,-0.425835,-0.180635,9.795735,-0.199474,-1.235497,2.041462,0.217441,0.385481,-0.072303,66.0,8.325,21.375,-38.025,339.4265,-0.2388,0.0879,5.0,46.90872,48.84391,2.3533595,307.0968,NaN,,37.019352,,0 / 18,933,2022-01-10 16:59:02:060
-0.619741,-0.929911,10.891829,-0.425835,-0.180635,9.795735,-0.199474,-1.235497,2.041462,0.217441,0.385481,-0.072303,66.0,8.325,21.375,-38.025,339.4265,-0.2388,0.0879,5.0,46.90872,48.84391,2.3533595,307.0968,NaN,,37.019352,,0 / 18,938,2022-01-10 16:59:02:065
-0.619741,-0.929911,10.891829,-0.425835,-0.180635,9.795735,-0.199474,-1.235497,2.041462,0.217441,0.385481,-0.072303,66.0,8.325,21.375,-38.025,339.4265,-0.2388,0.0879,5.0,46.90872,48.84391,2.3533595,307.0968,NaN,,37.019352,,0 / 18,943,2022-01-10 16:59:02:070
-0.619741,-0.929911,10.891829,-0.425835,-0.180635,9.795735,-0.199474,-1.235497,2.041462,0.217441,0.385481,-0.072303,66.0,8.325,21.375,-38.025,339.4265,-0.2388,0.0879,5.0,46.90872,48.84391,2.3533595,307.0968,NaN,,37.019352,,0 / 18,948,2022-01-10 16:59:02:075
-0.619741,-0.929911,10.891829,-0.425835,-0.180635,9.795735,-0.199474,-1.235497,2.041462,0.217441,0.385481,-0.072303,66.0,8.325,21.375,-38.025,339.4265,-0.2388,0.0879,5.0,46.90872,48.84391,2.3533595,307.0968,NaN,,37.019352,,0 / 18,953,2022-01-10 16:59:02:080
-0.619741,-0.929911,10.891829,-0.425835,-0.180635,9.795735,-0.199474,-1.235497,2.041462,0.217441,0.385481,-0.072303,66.0,8.325,21.375,-38.025,339.4265,-0.2388,0.0879,5.0,46.90872,48.84391,2.3533595,307.0968,NaN,,37.019352,,0 / 18,958,2022-01-10 16:59:02:085
0.186341,0.551546,8.474779,-0.425835,-0.180635,9.795735,-0.199474,-1.235497,2.041462,0.217441,0.385481,-0.072303,66.0,8.325,21.375,-38.025,339.4265,-0.2388,0.0879,5.0,46.90872,48.84391,2.3533595,307.0968,NaN,,37.019352,,0 / 18,963,2022-01-10 16:59:02:090
0.186341,0.551546,8.474779,-0.425835,-0.180635,9.795735,-0.199474,-1.235497,2.041462,0.217441,0.385481,-0.072303,66.0,8.325,21.375,-38.025,339.4265,-0.2388,0.0879,5.0,46.90872,48.84391,2.3533595,307.0968,NaN,,37.019352,,0 / 18,968,2022-01-10 16:59:02:095
0.186341,0.551546,8.474779,-0.425835,-0.180635,9.795735,-0.199474,-1.235497,2.041462,0.217441,0.385481,-0.072303,66.0,8.325,21.375,-38.025,339.4265,-0.2388,0.0879,5.0,46.90872,48.84391,2.3533595,307.0968,NaN,,37.019352,,0 / 18,972,2022-01-10 16:59:02:099
0.186341,0.551546,8.474779,-0.425835,-0.180635,9.795735,-0.199474,-1.235497,2.041462,0.217441,0.385481,-0.072303,66.0,8.325,21.375,-38.025,339.4265,-0.2388,0.0879,5.0,46.90872,48.84391,2.3533595,307.0968,NaN,,37.019352,,0 / 18,978,2022-01-10 16:59:02:105
0.186341,0.551546,8.474779,-0.425835,-0.180635,9.795735,-0.199474,-1.235497,2.041462,0.217441,0.385481,-0.072303,66.0,8.325,21.375,-38.025,339.4265,-0.2388,0.0879,5.0,46.90872,48.84391,2.3533595,307.0968,NaN,,37.019352,,0 / 18,983,2022-01-10 16:59:02:110
0.186341,0.551546,8.474779,-0.425835,-0.180635,9.795735,-0.199474,-1.235497,2.041462,0.217441,0.385481,-0.072303,66.0,8.325,21.375,-38.025,339.4265,-0.2388,0.0879,5.0,46.90872,48.84391,2.3533595,307.0968,NaN,,37.019352,,0 / 18,988,2022-01-10 16:59:02:115
0.186341,0.551546,8.474779,-0.425835,-0.180635,9.795735,-0.199474,-1.235497,2.041462,0.217441,0.385481,-0.072303,66.0,8.325,21.375,-38.025,339.4265,-0.2388,0.0879,5.0,46.90872,48.84391,2.3533595,307.0968,NaN,,37.019352,,0 / 18,993,2022-01-10 16:59:02:120
0.186341,0.551546,8.474779,-0.425835,-0.180635,9.795735,-0.199474,-1.235497,2.041462,0.217441,0.385481,-0.072303,66.0,8.325,21.375,-38.025,339.4265,-0.2388,0.0879,5.0,46.90872,48.84391,2.3533595,307.0968,NaN,,37.019352,,0 / 18,998,2022-01-10 16:59:02:125
0.186341,0.551546,8.474779,-0.425835,-0.180635,9.795735,-0.199474,-1.235497,2.041462,0.217441,0.385481,-0.072303,66.0,8.325,21.375,-38.025,339.4265,-0.2388,0.0879,5.0,46.90872,48.84391,2.3533595,307.0968,NaN,,37.019352,,0 / 18,1004,2022-01-10 16:59:02:131
0.186341,0.551546,8.474779,-0.425835,-0.180635,9.795735,-0.199474,-1.235497,2.041462,0.217441,0.385481,-0.072303,66.0,8.325,21.375,-38.025,339.4265,-0.2388,0.0879,5.0,46.90872,48.84391,2.3533595,307.0968,NaN,,37.019352,,0 / 18,1008,2022-01-10 16:59:02:135
0.186341,0.551546,8.474779,-0.425835,-0.180635,9.795735,-0.199474,-1.235497,2.041462,0.217441,0.385481,-0.072303,66.0,8.325,21.375,-38.025,339.4265,-0.2388,0.0879,5.0,46.90872,48.84391,2.3533595,307.0968,NaN,,37.019352,,0 / 18,1014,2022-01-10 16:59:02:141
0.186341,0.551546,8.474779,-0.425835,-0.180635,9.795735,-0.199474,-1.235497,2.041462,0.217441,0.385481,-0.072303,66.0,8.325,21.375,-38.025,339.4265,-0.2388,0.0879,5.0,46.90872,48.84391,2.3533595,307.0968,NaN,,37.019352,,0 / 18,1018,2022-01-10 16:59:02:145
0.186341,0.551546,8.474779,-0.425835,-0.180635,9.795735,-0.199474,-1.235497,2.041462,0.217441,0.385481,-0.072303,66.0,8.325,21.375,-38.025,339.4265,-0.2388,0.0879,5.0,46.90872,48.84391,2.3533595,307.0968,NaN,,37.019352,,0 / 18,1023,2022-01-10 16:59:02:150
0.186341,0.551546,8.474779,-1.000121,0.107781,9.754924,1.403858,0.202345,-0.801001,0.217441,0.385481,-0.072303,66.0,8.325,21.375,-38.025,339.4265,-0.2388,0.0879,5.0,46.90872,48.84391,2.3533595,307.0968,NaN,,37.019352,,0 / 18,1028,2022-01-10 16:59:02:155
0.186341,0.551546,8.474779,-1.000121,0.107781,9.754924,1.403858,0.202345,-0.801001,0.217441,0.385481,-0.072303,66.0,8.325,21.375,-38.025,339.4265,-0.2388,0.0879,5.0,46.90872,48.84391,2.3533595,307.0968,NaN,,37.019352,,0 / 18,1032,2022-01-10 16:59:02:159
0.186341,0.551546,8.474779,-1.000121,0.107781,9.754924,1.403858,0.202345,-0.801001,0.217441,0.385481,-0.072303,66.0,7.725,25.65,-38.475,351.2166,-0.6297,5.8538,5.0,46.90872,48.84391,2.3533595,307.0968,NaN,,37.019352,,0 / 18,1038,2022-01-10 16:59:02:165
0.186341,0.551546,8.474779,-1.000121,0.107781,9.754924,1.403858,0.202345,-0.801001,0.217441,0.385481,-0.072303,66.0,7.725,25.65,-38.475,351.2166,-0.6297,5.8538,5.0,46.90872,48.84391,2.3533595,307.0968,NaN,,37.019352,,0 / 18,1043,2022-01-10 16:59:02:170
0.186341,0.551546,8.474779,-1.000121,0.107781,9.754924,1.403858,0.202345,-0.801001,0.217441,0.385481,-0.072303,66.0,7.725,25.65,-38.475,351.2166,-0.6297,5.8538,5.0,46.90872,48.84391,2.3533595,307.0968,NaN,,37.019352,,0 / 18,1048,2022-01-10 16:59:02:175
0.186341,0.551546,8.474779,-1.000121,0.107781,9.754924,1.403858,0.202345,-0.801001,0.217441,0.385481,-0.072303,66.0,7.725,25.65,-38.475,351.2166,-0.6297,5.8538,5.0,46.90872,48.84391,2.3533595,307.0968,NaN,,37.019352,,0 / 18,1053,2022-01-10 16:59:02:180
-0.756132,0.467797,7.42792,-1.000121,0.107781,9.754924,1.403858,0.202345,-0.801001,0.217441,0.385481,-0.072303,66.0,7.725,25.65,-38.475,351.2166,-0.6297,5.8538,5.0,46.90872,48.84391,2.3533595,307.0968,NaN,,37.019352,,0 / 18,1058,2022-01-10 16:59:02:185
-0.756132,0.467797,7.42792,-1.000121,0.107781,9.754924,1.403858,0.202345,-0.801001,0.217441,0.385481,-0.072303,66.0,7.725,25.65,-38.475,351.2166,-0.6297,5.8538,5.0,46.90872,48.84391,2.3533595,307.0968,NaN,,37.019352,,0 / 18,1063,2022-01-10 16:59:02:190
-0.756132,0.467797,7.42792,-1.000121,0.107781,9.754924,1.403858,0.202345,-0.801001,0.332486,0.125964,-0.343937,66.0,7.725,25.65,-38.475,351.2166,-0.6297,5.8538,5.0,46.90872,48.84391,2.3533595,307.0968,NaN,,37.019352,,0 / 18,1068,2022-01-10 16:59:02:195
-0.756132,0.467797,7.42792,-1.000121,0.107781,9.754924,1.403858,0.202345,-0.801001,0.332486,0.125964,-0.343937,66.0,7.725,25.65,-38.475,351.2166,-0.6297,5.8538,5.0,46.90872,48.84391,2.3533595,307.0968,NaN,,37.019352,,0 / 18,1073,2022-01-10 16:59:02:200
-0.756132,0.467797,7.42792,-1.000121,0.107781,9.754924,1.403858,0.202345,-0.801001,0.332486,0.125964,-0.343937,66.0,7.725,25.65,-38.475,351.2166,-0.6297,5.8538,5.0,46.90872,48.84391,2.3533595,307.0968,NaN,,37.019352,,0 / 18,1078,2022-01-10 16:59:02:205
-0.756132,0.467797,7.42792,-1.000121,0.107781,9.754924,1.403858,0.202345,-0.801001,0.332486,0.125964,-0.343937,66.0,7.725,25.65,-38.475,351.2166,-0.6297,5.8538,5.0,46.90872,48.84391,2.3533595,307.0968,NaN,,37.019352,,0 / 18,1082,2022-01-10 16:59:02:209
-0.756132,0.467797,7.42792,-1.000121,0.107781,9.754924,1.403858,0.202345,-0.801001,0.332486,0.125964,-0.343937,66.0,7.725,25.65,-38.475,351.2166,-0.6297,5.8538,5.0,46.90872,48.84391,2.3533595,307.0968,NaN,,37.019352,,0 / 18,1088,2022-01-10 16:59:02:215
-0.756132,0.467797,7.42792,-1.000121,0.107781,9.754924,1.403858,0.202345,-0.801001,0.332486,0.125964,-0.343937,66.0,7.725,25.65,-38.475,351.2166,-0.6297,5.8538,5.0,46.90872,48.84391,2.3533595,307.0968,NaN,,37.019352,,0 / 18,1093,2022-01-10 16:59:02:220
-0.756132,0.467797,7.42792,-1.000121,0.107781,9.754924,1.403858,0.202345,-0.801001,0.332486,0.125964,-0.343937,66.0,7.725,25.65,-38.475,351.2166,-0.6297,5.8538,5.0,46.90872,48.84391,2.3533595,307.0968,NaN,,37.019352,,0 / 18,1097,2022-01-10 16:59:02:224
-0.756132,0.467797,7.42792,-1.000121,0.107781,9.754924,1.403858,0.202345,-0.801001,0.332486,0.125964,-0.343937,66.0,7.725,25.65,-38.475,351.2166,-0.6297,5.8538,5.0,46.90872,48.84391,2.3533595,307.0968,NaN,,37.019352,,0 / 18,1103,2022-01-10 16:59:02:230
-0.756132,0.467797,7.42792,-1.000121,0.107781,9.754924,1.403858,0.202345,-0.801001,0.332486,0.125964,-0.343937,66.0,7.725,25.65,-38.475,351.2166,-0.6297,5.8538,5.0,46.90872,48.84391,2.3533595,307.0968,NaN,,37.019352,,0 / 18,1108,2022-01-10 16:59:02:235
-0.756132,0.467797,7.42792,-1.000121,0.107781,9.754924,1.403858,0.202345,-0.801001,0.332486,0.125964,-0.343937,77.0,7.725,25.65,-38.475,351.2166,-0.6297,5.8538,5.0,46.90872,48.84391,2.3533595,307.0968,NaN,,37.019352,,0 / 18,1113,2022-01-10 16:59:02:240
-0.756132,0.467797,7.42792,-1.000121,0.107781,9.754924,1.403858,0.202345,-0.801001,0.332486,0.125964,-0.343937,77.0,7.725,25.65,-38.475,351.2166,-0.6297,5.8538,5.0,46.90872,48.84391,2.3533595,307.0968,NaN,,37.019352,,0 / 18,1118,2022-01-10 16:59:02:245
-0.756132,0.467797,7.42792,-1.000121,0.107781,9.754924,1.403858,0.202345,-0.801001,0.332486,0.125964,-0.343937,77.0,7.725,25.65,-38.475,351.2166,-0.6297,5.8538,5.0,46.90872,48.84391,2.3533595,307.0968,NaN,,37.019352,,0 / 18,1123,2022-01-10 16:59:02:250
-0.756132,0.467797,7.42792,-1.000121,0.107781,9.754924,1.403858,0.202345,-0.801001,0.332486,0.125964,-0.343937,77.0,7.725,25.65,-38.475,351.2166,-0.6297,5.8538,5.0,46.90872,48.84391,2.3533595,307.0968,NaN,,37.019352,,0 / 18,1128,2022-01-10 16:59:02:255
-0.756132,0.467797,7.42792,-1.000121,0.107781,9.754924,1.403858,0.202345,-0.801001,0.332486,0.125964,-0.343937,77.0,7.725,25.65,-38.475,351.2166,-0.6297,5.8538,5.0,46.90872,48.84391,2.3533595,307.0968,NaN,,37.019352,,0 / 18,1133,2022-01-10 16:59:02:260
-0.756132,0.467797,7.42792,-1.121531,0.40783,9.733768,0.437316,0.082987,-1.415686,0.332486,0.125964,-0.343937,77.0,7.725,25.65,-38.475,351.2166,-0.6297,5.8538,5.0,46.90872,48.84391,2.3533595,307.0968,NaN,,37.019352,,0 / 18,1139,2022-01-10 16:59:02:266
-0.756132,0.467797,7.42792,-1.121531,0.40783,9.733768,0.437316,0.082987,-1.415686,0.332486,0.125964,-0.343937,77.0,7.725,25.65,-38.475,351.2166,-0.6297,5.8538,5.0,46.90872,48.84391,2.3533595,307.0968,NaN,,37.019352,,0 / 18,1143,2022-01-10 16:59:02:270
-0.756132,0.467797,7.42792,-1.121531,0.40783,9.733768,0.437316,0.082987,-1.415686,0.332486,0.125964,-0.343937,77.0,7.725,25.65,-38.475,351.2166,-0.6297,5.8538,5.0,46.90872,48.84391,2.3533595,307.0968,NaN,,37.019352,,0 / 18,1148,2022-01-10 16:59:02:275
-0.756132,0.467797,7.42792,-1.121531,0.40783,9.733768,0.437316,0.082987,-1.415686,0.332486,0.125964,-0.343937,77.0,7.725,25.65,-38.475,351.2166,-0.6297,5.8538,5.0,46.90872,48.84391,2.3533595,307.0968,NaN,,37.019352,,0 / 18,1153,2022-01-10 16:59:02:280
-0.756132,0.467797,7.42792,-1.121531,0.40783,9.733768,0.437316,0.082987,-1.415686,0.332486,0.125964,-0.343937,77.0,7.725,25.65,-38.475,351.2166,-0.6297,5.8538,5.0,46.90872,48.84391,2.3533595,307.0968,NaN,,37.019352,,0 / 18,1158,2022-01-10 16:59:02:285
-0.756132,0.467797,7.42792,-1.121531,0.40783,9.733768,0.437316,0.082987,-1.415686,0.332486,0.125964,-0.343937,77.0,7.725,25.65,-38.475,351.2166,-0.6297,5.8538,5.0,46.90872,48.84391,2.3533595,307.0968,NaN,,37.019352,,0 / 18,1162,2022-01-10 16:59:02:289
-0.756132,0.467797,7.42792,-1.121531,0.40783,9.733768,0.437316,0.082987,-1.415686,0.332486,0.125964,-0.343937,77.0,7.725,25.65,-38.475,351.2166,-0.6297,5.8538,5.0,46.90872,48.84391,2.3533595,307.0968,NaN,,37.019352,,0 / 18,1168,2022-01-10 16:59:02:295
-0.756132,0.467797,7.42792,-1.121531,0.40783,9.733768,0.437316,0.082987,-1.415686,0.332486,0.125964,-0.343937,77.0,7.725,25.65,-38.475,351.2166,-0.6297,5.8538,5.0,46.90872,48.84391,2.3533595,307.0968,NaN,,37.019352,,0 / 18,1173,2022-01-10 16:59:02:300
-0.756132,0.467797,7.42792,-1.121531,0.40783,9.733768,0.437316,0.082987,-1.415686,0.332486,0.125964,-0.343937,77.0,7.725,25.65,-38.475,351.2166,-0.6297,5.8538,5.0,46.90872,48.84391,2.3533595,307.0968,NaN,,37.019352,,0 / 18,1178,2022-01-10 16:59:02:305
-0.756132,0.467797,7.42792,-1.121531,0.40783,9.733768,0.437316,0.082987,-1.415686,0.332486,0.125964,-0.343937,77.0,7.725,25.65,-38.475,351.2166,-0.6297,5.8538,5.0,46.90872,48.84391,2.3533595,307.0968,NaN,,37.019352,,0 / 18,1184,2022-01-10 16:59:02:311
-0.756132,0.467797,7.42792,-1.121531,0.40783,9.733768,0.437316,0.082987,-1.415686,0.332486,0.125964,-0.343937,77.0,7.725,25.65,-38.475,351.2166,-0.6297,5.8538,5.0,46.90872,48.84391,2.3533595,307.0968,NaN,,37.019352,,0 / 18,1188,2022-01-10 16:59:02:315
-0.756132,0.467797,7.42792,-1.121531,0.40783,9.733768,0.437316,0.082987,-1.415686,0.332486,0.125964,-0.343937,77.0,7.725,25.65,-38.475,351.2166,-0.6297,5.8538,5.0,46.90872,48.84391,2.3533595,307.0968,NaN,,37.019352,,0 / 18,1193,2022-01-10 16:59:02:320
-0.756132,0.467797,7.42792,-1.121531,0.40783,9.733768,0.437316,0.082987,-1.415686,0.332486,0.125964,-0.343937,77.0,7.725,25.65,-38.475,351.2166,-0.6297,5.8538,5.0,46.90872,48.84391,2.3533595,307.0968,NaN,,37.019352,,0 / 18,1198,2022-01-10 16:59:02:325
0.333799,0.203091,9.377771,-1.121531,0.40783,9.733768,0.437316,0.082987,-1.415686,0.127029,0.203193,-0.050599,77.0,7.725,25.65,-38.475,351.2166,-0.6297,5.8538,5.0,46.90872,48.84391,2.3533595,307.0968,NaN,,37.019352,,0 / 18,1203,2022-01-10 16:59:02:330
0.333799,0.203091,9.377771,-1.121531,0.40783,9.733768,0.437316,0.082987,-1.415686,0.127029,0.203193,-0.050599,77.0,7.725,25.65,-38.475,351.2166,-0.6297,5.8538,5.0,46.90872,48.84391,2.3533595,307.0968,NaN,,37.019352,,0 / 18,1208,2022-01-10 16:59:02:335
0.333799,0.203091,9.377771,-1.121531,0.40783,9.733768,0.437316,0.082987,-1.415686,0.127029,0.203193,-0.050599,77.0,7.725,25.65,-38.475,351.2166,-0.6297,5.8538,5.0,46.90872,48.84391,2.3533595,307.0968,NaN,,37.019352,,0 / 18,1213,2022-01-10 16:59:02:340
0.333799,0.203091,9.377771,-1.121531,0.40783,9.733768,0.437316,0.082987,-1.415686,0.127029,0.203193,-0.050599,77.0,7.725,25.65,-38.475,351.2166,-0.6297,5.8538,5.0,46.90872,48.84391,2.3533595,307.0968,NaN,,37.019352,,0 / 18,1218,2022-01-10 16:59:02:345
0.333799,0.203091,9.377771,-1.121531,0.40783,9.733768,0.437316,0.082987,-1.415686,0.127029,0.203193,-0.050599,77.0,7.725,25.65,-38.475,351.2166,-0.6297,5.8538,5.0,46.90872,48.84391,2.3533595,307.0968,NaN,,37.019352,,0 / 18,1223,2022-01-10 16:59:02:350
0.333799,0.203091,9.377771,-1.121531,0.40783,9.733768,0.437316,0.082987,-1.415686,0.127029,0.203193,-0.050599,77.0,7.725,25.65,-38.475,351.2166,-0.6297,5.8538,5.0,46.90872,48.84391,2.3533595,307.0968,NaN,,37.019352,,0 / 18,1228,2022-01-10 16:59:02:355
0.333799,0.203091,9.377771,-1.121531,0.40783,9.733768,0.437316,0.082987,-1.415686,0.127029,0.203193,-0.050599,77.0,7.725,25.65,-38.475,351.2166,-0.6297,5.8538,5.0,46.90872,48.84391,2.3533595,307.0968,NaN,,37.019352,,0 / 18,1234,2022-01-10 16:59:02:361
0.333799,0.203091,9.377771,-1.121531,0.40783,9.733768,0.437316,0.082987,-1.415686,0.127029,0.203193,-0.050599,77.0,7.725,25.65,-38.475,351.2166,-0.6297,5.8538,5.0,46.90872,48.84391,2.3533595,307.0968,NaN,,37.019352,,0 / 18,1238,2022-01-10 16:59:02:365
0.333799,0.203091,9.377771,-1.121531,0.40783,9.733768,0.437316,0.082987,-1.415686,0.127029,0.203193,-0.050599,77.0,11.475,25.65,-39.375,346.8384,-2.3835,6.5727,5.0,46.90872,48.84391,2.3533595,307.0968,NaN,,37.019352,,0 / 18,1243,2022-01-10 16:59:02:370
0.333799,0.203091,9.377771,-1.121531,0.40783,9.733768,0.437316,0.082987,-1.415686,0.127029,0.203193,-0.050599,77.0,11.475,25.65,-39.375,346.8384,-2.3835,6.5727,5.0,46.90872,48.84391,2.3533595,307.0968,NaN,,37.019352,,0 / 18,1248,2022-01-10 16:59:02:375
0.333799,0.203091,9.377771,-1.121531,0.40783,9.733768,0.437316,0.082987,-1.415686,0.127029,0.203193,-0.050599,77.0,11.475,25.65,-39.375,346.8384,-2.3835,6.5727,5.0,46.90872,48.84391,2.3533595,307.0968,NaN,,37.019352,,0 / 18,1254,2022-01-10 16:59:02:381
0.333799,0.203091,9.377771,-1.121531,0.40783,9.733768,0.437316,0.082987,-1.415686,0.127029,0.203193,-0.050599,77.0,11.475,25.65,-39.375,346.8384,-2.3835,6.5727,5.0,46.90872,48.84391,2.3533595,307.0968,NaN,,37.019352,,0 / 18,1257,2022-01-10 16:59:02:384
0.333799,0.203091,9.377771,-1.121531,0.40783,9.733768,0.437316,0.082987,-1.415686,0.127029,0.203193,-0.050599,77.0,11.475,25.65,-39.375,346.8384,-2.3835,6.5727,5.0,67.92514,48.84391,2.3533595,307.0968,NaN,,37.019352,,0 / 18,1263,2022-01-10 16:59:02:390
0.333799,0.203091,9.377771,-1.111566,0.420489,9.734372,1.117107,-0.288563,-0.215108,0.127029,0.203193,-0.050599,77.0,11.475,25.65,-39.375,346.8384,-2.3835,6.5727,5.0,67.92514,48.84391,2.3533595,307.0968,NaN,,37.019352,,0 / 18,1269,2022-01-10 16:59:02:396
0.333799,0.203091,9.377771,-1.111566,0.420489,9.734372,1.117107,-0.288563,-0.215108,0.127029,0.203193,-0.050599,77.0,11.475,25.65,-39.375,346.8384,-2.3835,6.5727,5.0,67.92514,48.84391,2.3533595,307.0968,NaN,,37.019352,,0 / 18,1273,2022-01-10 16:59:02:400
0.333799,0.203091,9.377771,-1.111566,0.420489,9.734372,1.117107,-0.288563,-0.215108,0.127029,0.203193,-0.050599,77.0,11.475,25.65,-39.375,346.8384,-2.3835,6.5727,5.0,67.92514,48.84391,2.3533595,307.0968,NaN,,37.019352,,0 / 18,1278,2022-01-10 16:59:02:405
0.333799,0.203091,9.377771,-1.111566,0.420489,9.734372,1.117107,-0.288563,-0.215108,0.127029,0.203193,-0.050599,97.0,11.475,25.65,-39.375,346.8384,-2.3835,6.5727,5.0,67.92514,48.84391,2.3533595,307.0968,NaN,,37.019352,,0 / 18,1283,2022-01-10 16:59:02:410
0.333799,0.203091,9.377771,-1.111566,0.420489,9.734372,1.117107,-0.288563,-0.215108,0.127029,0.203193,-0.050599,97.0,11.475,25.65,-39.375,346.8384,-2.3835,6.5727,5.0,67.92514,48.84391,2.3533595,307.0968,NaN,,37.019352,,0 / 18,1288,2022-01-10 16:59:02:415
0.333799,0.203091,9.377771,-1.111566,0.420489,9.734372,1.117107,-0.288563,-0.215108,0.127029,0.203193,-0.050599,97.0,11.475,25.65,-39.375,346.8384,-2.3835,6.5727,5.0,67.92514,48.84391,2.3533595,307.0968,NaN,,37.019352,,0 / 18,1293,2022-01-10 16:59:02:420
0.333799,0.203091,9.377771,-1.111566,0.420489,9.734372,1.117107,-0.288563,-0.215108,0.127029,0.203193,-0.050599,97.0,11.475,25.65,-39.375,346.8384,-2.3835,6.5727,5.0,67.92514,48.84391,2.3533595,307.0968,NaN,,37.019352,,0 / 18,1298,2022-01-10 16:59:02:425
0.333799,0.203091,9.377771,-1.111566,0.420489,9.734372,1.117107,-0.288563,-0.215108,0.127029,0.203193,-0.050599,97.0,11.475,25.65,-39.375,346.8384,-2.3835,6.5727,5.0,67.92514,48.84391,2.3533595,307.0968,NaN,,37.019352,,0 / 18,1304,2022-01-10 16:59:02:431
0.333799,0.203091,9.377771,-1.111566,0.420489,9.734372,1.117107,-0.288563,-0.215108,0.127029,0.203193,-0.050599,97.0,11.475,25.65,-39.375,346.8384,-2.3835,6.5727,5.0,67.92514,48.84391,2.3533595,307.0968,NaN,,37.019352,,0 / 18,1308,2022-01-10 16:59:02:435
-1.362114,-0.194417,9.35504,-1.111566,0.420489,9.734372,1.117107,-0.288563,-0.215108,0.127029,0.203193,-0.050599,97.0,11.475,25.65,-39.375,346.8384,-2.3835,6.5727,5.0,67.92514,48.84391,2.3533595,307.0968,NaN,,37.019352,,0 / 18,1314,2022-01-10 16:59:02:441
-1.362114,-0.194417,9.35504,-1.111566,0.420489,9.734372,1.117107,-0.288563,-0.215108,0.127029,0.203193,-0.050599,97.0,11.475,25.65,-39.375,346.8384,-2.3835,6.5727,5.0,67.92514,48.84391,2.3533595,307.0968,NaN,,37.019352,,0 / 18,1318,2022-01-10 16:59:02:445
-1.362114,-0.194417,9.35504,-1.111566,0.420489,9.734372,1.117107,-0.288563,-0.215108,0.127029,0.203193,-0.050599,97.0,11.475,25.65,-39.375,346.8384,-2.3835,6.5727,5.0,67.92514,48.84391,2.3533595,307.0968,NaN,,37.019352,,0 / 18,1323,2022-01-10 16:59:02:450
-1.362114,-0.194417,9.35504,-1.111566,0.420489,9.734372,1.117107,-0.288563,-0.215108,0.127029,0.203193,-0.050599,97.0,11.475,25.65,-39.375,346.8384,-2.3835,6.5727,5.0,67.92514,48.84391,2.3533595,307.0968,NaN,,37.019352,,0 / 18,1328,2022-01-10 16:59:02:455
-1.362114,-0.194417,9.35504,-1.111566,0.420489,9.734372,1.117107,-0.288563,-0.215108,0.127029,0.203193,-0.050599,97.0,11.475,25.65,-39.375,346.8384,-2.3835,6.5727,5.0,67.92514,48.84391,2.3533595,307.0968,NaN,,37.019352,,0 / 18,1333,2022-01-10 16:59:02:460
-1.362114,-0.194417,9.35504,-1.111566,0.420489,9.734372,1.117107,-0.288563,-0.215108,0.093741,-0.333951,-0.162714,97.0,11.475,25.65,-39.375,346.8384,-2.3835,6.5727,5.0,67.92514,48.84391,2.3533595,307.0968,NaN,,37.019352,,0 / 18,1339,2022-01-10 16:59:02:466
-1.362114,-0.194417,9.35504,-1.111566,0.420489,9.734372,1.117107,-0.288563,-0.215108,0.093741,-0.333951,-0.162714,97.0,11.475,25.65,-39.375,346.8384,-2.3835,6.5727,5.0,67.92514,48.84391,2.3533595,307.0968,NaN,,37.019352,,0 / 18,1344,2022-01-10 16:59:02:471
-1.362114,-0.194417,9.35504,-1.111566,0.420489,9.734372,1.117107,-0.288563,-0.215108,0.093741,-0.333951,-0.162714,97.0,11.475,25.65,-39.375,346.8384,-2.3835,6.5727,5.0,67.92514,48.84391,2.3533595,307.0968,NaN,,37.019352,,0 / 18,1349,2022-01-10 16:59:02:476
-1.362114,-0.194417,9.35504,-1.111566,0.420489,9.734372,1.117107,-0.288563,-0.215108,0.093741,-0.333951,-0.162714,97.0,11.475,25.65,-39.375,346.8384,-2.3835,6.5727,5.0,67.92514,48.84391,2.3533595,307.0968,NaN,,37.019352,,0 / 18,1353,2022-01-10 16:59:02:480
-1.362114,-0.194417,9.35504,-1.111566,0.420489,9.734372,1.117107,-0.288563,-0.215108,0.093741,-0.333951,-0.162714,97.0,11.475,25.65,-39.375,346.8384,-2.3835,6.5727,5.0,67.92514,48.84391,2.3533595,307.0968,NaN,,37.019352,,0 / 18,1359,2022-01-10 16:59:02:486
-1.362114,-0.194417,9.35504,-1.111566,0.420489,9.734372,1.117107,-0.288563,-0.215108,0.093741,-0.333951,-0.162714,97.0,11.475,25.65,-39.375,346.8384,-2.3835,6.5727,5.0,67.92514,48.84391,2.3533595,307.0968,NaN,,37.019352,,0 / 18,1364,2022-01-10 16:59:02:491
-1.362114,-0.194417,9.35504,-1.111566,0.420489,9.734372,1.117107,-0.288563,-0.215108,0.093741,-0.333951,-0.162714,97.0,11.475,25.65,-39.375,346.8384,-2.3835,6.5727,5.0,67.92514,48.84391,2.3533595,307.0968,NaN,,37.019352,,0 / 18,1369,2022-01-10 16:59:02:496
-1.362114,-0.194417,9.35504,-1.111566,0.420489,9.734372,1.117107,-0.288563,-0.215108,0.093741,-0.333951,-0.162714,97.0,11.475,25.65,-39.375,346.8384,-2.3835,6.5727,5.0,67.92514,48.84391,2.3533595,307.0968,NaN,,37.019352,,0 / 18,1374,2022-01-10 16:59:02:501
-1.362114,-0.194417,9.35504,-1.111566,0.420489,9.734372,1.117107,-0.288563,-0.215108,0.093741,-0.333951,-0.162714,97.0,11.475,25.65,-39.375,346.8384,-2.3835,6.5727,5.0,67.92514,48.84391,2.3533595,307.0968,NaN,,37.019352,,0 / 18,1378,2022-01-10 16:59:02:505
-1.362114,-0.194417,9.35504,-0.763698,0.319203,9.771656,-0.675346,-0.451094,-0.075868,0.093741,-0.333951,-0.162714,97.0,11.475,25.65,-39.375,346.8384,-2.3835,6.5727,5.0,67.92514,48.84391,2.3533595,307.0968,NaN,,37.019352,,0 / 18,1383,2022-01-10 16:59:02:510
-1.362114,-0.194417,9.35504,-0.763698,0.319203,9.771656,-0.675346,-0.451094,-0.075868,0.093741,-0.333951,-0.162714,97.0,11.475,25.65,-39.375,346.8384,-2.3835,6.5727,5.0,67.92514,48.84391,2.3533595,307.0968,NaN,,37.019352,,0 / 18,1388,2022-01-10 16:59:02:515
-1.362114,-0.194417,9.35504,-0.763698,0.319203,9.771656,-0.675346,-0.451094,-0.075868,0.093741,-0.333951,-0.162714,97.0,11.475,25.65,-39.375,346.8384,-2.3835,6.5727,5.0,67.92514,48.84391,2.3533595,307.0968,NaN,,37.019352,,0 / 18,1393,2022-01-10 16:59:02:520
-1.191027,0.031705,8.959925,-0.763698,0.319203,9.771656,-0.675346,-0.451094,-0.075868,0.093741,-0.333951,-0.162714,97.0,11.475,25.65,-39.375,346.8384,-2.3835,6.5727,5.0,67.92514,48.84391,2.3533595,307.0968,NaN,,37.019352,,0 / 18,1399,2022-01-10 16:59:02:526
-1.191027,0.031705,8.959925,-0.763698,0.319203,9.771656,-0.675346,-0.451094,-0.075868,0.093741,-0.333951,-0.162714,97.0,11.475,25.65,-39.375,346.8384,-2.3835,6.5727,5.0,67.92514,48.84391,2.3533595,307.0968,NaN,,37.019352,,0 / 18,1403,2022-01-10 16:59:02:530
-1.191027,0.031705,8.959925,-0.763698,0.319203,9.771656,-0.675346,-0.451094,-0.075868,0.093741,-0.333951,-0.162714,97.0,11.475,25.65,-39.375,346.8384,-2.3835,6.5727,5.0,67.92514,48.84391,2.3533595,307.0968,NaN,,37.019352,,0 / 18,1408,2022-01-10 16:59:02:535
-1.191027,0.031705,8.959925,-0.763698,0.319203,9.771656,-0.675346,-0.451094,-0.075868,0.093741,-0.333951,-0.162714,97.0,11.475,25.65,-39.375,346.8384,-2.3835,6.5727,5.0,67.92514,48.84391,2.3533595,307.0968,NaN,,37.019352,,0 / 18,1413,2022-01-10 16:59:02:540
-1.191027,0.031705,8.959925,-0.763698,0.319203,9.771656,-0.675346,-0.451094,-0.075868,0.093741,-0.333951,-0.162714,97.0,11.475,25.65,-39.375,346.8384,-2.3835,6.5727,5.0,67.92514,48.84391,2.3533595,307.0968,NaN,,37.019352,,0 / 18,1418,2022-01-10 16:59:02:545
-1.191027,0.031705,8.959925,-0.763698,0.319203,9.771656,-0.675346,-0.451094,-0.075868,0.093741,-0.333951,-0.162714,97.0,11.475,25.65,-39.375,346.8384,-2.3835,6.5727,5.0,67.92514,48.84391,2.3533595,307.0968,NaN,,37.019352,,0 / 18,1423,2022-01-10 16:59:02:550
-1.191027,0.031705,8.959925,-0.763698,0.319203,9.771656,-0.675346,-0.451094,-0.075868,0.093741,-0.333951,-0.162714,97.0,11.475,25.65,-39.375,346.8384,-2.3835,6.5727,5.0,67.92514,48.84391,2.3533595,307.0968,NaN,,37.019352,,0 / 18,1428,2022-01-10 16:59:02:555
-1.191027,0.031705,8.959925,-0.763698,0.319203,9.771656,-0.675346,-0.451094,-0.075868,0.093741,-0.333951,-0.162714,97.0,11.475,25.65,-39.375,346.8384,-2.3835,6.5727,5.0,67.92514,48.84391,2.3533595,307.0968,NaN,,37.019352,,0 / 18,1433,2022-01-10 16:59:02:560
-1.191027,0.031705,8.959925,-0.763698,0.319203,9.771656,-0.675346,-0.451094,-0.075868,0.093741,-0.333951,-0.162714,97.0,11.475,25.65,-39.375,346.8384,-2.3835,6.5727,5.0,67.92514,48.84391,2.3533595,307.0968,NaN,,37.019352,,0 / 18,1438,2022-01-10 16:59:02:565
-1.191027,0.031705,8.959925,-0.763698,0.319203,9.771656,-0.675346,-0.451094,-0.075868,0.093741,-0.333951,-0.162714,97.0,16.875,23.025,-40.65,330.5522,-1.8653,4.4688,5.0,67.92514,48.84391,2.3533595,307.0968,NaN,,37.019352,,0 / 18,1443,2022-01-10 16:59:02:570
-1.191027,0.031705,8.959925,-0.763698,0.319203,9.771656,-0.675346,-0.451094,-0.075868,0.093741,-0.333951,-0.162714,97.0,16.875,23.025,-40.65,330.5522,-1.8653,4.4688,5.0,67.92514,48.84391,2.3533595,307.0968,NaN,,37.019352,,0 / 18,1449,2022-01-10 16:59:02:576
-1.191027,0.031705,8.959925,-0.763698,0.319203,9.771656,-0.675346,-0.451094,-0.075868,0.093741,-0.333951,-0.162714,97.0,16.875,23.025,-40.65,330.5522,-1.8653,4.4688,5.0,67.92514,48.84391,2.3533595,307.0968,NaN,,37.019352,,0 / 18,1452,2022-01-10 16:59:02:579
-1.191027,0.031705,8.959925,-0.763698,0.319203,9.771656,-0.675346,-0.451094,-0.075868,0.093741,-0.333951,-0.162714,97.0,16.875,23.025,-40.65,330.5522,-1.8653,4.4688,5.0,67.92514,48.84391,2.3533595,307.0968,NaN,,37.019352,,0 / 18,1458,2022-01-10 16:59:02:585
-1.191027,0.031705,8.959925,-0.763698,0.319203,9.771656,-0.675346,-0.451094,-0.075868,0.093741,-0.333951,-0.162714,97.0,16.875,23.025,-40.65,330.5522,-1.8653,4.4688,5.0,67.92514,48.84391,2.3533595,307.0968,NaN,,37.019352,,0 / 18,1463,2022-01-10 16:59:02:590
-1.191027,0.031705,8.959925,-0.763698,0.319203,9.771656,-0.675346,-0.451094,-0.075868,0.245137,-0.051397,0.551658,97.0,16.875,23.025,-40.65,330.5522,-1.8653,4.4688,5.0,67.92514,48.84391,2.3533595,307.0968,NaN,,37.019352,,0 / 18,1468,2022-01-10 16:59:02:595
-1.191027,0.031705,8.959925,-0.763698,0.319203,9.771656,-0.675346,-0.451094,-0.075868,0.245137,-0.051397,0.551658,97.0,16.875,23.025,-40.65,330.5522,-1.8653,4.4688,5.0,67.92514,48.84391,2.3533595,307.0968,NaN,,37.019352,,0 / 18,1473,2022-01-10 16:59:02:600
-1.191027,0.031705,8.959925,-0.763698,0.319203,9.771656,-0.675346,-0.451094,-0.075868,0.245137,-0.051397,0.551658,97.0,16.875,23.025,-40.65,330.5522,-1.8653,4.4688,5.0,67.92514,48.84391,2.3533595,307.0968,NaN,,37.019352,,0 / 18,1478,2022-01-10 16:59:02:605
-1.191027,0.031705,8.959925,-0.763698,0.319203,9.771656,-0.675346,-0.451094,-0.075868,0.245137,-0.051397,0.551658,97.0,16.875,23.025,-40.65,330.5522,-1.8653,4.4688,5.0,67.92514,48.84391,2.3533595,307.0968,NaN,,37.019352,,0 / 18,1483,2022-01-10 16:59:02:610
-1.191027,0.031705,8.959925,-0.763698,0.319203,9.771656,-0.675346,-0.451094,-0.075868,0.245137,-0.051397,0.551658,97.0,16.875,23.025,-40.65,330.5522,-1.8653,4.4688,5.0,67.92514,48.84391,2.3533595,307.0968,NaN,,37.019352,,0 / 18,1488,2022-01-10 16:59:02:615
-1.567,0.149252,9.894023,-0.763698,0.319203,9.771656,-0.675346,-0.451094,-0.075868,0.245137,-0.051397,0.551658,97.0,16.875,23.025,-40.65,330.5522,-1.8653,4.4688,5.0,67.92514,48.84391,2.3533595,307.0968,NaN,,37.019352,,0 / 18,1493,2022-01-10 16:59:02:620
-1.567,0.149252,9.894023,-0.763698,0.319203,9.771656,-0.675346,-0.451094,-0.075868,0.245137,-0.051397,0.551658,97.0,16.875,23.025,-40.65,330.5522,-1.8653,4.4688,5.0,67.92514,48.84391,2.3533595,307.0968,NaN,,37.019352,,0 / 18,1498,2022-01-10 16:59:02:625
-1.567,0.149252,9.894023,-0.763698,0.319203,9.771656,-0.675346,-0.451094,-0.075868,0.245137,-0.051397,0.551658,97.0,16.875,23.025,-40.65,330.5522,-1.8653,4.4688,5.0,67.92514,48.84391,2.3533595,307.0968,NaN,,37.019352,,0 / 18,1503,2022-01-10 16:59:02:630
-1.567,0.149252,9.894023,-0.763698,0.319203,9.771656,-0.675346,-0.451094,-0.075868,0.245137,-0.051397,0.551658,97.0,16.875,23.025,-40.65,330.5522,-1.8653,4.4688,5.0,67.92514,48.84391,2.3533595,307.0968,NaN,,37.019352,,0 / 18,1510,2022-01-10 16:59:02:637
-1.567,0.149252,9.894023,-0.458095,0.603677,9.777327,-0.488181,-0.503507,-0.342353,0.245137,-0.051397,0.551658,97.0,16.875,23.025,-40.65,330.5522,-1.8653,4.4688,5.0,67.92514,48.84391,2.3533595,307.0968,NaN,,37.019352,,0 / 18,1519,2022-01-10 16:59:02:646
-1.567,0.149252,9.894023,-0.458095,0.603677,9.777327,-0.488181,-0.503507,-0.342353,0.245137,-0.051397,0.551658,97.0,16.875,23.025,-40.65,330.5522,-1.8653,4.4688,5.0,67.92514,48.84391,2.3533595,307.0968,NaN,,37.019352,,0 / 18,1521,2022-01-10 16:59:02:648
-1.567,0.149252,9.894023,-0.458095,0.603677,9.777327,-0.488181,-0.503507,-0.342353,0.245137,-0.051397,0.551658,97.0,16.875,23.025,-40.65,330.5522,-1.8653,4.4688,5.0,67.92514,48.84391,2.3533595,307.0968,NaN,,37.019352,,0 / 18,1523,2022-01-10 16:59:02:650
-1.567,0.149252,9.894023,-0.458095,0.603677,9.777327,-0.488181,-0.503507,-0.342353,0.245137,-0.051397,0.551658,97.0,16.875,23.025,-40.65,330.5522,-1.8653,4.4688,5.0,67.92514,48.84391,2.3533595,307.0968,NaN,,37.019352,,0 / 18,1528,2022-01-10 16:59:02:655
-1.567,0.149252,9.894023,-0.458095,0.603677,9.777327,-0.488181,-0.503507,-0.342353,0.245137,-0.051397,0.551658,97.0,16.875,23.025,-40.65,330.5522,-1.8653,4.4688,5.0,67.92514,48.84391,2.3533595,307.0968,NaN,,37.019352,,0 / 18,1533,2022-01-10 16:59:02:660
-1.567,0.149252,9.894023,-0.458095,0.603677,9.777327,-0.488181,-0.503507,-0.342353,0.245137,-0.051397,0.551658,97.0,16.875,23.025,-40.65,330.5522,-1.8653,4.4688,5.0,67.92514,48.84391,2.3533595,307.0968,NaN,,37.019352,,0 / 18,1538,2022-01-10 16:59:02:665
-1.567,0.149252,9.894023,-0.458095,0.603677,9.777327,-0.488181,-0.503507,-0.342353,0.245137,-0.051397,0.551658,97.0,16.875,23.025,-40.65,330.5522,-1.8653,4.4688,5.0,67.92514,48.84391,2.3533595,307.0968,NaN,,37.019352,,0 / 18,1543,2022-01-10 16:59:02:670
-1.567,0.149252,9.894023,-0.458095,0.603677,9.777327,-0.488181,-0.503507,-0.342353,0.245137,-0.051397,0.551658,97.0,16.875,23.025,-40.65,330.5522,-1.8653,4.4688,5.0,67.92514,48.84391,2.3533595,307.0968,NaN,,37.019352,,0 / 18,1548,2022-01-10 16:59:02:675
-1.567,0.149252,9.894023,-0.458095,0.603677,9.777327,-0.488181,-0.503507,-0.342353,0.245137,-0.051397,0.551658,97.0,16.875,23.025,-40.65,330.5522,-1.8653,4.4688,5.0,67.92514,48.84391,2.3533595,307.0968,NaN,,37.019352,,0 / 18,1553,2022-01-10 16:59:02:680
-1.567,0.149252,9.894023,-0.458095,0.603677,9.777327,-0.488181,-0.503507,-0.342353,0.245137,-0.051397,0.551658,97.0,16.875,23.025,-40.65,330.5522,-1.8653,4.4688,5.0,67.92514,48.84391,2.3533595,307.0968,NaN,,37.019352,,0 / 18,1558,2022-01-10 16:59:02:685
-1.567,0.149252,9.894023,-0.458095,0.603677,9.777327,-0.488181,-0.503507,-0.342353,0.245137,-0.051397,0.551658,97.0,16.875,23.025,-40.65,330.5522,-1.8653,4.4688,5.0,67.92514,48.84391,2.3533595,307.0968,NaN,,37.019352,,0 / 18,1563,2022-01-10 16:59:02:690
-1.567,0.149252,9.894023,-0.458095,0.603677,9.777327,-0.488181,-0.503507,-0.342353,0.245137,-0.051397,0.551658,97.0,16.875,23.025,-40.65,330.5522,-1.8653,4.4688,5.0,67.92514,48.84391,2.3533595,307.0968,NaN,,37.019352,,0 / 18,1569,2022-01-10 16:59:02:696
-1.567,0.149252,9.894023,-0.458095,0.603677,9.777327,-0.488181,-0.503507,-0.342353,0.245137,-0.051397,0.551658,97.0,16.875,23.025,-40.65,330.5522,-1.8653,4.4688,5.0,67.1033,48.84391,2.3533595,307.0968,NaN,,37.019352,,0 / 18,1573,2022-01-10 16:59:02:700
-1.567,0.149252,9.894023,-0.458095,0.603677,9.777327,-0.488181,-0.503507,-0.342353,0.245137,-0.051397,0.551658,97.0,16.875,23.025,-40.65,330.5522,-1.8653,4.4688,5.0,67.1033,48.84391,2.3533595,307.0968,NaN,,37.019352,,0 / 18,1578,2022-01-10 16:59:02:705
-1.567,0.149252,9.894023,-0.458095,0.603677,9.777327,-0.488181,-0.503507,-0.342353,0.245137,-0.051397,0.551658,97.0,16.875,23.025,-40.65,330.5522,-1.8653,4.4688,5.0,67.1033,48.84391,2.3533595,307.0968,NaN,,37.019352,,0 / 18,1583,2022-01-10 16:59:02:710
-1.567,0.149252,9.894023,-0.458095,0.603677,9.777327,-0.488181,-0.503507,-0.342353,0.245137,-0.051397,0.551658,97.0,16.875,23.025,-40.65,330.5522,-1.8653,4.4688,5.0,67.1033,48.84391,2.3533595,307.0968,NaN,,37.019352,,0 / 18,1588,2022-01-10 16:59:02:715
-1.567,0.149252,9.894023,-0.458095,0.603677,9.777327,-0.488181,-0.503507,-0.342353,0.245137,-0.051397,0.551658,97.0,16.875,23.025,-40.65,330.5522,-1.8653,4.4688,5.0,67.1033,48.84391,2.3533595,307.0968,NaN,,37.019352,,0 / 18,1593,2022-01-10 16:59:02:720
-1.567,0.149252,9.894023,-0.458095,0.603677,9.777327,-0.488181,-0.503507,-0.342353,0.245137,-0.051397,0.551658,97.0,16.875,23.025,-40.65,330.5522,-1.8653,4.4688,5.0,67.1033,48.84391,2.3533595,307.0968,NaN,,37.019352,,0 / 18,1598,2022-01-10 16:59:02:725
-1.567,0.149252,9.894023,-0.458095,0.603677,9.777327,-0.488181,-0.503507,-0.342353,0.245137,-0.051397,0.551658,97.0,16.875,23.025,-40.65,330.5522,-1.8653,4.4688,5.0,67.1033,48.84391,2.3533595,307.0968,NaN,,37.019352,,0 / 18,1603,2022-01-10 16:59:02:730
-1.567,0.149252,9.894023,-0.458095,0.603677,9.777327,-0.488181,-0.503507,-0.342353,0.245137,-0.051397,0.551658,97.0,16.875,23.025,-40.65,330.5522,-1.8653,4.4688,5.0,67.1033,48.84391,2.3533595,307.0968,NaN,,37.019352,,0 / 18,1609,2022-01-10 16:59:02:736
0.712164,0.532403,9.156435,-0.458095,0.603677,9.777327,-0.488181,-0.503507,-0.342353,0.579087,-0.103061,-0.295602,97.0,16.875,23.025,-40.65,330.5522,-1.8653,4.4688,5.0,67.1033,48.84391,2.3533595,307.0968,NaN,,37.019352,,0 / 18,1613,2022-01-10 16:59:02:740
0.712164,0.532403,9.156435,-0.458095,0.603677,9.777327,-0.488181,-0.503507,-0.342353,0.579087,-0.103061,-0.295602,97.0,16.875,23.025,-40.65,330.5522,-1.8653,4.4688,5.0,67.1033,48.84391,2.3533595,307.0968,NaN,,37.019352,,0 / 18,1618,2022-01-10 16:59:02:745
0.712164,0.532403,9.156435,-0.458095,0.603677,9.777327,-0.488181,-0.503507,-0.342353,0.579087,-0.103061,-0.295602,97.0,16.875,23.025,-40.65,330.5522,-1.8653,4.4688,5.0,67.1033,48.84391,2.3533595,307.0968,NaN,,37.019352,,0 / 18,1623,2022-01-10 16:59:02:750
0.712164,0.532403,9.156435,-0.458095,0.603677,9.777327,-0.488181,-0.503507,-0.342353,0.579087,-0.103061,-0.295602,97.0,16.875,23.025,-40.65,330.5522,-1.8653,4.4688,5.0,67.1033,48.84391,2.3533595,307.0968,NaN,,37.019352,,0 / 18,1629,2022-01-10 16:59:02:756
0.712164,0.532403,9.156435,-0.305045,1.305304,9.714603,0.052275,-0.638996,-0.829206,0.579087,-0.103061,-0.295602,97.0,16.875,23.025,-40.65,330.5522,-1.8653,4.4688,5.0,67.1033,48.84391,2.3533595,307.0968,NaN,,37.019352,,0 / 18,1633,2022-01-10 16:59:02:760
0.712164,0.532403,9.156435,-0.305045,1.305304,9.714603,0.052275,-0.638996,-0.829206,0.579087,-0.103061,-0.295602,97.0,16.875,23.025,-40.8,326.6191,-7.649,1.7985,5.0,67.1033,48.84391,2.3533595,307.0968,NaN,,37.019352,,0 / 18,1638,2022-01-10 16:59:02:765
0.712164,0.532403,9.156435,-0.305045,1.305304,9.714603,0.052275,-0.638996,-0.829206,0.579087,-0.103061,-0.295602,97.0,17.775,19.65,-40.8,326.6191,-7.649,1.7985,5.0,67.1033,48.84391,2.3533595,307.0968,NaN,,37.019352,,0 / 18,1643,2022-01-10 16:59:02:770
0.712164,0.532403,9.156435,-0.305045,1.305304,9.714603,0.052275,-0.638996,-0.829206,0.579087,-0.103061,-0.295602,97.0,17.775,19.65,-40.8,326.6191,-7.649,1.7985,5.0,67.1033,48.84391,2.3533595,307.0968,NaN,,37.019352,,0 / 18,1650,2022-01-10 16:59:02:777
0.712164,0.532403,9.156435,-0.305045,1.305304,9.714603,0.052275,-0.638996,-0.829206,0.579087,-0.103061,-0.295602,97.0,17.775,19.65,-40.8,326.6191,-7.649,1.7985,5.0,67.1033,48.84391,2.3533595,307.0968,NaN,,37.019352,,0 / 18,1652,2022-01-10 16:59:02:779
0.712164,0.532403,9.156435,-0.305045,1.305304,9.714603,0.052275,-0.638996,-0.829206,0.579087,-0.103061,-0.295602,97.0,17.775,19.65,-40.8,326.6191,-7.649,1.7985,5.0,67.1033,48.84391,2.3533595,307.0968,NaN,,37.019352,,0 / 18,1658,2022-01-10 16:59:02:785
0.712164,0.532403,9.156435,-0.305045,1.305304,9.714603,0.052275,-0.638996,-0.829206,0.579087,-0.103061,-0.295602,97.0,17.775,19.65,-40.8,326.6191,-7.649,1.7985,5.0,67.1033,48.84391,2.3533595,307.0968,NaN,,37.019352,,0 / 18,1663,2022-01-10 16:59:02:790
0.712164,0.532403,9.156435,-0.305045,1.305304,9.714603,0.052275,-0.638996,-0.829206,0.579087,-0.103061,-0.295602,97.0,17.775,19.65,-40.8,326.6191,-7.649,1.7985,5.0,67.1033,48.84391,2.3533595,307.0968,NaN,,37.019352,,0 / 18,1668,2022-01-10 16:59:02:795
0.712164,0.532403,9.156435,-0.305045,1.305304,9.714603,0.052275,-0.638996,-0.829206,0.579087,-0.103061,-0.295602,97.0,17.775,19.65,-40.8,326.6191,-7.649,1.7985,5.0,67.1033,48.84391,2.3533595,307.0968,NaN,,37.019352,,0 / 18,1673,2022-01-10 16:59:02:800
0.712164,0.532403,9.156435,-0.305045,1.305304,9.714603,0.052275,-0.638996,-0.829206,0.579087,-0.103061,-0.295602,97.0,17.775,19.65,-40.8,326.6191,-7.649,1.7985,5.0,67.1033,48.84391,2.3533595,307.0968,NaN,,37.019352,,0 / 18,1678,2022-01-10 16:59:02:805
0.712164,0.532403,9.156435,-0.305045,1.305304,9.714603,0.052275,-0.638996,-0.829206,0.579087,-0.103061,-0.295602,97.0,17.775,19.65,-40.8,326.6191,-7.649,1.7985,5.0,67.1033,48.84391,2.3533595,307.0968,NaN,,37.019352,,0 / 18,1683,2022-01-10 16:59:02:810
0.712164,0.532403,9.156435,-0.305045,1.305304,9.714603,0.052275,-0.638996,-0.829206,0.579087,-0.103061,-0.295602,97.0,17.775,19.65,-40.8,326.6191,-7.649,1.7985,5.0,67.1033,48.84391,2.3533595,307.0968,NaN,,37.019352,,0 / 18,1688,2022-01-10 16:59:02:815
0.712164,0.532403,9.156435,-0.305045,1.305304,9.714603,0.052275,-0.638996,-0.829206,0.579087,-0.103061,-0.295602,97.0,17.775,19.65,-40.8,326.6191,-7.649,1.7985,5.0,67.1033,48.84391,2.3533595,307.0968,NaN,,37.019352,,0 / 18,1694,2022-01-10 16:59:02:821
0.594916,1.209273,10.434202,-0.305045,1.305304,9.714603,0.052275,-0.638996,-0.829206,0.579087,-0.103061,-0.295602,289.0,17.775,19.65,-40.8,326.6191,-7.649,1.7985,5.0,67.1033,48.84391,2.3533595,307.0968,NaN,,37.019352,,0 / 18,1698,2022-01-10 16:59:02:825
0.594916,1.209273,10.434202,-0.305045,1.305304,9.714603,0.052275,-0.638996,-0.829206,0.579087,-0.103061,-0.295602,289.0,17.775,19.65,-40.8,326.6191,-7.649,1.7985,5.0,67.1033,48.84391,2.3533595,307.0968,NaN,,37.019352,,0 / 18,1703,2022-01-10 16:59:02:830
0.594916,1.209273,10.434202,-0.305045,1.305304,9.714603,0.052275,-0.638996,-0.829206,0.579087,-0.103061,-0.295602,289.0,17.775,19.65,-40.8,326.6191,-7.649,1.7985,5.0,67.1033,48.84391,2.3533595,307.0968,NaN,,37.019352,,0 / 18,1708,2022-01-10 16:59:02:835
0.594916,1.209273,10.434202,-0.305045,1.305304,9.714603,0.052275,-0.638996,-0.829206,0.579087,-0.103061,-0.295602,289.0,17.775,19.65,-40.8,326.6191,-7.649,1.7985,5.0,67.1033,48.84391,2.3533595,307.0968,NaN,,37.019352,,0 / 18,1714,2022-01-10 16:59:02:841
0.594916,1.209273,10.434202,-0.305045,1.305304,9.714603,0.052275,-0.638996,-0.829206,0.579087,-0.103061,-0.295602,289.0,17.775,19.65,-40.8,326.6191,-7.649,1.7985,5.0,67.1033,48.84391,2.3533595,307.0968,NaN,,37.019352,,0 / 18,1718,2022-01-10 16:59:02:845
0.594916,1.209273,10.434202,-0.305045,1.305304,9.714603,0.052275,-0.638996,-0.829206,0.579087,-0.103061,-0.295602,289.0,17.775,19.65,-40.8,326.6191,-7.649,1.7985,5.0,67.1033,48.84391,2.3533595,307.0968,NaN,,37.019352,,0 / 18,1723,2022-01-10 16:59:02:850
0.594916,1.209273,10.434202,-0.305045,1.305304,9.714603,0.052275,-0.638996,-0.829206,0.579087,-0.103061,-0.295602,289.0,17.775,19.65,-40.8,326.6191,-7.649,1.7985,5.0,67.1033,48.84391,2.3533595,307.0968,NaN,,37.019352,,0 / 18,1728,2022-01-10 16:59:02:855
0.594916,1.209273,10.434202,-0.305045,1.305304,9.714603,0.052275,-0.638996,-0.829206,0.579087,-0.103061,-0.295602,289.0,17.775,19.65,-40.8,326.6191,-7.649,1.7985,5.0,67.1033,48.84391,2.3533595,307.0968,NaN,,37.019352,,0 / 18,1733,2022-01-10 16:59:02:860
0.594916,1.209273,10.434202,-0.305045,1.305304,9.714603,0.052275,-0.638996,-0.829206,0.579087,-0.103061,-0.295602,289.0,17.775,19.65,-40.8,326.6191,-7.649,1.7985,5.0,67.1033,48.84391,2.3533595,307.0968,NaN,,37.019352,,0 / 18,1739,2022-01-10 16:59:02:866
0.594916,1.209273,10.434202,-0.305045,1.305304,9.714603,0.052275,-0.638996,-0.829206,0.579087,-0.103061,-0.295602,289.0,17.775,19.65,-40.8,326.6191,-7.649,1.7985,5.0,67.1033,48.84391,2.3533595,307.0968,NaN,,37.019352,,0 / 18,1743,2022-01-10 16:59:02:870
0.594916,1.209273,10.434202,-0.305045,1.305304,9.714603,0.052275,-0.638996,-0.829206,0.579087,-0.103061,-0.295602,289.0,17.775,19.65,-40.8,326.6191,-7.649,1.7985,5.0,67.1033,48.84391,2.3533595,307.0968,NaN,,37.019352,,0 / 18,1748,2022-01-10 16:59:02:875
0.594916,1.209273,10.434202,-0.305045,1.305304,9.714603,0.052275,-0.638996,-0.829206,0.579087,-0.103061,-0.295602,289.0,17.775,19.65,-40.8,326.6191,-7.649,1.7985,5.0,67.1033,48.84391,2.3533595,307.0968,NaN,,37.019352,,0 / 18,1754,2022-01-10 16:59:02:881
0.594916,1.209273,10.434202,-0.305045,1.305304,9.714603,0.052275,-0.638996,-0.829206,0.579087,-0.103061,-0.295602,289.0,17.775,19.65,-40.8,326.6191,-7.649,1.7985,5.0,67.1033,48.84391,2.3533595,307.0968,NaN,,37.019352,,0 / 18,1758,2022-01-10 16:59:02:885
0.594916,1.209273,10.434202,-0.305045,1.305304,9.714603,0.052275,-0.638996,-0.829206,0.579087,-0.103061,-0.295602,289.0,17.775,19.65,-40.8,326.6191,-7.649,1.7985,5.0,67.1033,48.84391,2.3533595,307.0968,NaN,,37.019352,,0 / 18,1763,2022-01-10 16:59:02:890
0.594916,1.209273,10.434202,-0.886369,1.379125,9.668649,1.372675,-0.401528,0.490055,-0.153394,0.442738,-1.334204,289.0,18.0,17.7,-40.5,324.2374,-7.649,1.7985,5.0,67.1033,48.84391,2.3533595,307.0968,NaN,,37.019352,,0 / 18,1768,2022-01-10 16:59:02:895
0.594916,1.209273,10.434202,-0.886369,1.379125,9.668649,1.372675,-0.401528,0.490055,-0.153394,0.442738,-1.334204,289.0,18.0,17.7,-40.5,324.2374,-7.649,1.7985,5.0,67.1033,48.84391,2.3533595,307.0968,NaN,,37.019352,,0 / 18,1773,2022-01-10 16:59:02:900
0.594916,1.209273,10.434202,-0.886369,1.379125,9.668649,1.372675,-0.401528,0.490055,-0.153394,0.442738,-1.334204,289.0,18.0,17.7,-40.5,324.2374,-7.649,1.7985,5.0,67.1033,48.84391,2.3533595,307.0968,NaN,,37.019352,,0 / 18,1778,2022-01-10 16:59:02:905
0.594916,1.209273,10.434202,-0.886369,1.379125,9.668649,1.372675,-0.401528,0.490055,-0.153394,0.442738,-1.334204,289.0,18.0,17.7,-40.5,324.2374,-7.649,1.7985,5.0,67.1033,48.84391,2.3533595,307.0968,NaN,,37.019352,,0 / 18,1783,2022-01-10 16:59:02:910
0.594916,1.209273,10.434202,-0.886369,1.379125,9.668649,1.372675,-0.401528,0.490055,-0.153394,0.442738,-1.334204,289.0,18.0,17.7,-40.5,324.2374,-7.649,1.7985,5.0,67.1033,48.84391,2.3533595,307.0968,NaN,,37.019352,,0 / 18,1788,2022-01-10 16:59:02:915
0.594916,1.209273,10.434202,-0.886369,1.379125,9.668649,1.372675,-0.401528,0.490055,-0.153394,0.442738,-1.334204,289.0,18.0,17.7,-40.5,324.2374,-7.649,1.7985,5.0,67.1033,48.84391,2.3533595,307.0968,NaN,,37.019352,,0 / 18,1793,2022-01-10 16:59:02:920
0.594916,1.209273,10.434202,-0.886369,1.379125,9.668649,1.372675,-0.401528,0.490055,-0.153394,0.442738,-1.334204,289.0,18.0,17.7,-40.5,324.2374,-7.649,1.7985,5.0,67.1033,48.84391,2.3533595,307.0968,NaN,,37.019352,,0 / 18,1799,2022-01-10 16:59:02:926
0.553041,1.361217,9.602996,-0.886369,1.379125,9.668649,1.372675,-0.401528,0.490055,-0.153394,0.442738,-1.334204,289.0,18.0,17.7,-40.5,324.2374,-7.649,1.7985,5.0,67.1033,48.84391,2.3533595,307.0968,NaN,,37.019352,,0 / 18,1803,2022-01-10 16:59:02:930
0.553041,1.361217,9.602996,-0.886369,1.379125,9.668649,1.372675,-0.401528,0.490055,-0.153394,0.442738,-1.334204,289.0,18.0,17.7,-40.5,324.2374,-7.649,1.7985,5.0,67.1033,48.84391,2.3533595,307.0968,NaN,,37.019352,,0 / 18,1809,2022-01-10 16:59:02:936
0.553041,1.361217,9.602996,-0.886369,1.379125,9.668649,1.372675,-0.401528,0.490055,-0.153394,0.442738,-1.334204,289.0,18.0,17.7,-40.5,324.2374,-7.649,1.7985,5.0,67.1033,48.84391,2.3533595,307.0968,NaN,,37.019352,,0 / 18,1813,2022-01-10 16:59:02:940
0.553041,1.361217,9.602996,-0.886369,1.379125,9.668649,1.372675,-0.401528,0.490055,-0.153394,0.442738,-1.334204,289.0,18.0,17.7,-40.5,324.2374,-7.649,1.7985,5.0,67.1033,48.84391,2.3533595,307.0968,NaN,,37.019352,,0 / 18,1818,2022-01-10 16:59:02:945
0.553041,1.361217,9.602996,-0.886369,1.379125,9.668649,1.372675,-0.401528,0.490055,-0.153394,0.442738,-1.334204,289.0,18.0,17.7,-40.5,324.2374,-7.649,1.7985,5.0,67.1033,48.84391,2.3533595,307.0968,NaN,,37.019352,,0 / 18,1823,2022-01-10 16:59:02:950
0.553041,1.361217,9.602996,-0.886369,1.379125,9.668649,1.372675,-0.401528,0.490055,-0.153394,0.442738,-1.334204,289.0,18.0,17.7,-40.5,324.2374,-7.649,1.7985,5.0,67.1033,48.84391,2.3533595,307.0968,NaN,,37.019352,,0 / 18,1829,2022-01-10 16:59:02:956
0.553041,1.361217,9.602996,-0.886369,1.379125,9.668649,1.372675,-0.401528,0.490055,-0.153394,0.442738,-1.334204,289.0,18.0,17.7,-40.5,324.2374,-7.649,1.7985,5.0,67.1033,48.84391,2.3533595,307.0968,NaN,,37.019352,,0 / 18,1833,2022-01-10 16:59:02:960
0.553041,1.361217,9.602996,-0.886369,1.379125,9.668649,1.372675,-0.401528,0.490055,-0.153394,0.442738,-1.334204,289.0,18.0,17.7,-40.5,324.2374,-7.649,1.7985,5.0,67.1033,48.84391,2.3533595,307.0968,NaN,,37.019352,,0 / 18,1838,2022-01-10 16:59:02:965
0.553041,1.361217,9.602996,-0.886369,1.379125,9.668649,1.372675,-0.401528,0.490055,-0.153394,0.442738,-1.334204,289.0,18.0,17.7,-40.5,324.2374,-7.649,1.7985,5.0,67.1033,48.84391,2.3533595,307.0968,NaN,,37.019352,,0 / 18,1843,2022-01-10 16:59:02:970
0.553041,1.361217,9.602996,-0.886369,1.379125,9.668649,1.372675,-0.401528,0.490055,-0.153394,0.442738,-1.334204,289.0,18.0,17.7,-40.5,324.2374,-7.649,1.7985,5.0,67.1033,48.84391,2.3533595,307.0968,NaN,,37.019352,,0 / 18,1848,2022-01-10 16:59:02:975
0.553041,1.361217,9.602996,-0.886369,1.379125,9.668649,1.372675,-0.401528,0.490055,-0.153394,0.442738,-1.334204,289.0,18.0,17.7,-40.5,324.2374,-7.649,1.7985,5.0,67.1033,48.84391,2.3533595,307.0968,NaN,,37.019352,,0 / 18,1853,2022-01-10 16:59:02:980
0.553041,1.361217,9.602996,-0.886369,1.379125,9.668649,1.372675,-0.401528,0.490055,-0.153394,0.442738,-1.334204,289.0,18.0,17.7,-40.5,324.2374,-7.649,1.7985,5.0,67.1033,48.84391,2.3533595,307.0968,NaN,,37.019352,,0 / 18,1858,2022-01-10 16:59:02:985
0.553041,1.361217,9.602996,-0.886369,1.379125,9.668649,1.372675,-0.401528,0.490055,-0.153394,0.442738,-1.334204,289.0,18.0,17.7,-40.5,324.2374,-7.649,1.7985,5.0,67.1033,48.84391,2.3533595,307.0968,NaN,,37.019352,,0 / 18,1863,2022-01-10 16:59:02:990
0.553041,1.361217,9.602996,-0.886369,1.379125,9.668649,1.372675,-0.401528,0.490055,-0.153394,0.442738,-1.334204,289.0,18.0,17.7,-40.5,324.2374,-7.649,1.7985,5.0,67.1033,48.84391,2.3533595,307.0968,NaN,,37.019352,,0 / 18,1869,2022-01-10 16:59:02:996
0.553041,1.361217,9.602996,-1.052319,1.502039,9.633634,2.008005,-0.307941,-0.149138,-0.153394,0.442738,-1.334204,289.0,18.0,17.7,-40.5,324.2374,-7.649,1.7985,5.0,67.1033,48.84391,2.3533595,307.0968,NaN,,37.019352,,0 / 18,1873,2022-01-10 16:59:03:000
0.553041,1.361217,9.602996,-1.052319,1.502039,9.633634,2.008005,-0.307941,-0.149138,-0.153394,0.442738,-1.334204,289.0,18.0,17.7,-40.5,324.2374,-7.649,1.7985,5.0,67.1033,48.84391,2.3533595,307.0968,NaN,,37.019352,,0 / 18,1879,2022-01-10 16:59:03:006
0.553041,1.361217,9.602996,-1.052319,1.502039,9.633634,2.008005,-0.307941,-0.149138,-0.153394,0.442738,-1.334204,289.0,18.0,17.7,-40.5,324.2374,-7.649,1.7985,5.0,67.1033,48.84391,2.3533595,307.0968,NaN,,37.019352,,0 / 18,1882,2022-01-10 16:59:03:009
0.553041,1.361217,9.602996,-1.052319,1.502039,9.633634,2.008005,-0.307941,-0.149138,-0.153394,0.442738,-1.334204,289.0,18.0,17.7,-40.5,324.2374,-7.649,1.7985,5.0,67.1033,48.84391,2.3533595,307.0968,NaN,,37.019352,,0 / 18,1888,2022-01-10 16:59:03:015
0.553041,1.361217,9.602996,-1.052319,1.502039,9.633634,2.008005,-0.307941,-0.149138,-0.153394,0.442738,-1.334204,289.0,16.5,7.05,-49.35,321.6995,-8.8104,6.2339,5.0,67.1033,48.84391,2.3533595,307.0968,NaN,,37.019352,,0 / 18,1893,2022-01-10 16:59:03:020
0.553041,1.361217,9.602996,-1.052319,1.502039,9.633634,2.008005,-0.307941,-0.149138,-0.153394,0.442738,-1.334204,289.0,16.5,7.05,-49.35,321.6995,-8.8104,6.2339,5.0,67.1033,48.84391,2.3533595,307.0968,NaN,,37.019352,,0 / 18,1900,2022-01-10 16:59:03:027
0.553041,1.361217,9.602996,-1.052319,1.502039,9.633634,2.008005,-0.307941,-0.149138,-0.153394,0.442738,-1.334204,289.0,16.5,7.05,-49.35,321.6995,-8.8104,6.2339,5.0,67.1033,48.84391,2.3533595,307.0968,NaN,,37.019352,,0 / 18,1903,2022-01-10 16:59:03:030
0.553041,1.361217,9.602996,-1.052319,1.502039,9.633634,2.008005,-0.307941,-0.149138,-0.153394,0.442738,-1.334204,289.0,16.5,7.05,-49.35,321.6995,-8.8104,6.2339,5.0,67.1033,48.84391,2.3533595,307.0968,NaN,,37.019352,,0 / 18,1908,2022-01-10 16:59:03:035
0.553041,1.361217,9.602996,-1.052319,1.502039,9.633634,2.008005,-0.307941,-0.149138,-0.153394,0.442738,-1.334204,289.0,16.5,7.05,-49.35,321.6995,-8.8104,6.2339,5.0,60.3584,48.84391,2.3533595,307.0968,NaN,,37.019352,,0 / 18,1914,2022-01-10 16:59:03:041
0.553041,1.361217,9.602996,-1.052319,1.502039,9.633634,2.008005,-0.307941,-0.149138,-0.153394,0.442738,-1.334204,289.0,16.5,7.05,-49.35,321.6995,-8.8104,6.2339,5.0,60.3584,48.84391,2.3533595,307.0968,NaN,,37.019352,,0 / 18,1919,2022-01-10 16:59:03:046
0.553041,1.361217,9.602996,-1.052319,1.502039,9.633634,2.008005,-0.307941,-0.149138,-0.153394,0.442738,-1.334204,289.0,16.5,7.05,-49.35,321.6995,-8.8104,6.2339,5.0,60.3584,48.84391,2.3533595,307.0968,NaN,,37.019352,,0 / 18,1923,2022-01-10 16:59:03:050
0.553041,1.361217,9.602996,-1.052319,1.502039,9.633634,2.008005,-0.307941,-0.149138,-0.153394,0.442738,-1.334204,289.0,16.5,7.05,-49.35,321.6995,-8.8104,6.2339,5.0,60.3584,48.84391,2.3533595,307.0968,NaN,,37.019352,,0 / 18,1929,2022-01-10 16:59:03:056
0.361316,1.221237,8.761021,-1.052319,1.502039,9.633634,2.008005,-0.307941,-0.149138,0.081357,-0.287347,-1.432738,289.0,16.5,7.05,-49.35,321.6995,-8.8104,6.2339,5.0,60.3584,48.84391,2.3533595,307.0968,NaN,,37.019352,,0 / 18,1934,2022-01-10 16:59:03:061
0.361316,1.221237,8.761021,-1.052319,1.502039,9.633634,2.008005,-0.307941,-0.149138,0.081357,-0.287347,-1.432738,289.0,16.5,7.05,-49.35,321.6995,-8.8104,6.2339,5.0,60.3584,48.84391,2.3533595,307.0968,NaN,,37.019352,,0 / 18,1938,2022-01-10 16:59:03:065
0.361316,1.221237,8.761021,-1.052319,1.502039,9.633634,2.008005,-0.307941,-0.149138,0.081357,-0.287347,-1.432738,289.0,16.5,7.05,-49.35,321.6995,-8.8104,6.2339,5.0,60.3584,48.84391,2.3533595,307.0968,NaN,,37.019352,,0 / 18,1943,2022-01-10 16:59:03:070
0.361316,1.221237,8.761021,-1.052319,1.502039,9.633634,2.008005,-0.307941,-0.149138,0.081357,-0.287347,-1.432738,289.0,16.5,7.05,-49.35,321.6995,-8.8104,6.2339,5.0,60.3584,48.84391,2.3533595,307.0968,NaN,,37.019352,,0 / 18,1948,2022-01-10 16:59:03:075
0.361316,1.221237,8.761021,-1.052319,1.502039,9.633634,2.008005,-0.307941,-0.149138,0.081357,-0.287347,-1.432738,289.0,16.5,7.05,-49.35,321.6995,-8.8104,6.2339,5.0,60.3584,48.84391,2.3533595,307.0968,NaN,,37.019352,,0 / 18,1953,2022-01-10 16:59:03:080
0.361316,1.221237,8.761021,-1.052319,1.502039,9.633634,2.008005,-0.307941,-0.149138,0.081357,-0.287347,-1.432738,289.0,16.5,7.05,-49.35,321.6995,-8.8104,6.2339,5.0,60.3584,48.84391,2.3533595,307.0968,NaN,,37.019352,,0 / 18,1958,2022-01-10 16:59:03:085
0.361316,1.221237,8.761021,-1.052319,1.502039,9.633634,2.008005,-0.307941,-0.149138,0.081357,-0.287347,-1.432738,289.0,16.5,7.05,-49.35,321.6995,-8.8104,6.2339,5.0,60.3584,48.84391,2.3533595,307.0968,NaN,,37.019352,,0 / 18,1963,2022-01-10 16:59:03:090
0.361316,1.221237,8.761021,-1.052319,1.502039,9.633634,2.008005,-0.307941,-0.149138,0.081357,-0.287347,-1.432738,289.0,16.5,7.05,-49.35,321.6995,-8.8104,6.2339,5.0,60.3584,48.84391,2.3533595,307.0968,NaN,,37.019352,,0 / 18,1968,2022-01-10 16:59:03:095
0.361316,1.221237,8.761021,-1.052319,1.502039,9.633634,2.008005,-0.307941,-0.149138,0.081357,-0.287347,-1.432738,289.0,16.5,7.05,-49.35,321.6995,-8.8104,6.2339,5.0,60.3584,48.84391,2.3533595,307.0968,NaN,,37.019352,,0 / 18,1974,2022-01-10 16:59:03:101
0.361316,1.221237,8.761021,-1.052319,1.502039,9.633634,2.008005,-0.307941,-0.149138,0.081357,-0.287347,-1.432738,289.0,16.5,7.05,-49.35,321.6995,-8.8104,6.2339,5.0,60.3584,48.84391,2.3533595,307.0968,NaN,,37.019352,,0 / 18,1978,2022-01-10 16:59:03:105
0.361316,1.221237,8.761021,-1.052319,1.502039,9.633634,2.008005,-0.307941,-0.149138,0.081357,-0.287347,-1.432738,130.0,16.5,7.05,-49.35,321.6995,-8.8104,6.2339,5.0,60.3584,48.84391,2.3533595,307.0968,NaN,,37.019352,,0 / 18,1983,2022-01-10 16:59:03:110
0.361316,1.221237,8.761021,-1.052319,1.502039,9.633634,2.008005,-0.307941,-0.149138,0.081357,-0.287347,-1.432738,130.0,16.5,7.05,-49.35,321.6995,-8.8104,6.2339,5.0,60.3584,48.84391,2.3533595,307.0968,NaN,,37.019352,,0 / 18,1988,2022-01-10 16:59:03:115
0.361316,1.221237,8.761021,-1.052319,1.502039,9.633634,2.008005,-0.307941,-0.149138,0.081357,-0.287347,-1.432738,130.0,16.5,7.05,-49.35,321.6995,-8.8104,6.2339,5.0,60.3584,48.84391,2.3533595,307.0968,NaN,,37.019352,,0 / 18,1993,2022-01-10 16:59:03:120
0.361316,1.221237,8.761021,-1.041134,1.421531,9.647057,1.413284,0.030427,-0.676735,0.081357,-0.287347,-1.432738,130.0,16.5,7.05,-49.35,321.6995,-8.8104,6.2339,5.0,60.3584,48.84391,2.3533595,307.0968,NaN,,37.019352,,0 / 18,1998,2022-01-10 16:59:03:125
0.361316,1.221237,8.761021,-1.041134,1.421531,9.647057,1.413284,0.030427,-0.676735,0.081357,-0.287347,-1.432738,130.0,16.5,7.05,-49.35,321.6995,-8.8104,6.2339,5.0,60.3584,48.84391,2.3533595,307.0968,NaN,,37.019352,,0 / 18,2003,2022-01-10 16:59:03:130
0.361316,1.221237,8.761021,-1.041134,1.421531,9.647057,1.413284,0.030427,-0.676735,0.081357,-0.287347,-1.432738,130.0,16.5,7.05,-49.35,321.6995,-8.8104,6.2339,5.0,60.3584,48.84391,2.3533595,307.0968,NaN,,37.019352,,0 / 18,2008,2022-01-10 16:59:03:135
0.361316,1.221237,8.761021,-1.041134,1.421531,9.647057,1.413284,0.030427,-0.676735,0.081357,-0.287347,-1.432738,130.0,16.5,7.05,-49.35,321.6995,-8.8104,6.2339,5.0,60.3584,48.84391,2.3533595,307.0968,NaN,,37.019352,,0 / 18,2013,2022-01-10 16:59:03:140
0.361316,1.221237,8.761021,-1.041134,1.421531,9.647057,1.413284,0.030427,-0.676735,0.081357,-0.287347,-1.432738,130.0,16.5,7.05,-49.35,321.6995,-8.8104,6.2339,5.0,60.3584,48.84391,2.3533595,307.0968,NaN,,37.019352,,0 / 18,2018,2022-01-10 16:59:03:145
0.361316,1.221237,8.761021,-1.041134,1.421531,9.647057,1.413284,0.030427,-0.676735,0.081357,-0.287347,-1.432738,130.0,16.5,7.05,-49.35,321.6995,-8.8104,6.2339,5.0,60.3584,48.84391,2.3533595,307.0968,NaN,,37.019352,,0 / 18,2022,2022-01-10 16:59:03:149
0.361316,1.221237,8.761021,-1.041134,1.421531,9.647057,1.413284,0.030427,-0.676735,0.081357,-0.287347,-1.432738,130.0,16.5,7.05,-49.35,321.6995,-8.8104,6.2339,5.0,60.3584,48.84391,2.3533595,307.0968,NaN,,37.019352,,0 / 18,2028,2022-01-10 16:59:03:155
0.361316,1.221237,8.761021,-1.041134,1.421531,9.647057,1.413284,0.030427,-0.676735,0.081357,-0.287347,-1.432738,130.0,16.5,7.05,-49.35,321.6995,-8.8104,6.2339,5.0,60.3584,48.84391,2.3533595,307.0968,NaN,,37.019352,,0 / 18,2033,2022-01-10 16:59:03:160
0.361316,1.221237,8.761021,-1.041134,1.421531,9.647057,1.413284,0.030427,-0.676735,0.081357,-0.287347,-1.432738,130.0,16.5,7.05,-49.35,321.6995,-8.8104,6.2339,5.0,60.3584,48.84391,2.3533595,307.0968,NaN,,37.019352,,0 / 18,2038,2022-01-10 16:59:03:165
1.114756,1.459622,9.001799,-1.041134,1.421531,9.647057,1.413284,0.030427,-0.676735,0.081357,-0.287347,-1.432738,130.0,13.875,-1.65,-51.375,303.4908,-8.3347,6.1597,5.0,60.3584,48.84391,2.3533595,307.0968,NaN,,37.019352,,0 / 18,2043,2022-01-10 16:59:03:170
1.114756,1.459622,9.001799,-1.041134,1.421531,9.647057,1.413284,0.030427,-0.676735,0.081357,-0.287347,-1.432738,130.0,13.875,-1.65,-51.375,303.4908,-8.3347,6.1597,5.0,60.3584,48.84391,2.3533595,307.0968,NaN,,37.019352,,0 / 18,2048,2022-01-10 16:59:03:175
1.114756,1.459622,9.001799,-1.041134,1.421531,9.647057,1.413284,0.030427,-0.676735,0.081357,-0.287347,-1.432738,130.0,13.875,-1.65,-51.375,303.4908,-8.3347,6.1597,5.0,60.3584,48.84391,2.3533595,307.0968,NaN,,37.019352,,0 / 18,2053,2022-01-10 16:59:03:180
1.114756,1.459622,9.001799,-1.041134,1.421531,9.647057,1.413284,0.030427,-0.676735,0.081357,-0.287347,-1.432738,130.0,13.875,-1.65,-51.375,303.4908,-8.3347,6.1597,5.0,60.3584,48.84391,2.3533595,307.0968,NaN,,37.019352,,0 / 18,2059,2022-01-10 16:59:03:186
1.114756,1.459622,9.001799,-1.041134,1.421531,9.647057,1.413284,0.030427,-0.676735,0.081357,-0.287347,-1.432738,130.0,13.875,-1.65,-51.375,303.4908,-8.3347,6.1597,5.0,60.3584,48.84391,2.3533595,307.0968,NaN,,37.019352,,0 / 18,2063,2022-01-10 16:59:03:190
1.114756,1.459622,9.001799,-1.041134,1.421531,9.647057,1.413284,0.030427,-0.676735,0.440607,0.048468,-1.348052,130.0,13.875,-1.65,-51.375,303.4908,-8.3347,6.1597,5.0,60.3584,48.84391,2.3533595,307.0968,NaN,,37.019352,,0 / 18,2068,2022-01-10 16:59:03:195
1.114756,1.459622,9.001799,-1.041134,1.421531,9.647057,1.413284,0.030427,-0.676735,0.440607,0.048468,-1.348052,130.0,13.875,-1.65,-51.375,303.4908,-8.3347,6.1597,5.0,60.3584,48.84391,2.3533595,307.0968,NaN,,37.019352,,0 / 18,2073,2022-01-10 16:59:03:200
1.114756,1.459622,9.001799,-1.041134,1.421531,9.647057,1.413284,0.030427,-0.676735,0.440607,0.048468,-1.348052,130.0,13.875,-1.65,-51.375,303.4908,-8.3347,6.1597,5.0,60.3584,48.84391,2.3533595,307.0968,NaN,,37.019352,,0 / 18,2078,2022-01-10 16:59:03:205
1.114756,1.459622,9.001799,-1.041134,1.421531,9.647057,1.413284,0.030427,-0.676735,0.440607,0.048468,-1.348052,130.0,13.875,-1.65,-51.375,303.4908,-8.3347,6.1597,5.0,60.3584,48.84391,2.3533595,307.0968,NaN,,37.019352,,0 / 18,2083,2022-01-10 16:59:03:210
1.114756,1.459622,9.001799,-1.041134,1.421531,9.647057,1.413284,0.030427,-0.676735,0.440607,0.048468,-1.348052,130.0,13.875,-1.65,-51.375,303.4908,-8.3347,6.1597,5.0,60.3584,48.84391,2.3533595,307.0968,NaN,,37.019352,,0 / 18,2088,2022-01-10 16:59:03:215
1.114756,1.459622,9.001799,-1.041134,1.421531,9.647057,1.413284,0.030427,-0.676735,0.440607,0.048468,-1.348052,130.0,13.875,-1.65,-51.375,303.4908,-8.3347,6.1597,5.0,60.3584,48.84391,2.3533595,307.0968,NaN,,37.019352,,0 / 18,2093,2022-01-10 16:59:03:220
1.114756,1.459622,9.001799,-1.041134,1.421531,9.647057,1.413284,0.030427,-0.676735,0.440607,0.048468,-1.348052,130.0,13.875,-1.65,-51.375,303.4908,-8.3347,6.1597,5.0,60.3584,48.84391,2.3533595,307.0968,NaN,,37.019352,,0 / 18,2098,2022-01-10 16:59:03:225
1.114756,1.459622,9.001799,-1.041134,1.421531,9.647057,1.413284,0.030427,-0.676735,0.440607,0.048468,-1.348052,130.0,13.875,-1.65,-51.375,303.4908,-8.3347,6.1597,5.0,60.3584,48.84391,2.3533595,307.0968,NaN,,37.019352,,0 / 18,2103,2022-01-10 16:59:03:230
1.114756,1.459622,9.001799,-1.233936,1.674812,9.583465,2.184826,-0.010251,-0.396967,0.440607,0.048468,-1.348052,130.0,13.875,-1.65,-51.375,303.4908,-8.3347,6.1597,5.0,60.3584,48.84391,2.3533595,307.0968,NaN,,37.019352,,0 / 18,2108,2022-01-10 16:59:03:235
1.114756,1.459622,9.001799,-1.233936,1.674812,9.583465,2.184826,-0.010251,-0.396967,0.440607,0.048468,-1.348052,130.0,13.875,-1.65,-51.375,303.4908,-8.3347,6.1597,5.0,60.3584,48.84391,2.3533595,307.0968,NaN,,37.019352,,0 / 18,2113,2022-01-10 16:59:03:240
1.114756,1.459622,9.001799,-1.233936,1.674812,9.583465,2.184826,-0.010251,-0.396967,0.440607,0.048468,-1.348052,130.0,13.875,-1.65,-51.375,303.4908,-8.3347,6.1597,5.0,60.3584,48.84391,2.3533595,307.0968,NaN,,37.019352,,0 / 18,2118,2022-01-10 16:59:03:245
1.114756,1.459622,9.001799,-1.233936,1.674812,9.583465,2.184826,-0.010251,-0.396967,0.440607,0.048468,-1.348052,130.0,13.875,-1.65,-51.375,303.4908,-8.3347,6.1597,5.0,60.3584,48.84391,2.3533595,307.0968,NaN,,37.019352,,0 / 18,2123,2022-01-10 16:59:03:250
0.437887,2.45713,8.442476,-1.233936,1.674812,9.583465,2.184826,-0.010251,-0.396967,0.440607,0.048468,-1.348052,130.0,13.875,-1.65,-51.375,303.4908,-8.3347,6.1597,5.0,60.3584,48.84391,2.3533595,307.0968,NaN,,37.019352,,0 / 18,2129,2022-01-10 16:59:03:256
0.437887,2.45713,8.442476,-1.233936,1.674812,9.583465,2.184826,-0.010251,-0.396967,0.440607,0.048468,-1.348052,130.0,13.875,-1.65,-51.375,303.4908,-8.3347,6.1597,5.0,60.3584,48.84391,2.3533595,307.0968,NaN,,37.019352,,0 / 18,2133,2022-01-10 16:59:03:260
0.437887,2.45713,8.442476,-1.233936,1.674812,9.583465,2.184826,-0.010251,-0.396967,0.440607,0.048468,-1.348052,130.0,13.875,-1.65,-51.375,303.4908,-8.3347,6.1597,5.0,60.3584,48.84391,2.3533595,307.0968,NaN,,37.019352,,0 / 18,2138,2022-01-10 16:59:03:265
0.437887,2.45713,8.442476,-1.233936,1.674812,9.583465,2.184826,-0.010251,-0.396967,0.440607,0.048468,-1.348052,130.0,13.875,-1.65,-51.375,303.4908,-8.3347,6.1597,5.0,60.3584,48.84391,2.3533595,307.0968,NaN,,37.019352,,0 / 18,2143,2022-01-10 16:59:03:270
0.437887,2.45713,8.442476,-1.233936,1.674812,9.583465,2.184826,-0.010251,-0.396967,0.440607,0.048468,-1.348052,130.0,13.875,-1.65,-51.375,303.4908,-8.3347,6.1597,5.0,60.3584,48.84391,2.3533595,307.0968,NaN,,37.019352,,0 / 18,2149,2022-01-10 16:59:03:276
0.437887,2.45713,8.442476,-1.233936,1.674812,9.583465,2.184826,-0.010251,-0.396967,0.440607,0.048468,-1.348052,130.0,13.875,-1.65,-51.375,303.4908,-8.3347,6.1597,5.0,60.3584,48.84391,2.3533595,307.0968,NaN,,37.019352,,0 / 18,2153,2022-01-10 16:59:03:280
0.437887,2.45713,8.442476,-1.233936,1.674812,9.583465,2.184826,-0.010251,-0.396967,0.440607,0.048468,-1.348052,130.0,13.875,-1.65,-51.375,303.4908,-8.3347,6.1597,5.0,60.3584,48.84391,2.3533595,307.0968,NaN,,37.019352,,0 / 18,2158,2022-01-10 16:59:03:285
0.437887,2.45713,8.442476,-1.233936,1.674812,9.583465,2.184826,-0.010251,-0.396967,0.440607,0.048468,-1.348052,130.0,13.875,-1.65,-51.375,303.4908,-8.3347,6.1597,5.0,60.3584,48.84391,2.3533595,307.0968,NaN,,37.019352,,0 / 18,2163,2022-01-10 16:59:03:290
0.437887,2.45713,8.442476,-1.233936,1.674812,9.583465,2.184826,-0.010251,-0.396967,0.440607,0.048468,-1.348052,130.0,13.875,-1.65,-51.375,303.4908,-8.3347,6.1597,5.0,60.3584,48.84391,2.3533595,307.0968,NaN,,37.019352,,0 / 18,2167,2022-01-10 16:59:03:294
0.437887,2.45713,8.442476,-1.233936,1.674812,9.583465,2.184826,-0.010251,-0.396967,0.440607,0.048468,-1.348052,130.0,13.875,-1.65,-51.375,303.4908,-8.3347,6.1597,5.0,60.3584,48.84391,2.3533595,307.0968,NaN,,37.019352,,0 / 18,2173,2022-01-10 16:59:03:300
0.437887,2.45713,8.442476,-1.233936,1.674812,9.583465,2.184826,-0.010251,-0.396967,0.440607,0.048468,-1.348052,130.0,13.875,-1.65,-51.375,303.4908,-8.3347,6.1597,5.0,60.3584,48.84391,2.3533595,307.0968,NaN,,37.019352,,0 / 18,2178,2022-01-10 16:59:03:305
0.437887,2.45713,8.442476,-1.233936,1.674812,9.583465,2.184826,-0.010251,-0.396967,0.440607,0.048468,-1.348052,130.0,13.875,-1.65,-51.375,303.4908,-8.3347,6.1597,5.0,60.3584,48.84391,2.3533595,307.0968,NaN,,37.019352,,0 / 18,2183,2022-01-10 16:59:03:310
0.437887,2.45713,8.442476,-1.233936,1.674812,9.583465,2.184826,-0.010251,-0.396967,0.440607,0.048468,-1.348052,130.0,13.875,-1.65,-51.375,303.4908,-8.3347,6.1597,5.0,60.3584,48.84391,2.3533595,307.0968,NaN,,37.019352,,0 / 18,2187,2022-01-10 16:59:03:314
0.437887,2.45713,8.442476,-1.233936,1.674812,9.583465,2.184826,-0.010251,-0.396967,0.440607,0.048468,-1.348052,130.0,13.875,-1.65,-51.375,303.4908,-8.3347,6.1597,5.0,60.3584,48.84391,2.3533595,307.0968,NaN,,37.019352,,0 / 18,2193,2022-01-10 16:59:03:320
0.437887,2.45713,8.442476,-1.233936,1.674812,9.583465,2.184826,-0.010251,-0.396967,0.30439,-0.04474,-1.177881,130.0,13.875,-1.65,-51.375,303.4908,-8.3347,6.1597,5.0,60.3584,48.84391,2.3533595,307.0968,NaN,,37.019352,,0 / 18,2199,2022-01-10 16:59:03:326
0.437887,2.45713,8.442476,-1.233936,1.674812,9.583465,2.184826,-0.010251,-0.396967,0.30439,-0.04474,-1.177881,130.0,13.875,-1.65,-51.375,303.4908,-8.3347,6.1597,5.0,60.3584,48.84391,2.3533595,307.0968,NaN,,37.019352,,0 / 18,2203,2022-01-10 16:59:03:330
0.437887,2.45713,8.442476,-1.233936,1.674812,9.583465,2.184826,-0.010251,-0.396967,0.30439,-0.04474,-1.177881,130.0,13.875,-1.65,-51.375,303.4908,-8.3347,6.1597,5.0,60.3584,48.84391,2.3533595,307.0968,NaN,,37.019352,,0 / 18,2207,2022-01-10 16:59:03:334
0.437887,2.45713,8.442476,-1.233936,1.674812,9.583465,2.184826,-0.010251,-0.396967,0.30439,-0.04474,-1.177881,130.0,13.875,-1.65,-51.375,303.4908,-8.3347,6.1597,5.0,60.3584,48.84391,2.3533595,307.0968,NaN,,37.019352,,0 / 18,2213,2022-01-10 16:59:03:340
0.437887,2.45713,8.442476,-1.233936,1.674812,9.583465,2.184826,-0.010251,-0.396967,0.30439,-0.04474,-1.177881,130.0,13.875,-1.65,-51.375,303.4908,-8.3347,6.1597,5.0,60.3584,48.84391,2.3533595,307.0968,NaN,,37.019352,,0 / 18,2218,2022-01-10 16:59:03:345
0.437887,2.45713,8.442476,-1.233936,1.674812,9.583465,2.184826,-0.010251,-0.396967,0.30439,-0.04474,-1.177881,130.0,13.875,-1.65,-51.375,303.4908,-8.3347,6.1597,5.0,42.26587,48.84391,2.3533595,307.0968,NaN,,37.019352,,0 / 18,2223,2022-01-10 16:59:03:350
0.437887,2.45713,8.442476,-1.373068,1.95615,9.510969,1.719546,0.250604,-0.530498,0.30439,-0.04474,-1.177881,130.0,13.875,-1.65,-51.375,303.4908,-8.3347,6.1597,5.0,42.26587,48.84391,2.3533595,307.0968,NaN,,37.019352,,0 / 18,2228,2022-01-10 16:59:03:355
0.437887,2.45713,8.442476,-1.373068,1.95615,9.510969,1.719546,0.250604,-0.530498,0.30439,-0.04474,-1.177881,130.0,13.875,-1.65,-51.375,303.4908,-8.3347,6.1597,5.0,42.26587,48.84391,2.3533595,307.0968,NaN,,37.019352,,0 / 18,2233,2022-01-10 16:59:03:360
0.287139,-0.274875,9.807881,-1.373068,1.95615,9.510969,1.719546,0.250604,-0.530498,0.30439,-0.04474,-1.177881,130.0,14.775,0.45,-49.95,323.2095,-11.5061,8.2148,5.0,42.26587,48.84391,2.3533595,307.0968,NaN,,37.019352,,0 / 18,2238,2022-01-10 16:59:03:365
0.287139,-0.274875,9.807881,-1.373068,1.95615,9.510969,1.719546,0.250604,-0.530498,0.30439,-0.04474,-1.177881,130.0,14.775,0.45,-49.95,323.2095,-11.5061,8.2148,5.0,42.26587,48.84391,2.3533595,307.0968,NaN,,37.019352,,0 / 18,2243,2022-01-10 16:59:03:370
0.287139,-0.274875,9.807881,-1.373068,1.95615,9.510969,1.719546,0.250604,-0.530498,0.30439,-0.04474,-1.177881,130.0,14.775,0.45,-49.95,323.2095,-11.5061,8.2148,5.0,42.26587,48.84391,2.3533595,307.0968,NaN,,37.019352,,0 / 18,2248,2022-01-10 16:59:03:375
0.287139,-0.274875,9.807881,-1.373068,1.95615,9.510969,1.719546,0.250604,-0.530498,0.30439,-0.04474,-1.177881,130.0,14.775,0.45,-49.95,323.2095,-11.5061,8.2148,5.0,42.26587,48.84391,2.3533595,307.0968,NaN,,37.019352,,0 / 18,2253,2022-01-10 16:59:03:380
0.287139,-0.274875,9.807881,-1.373068,1.95615,9.510969,1.719546,0.250604,-0.530498,0.30439,-0.04474,-1.177881,130.0,14.775,0.45,-49.95,323.2095,-11.5061,8.2148,5.0,42.26587,48.84391,2.3533595,307.0968,NaN,,37.019352,,0 / 18,2258,2022-01-10 16:59:03:385
0.287139,-0.274875,9.807881,-1.373068,1.95615,9.510969,1.719546,0.250604,-0.530498,0.30439,-0.04474,-1.177881,130.0,14.775,0.45,-49.95,323.2095,-11.5061,8.2148,5.0,42.26587,48.84391,2.3533595,307.0968,NaN,,37.019352,,0 / 18,2263,2022-01-10 16:59:03:390
0.287139,-0.274875,9.807881,-1.373068,1.95615,9.510969,1.719546,0.250604,-0.530498,0.30439,-0.04474,-1.177881,130.0,14.775,0.45,-49.95,323.2095,-11.5061,8.2148,5.0,42.26587,48.84391,2.3533595,307.0968,NaN,,37.019352,,0 / 27,2268,2022-01-10 16:59:03:395
0.287139,-0.274875,9.807881,-1.373068,1.95615,9.510969,1.719546,0.250604,-0.530498,0.30439,-0.04474,-1.177881,130.0,14.775,0.45,-49.95,323.2095,-11.5061,8.2148,5.0,42.26587,48.84391,2.3533595,307.0968,NaN,,37.019352,,0 / 27,2273,2022-01-10 16:59:03:400
0.287139,-0.274875,9.807881,-1.373068,1.95615,9.510969,1.719546,0.250604,-0.530498,0.30439,-0.04474,-1.177881,43.0,14.775,0.45,-49.95,323.2095,-11.5061,8.2148,5.0,42.26587,48.84391,2.3533595,307.0968,NaN,,37.019352,,0 / 27,2278,2022-01-10 16:59:03:405
0.287139,-0.274875,9.807881,-1.373068,1.95615,9.510969,1.719546,0.250604,-0.530498,0.30439,-0.04474,-1.177881,43.0,14.775,0.45,-49.95,323.2095,-11.5061,8.2148,5.0,42.26587,48.84391,2.3533595,307.0968,NaN,,37.019352,,0 / 27,2283,2022-01-10 16:59:03:410
0.287139,-0.274875,9.807881,-1.373068,1.95615,9.510969,1.719546,0.250604,-0.530498,0.30439,-0.04474,-1.177881,43.0,14.775,0.45,-49.95,323.2095,-11.5061,8.2148,5.0,42.26587,48.84391,2.3533595,307.0968,NaN,,37.019352,,0 / 27,2288,2022-01-10 16:59:03:415
0.287139,-0.274875,9.807881,-1.373068,1.95615,9.510969,1.719546,0.250604,-0.530498,0.30439,-0.04474,-1.177881,43.0,14.775,0.45,-49.95,323.2095,-11.5061,8.2148,5.0,42.26587,48.84391,2.3533595,307.0968,NaN,,37.019352,,0 / 27,2293,2022-01-10 16:59:03:420
0.287139,-0.274875,9.807881,-1.373068,1.95615,9.510969,1.719546,0.250604,-0.530498,0.30439,-0.04474,-1.177881,43.0,14.775,0.45,-49.95,323.2095,-11.5061,8.2148,5.0,42.26587,48.84391,2.3533595,307.0968,NaN,,37.019352,,0 / 27,2301,2022-01-10 16:59:03:428
0.287139,-0.274875,9.807881,-1.373068,1.95615,9.510969,1.719546,0.250604,-0.530498,0.30439,-0.04474,-1.177881,43.0,14.775,0.45,-49.95,323.2095,-11.5061,8.2148,5.0,42.26587,48.84391,2.3533595,307.0968,NaN,,37.019352,,0 / 27,2303,2022-01-10 16:59:03:430
0.287139,-0.274875,9.807881,-1.373068,1.95615,9.510969,1.719546,0.250604,-0.530498,0.30439,-0.04474,-1.177881,43.0,14.775,0.45,-49.95,323.2095,-11.5061,8.2148,5.0,42.26587,48.84391,2.3533595,307.0968,NaN,,37.019352,,0 / 27,2308,2022-01-10 16:59:03:435
0.287139,-0.274875,9.807881,-1.373068,1.95615,9.510969,1.719546,0.250604,-0.530498,0.30439,-0.04474,-1.177881,43.0,14.775,0.45,-49.95,323.2095,-11.5061,8.2148,5.0,42.26587,48.84391,2.3533595,307.0968,NaN,,37.019352,,0 / 27,2313,2022-01-10 16:59:03:440
0.287139,-0.274875,9.807881,-1.373068,1.95615,9.510969,1.719546,0.250604,-0.530498,0.30439,-0.04474,-1.177881,43.0,14.775,0.45,-49.95,323.2095,-11.5061,8.2148,5.0,42.26587,48.84391,2.3533595,307.0968,NaN,,37.019352,,0 / 27,2318,2022-01-10 16:59:03:445
0.287139,-0.274875,9.807881,-1.373068,1.95615,9.510969,1.719546,0.250604,-0.530498,0.30439,-0.04474,-1.177881,43.0,14.775,0.45,-49.95,323.2095,-11.5061,8.2148,5.0,42.26587,48.84391,2.3533595,307.0968,NaN,,37.019352,,0 / 27,2323,2022-01-10 16:59:03:450
0.287139,-0.274875,9.807881,-1.373068,1.95615,9.510969,1.719546,0.250604,-0.530498,0.30439,-0.04474,-1.177881,43.0,14.775,0.45,-49.95,323.2095,-11.5061,8.2148,5.0,42.26587,48.84391,2.3533595,307.0968,NaN,,37.019352,,0 / 27,2328,2022-01-10 16:59:03:455
0.287139,-0.274875,9.807881,-1.373068,1.95615,9.510969,1.719546,0.250604,-0.530498,0.30439,-0.04474,-1.177881,43.0,14.775,0.45,-49.95,323.2095,-11.5061,8.2148,5.0,42.26587,48.84391,2.3533595,307.0968,NaN,,37.019352,,0 / 27,2333,2022-01-10 16:59:03:460
-3.369692,-0.168096,11.49542,-1.373068,1.95615,9.510969,1.719546,0.250604,-0.530498,0.069373,-0.135018,-1.947379,43.0,14.775,0.45,-49.95,323.2095,-11.5061,8.2148,5.0,42.26587,48.84391,2.3533595,307.0968,NaN,,37.019352,,0 / 27,2338,2022-01-10 16:59:03:465
-3.369692,-0.168096,11.49542,-1.373068,1.95615,9.510969,1.719546,0.250604,-0.530498,0.069373,-0.135018,-1.947379,43.0,14.775,0.45,-49.95,323.2095,-11.5061,8.2148,5.0,42.26587,48.84391,2.3533595,307.0968,NaN,,37.019352,,0 / 27,2343,2022-01-10 16:59:03:470
-3.369692,-0.168096,11.49542,-1.373068,1.95615,9.510969,1.719546,0.250604,-0.530498,0.069373,-0.135018,-1.947379,43.0,14.775,0.45,-49.95,323.2095,-11.5061,8.2148,5.0,42.26587,48.84391,2.3533595,307.0968,NaN,,37.019352,,0 / 27,2348,2022-01-10 16:59:03:475
-3.369692,-0.168096,11.49542,-1.373068,1.95615,9.510969,1.719546,0.250604,-0.530498,0.069373,-0.135018,-1.947379,43.0,14.775,0.45,-49.95,323.2095,-11.5061,8.2148,5.0,42.26587,48.84391,2.3533595,307.0968,NaN,,37.019352,,0 / 27,2353,2022-01-10 16:59:03:480
-3.369692,-0.168096,11.49542,-1.373068,1.95615,9.510969,1.719546,0.250604,-0.530498,0.069373,-0.135018,-1.947379,43.0,14.775,0.45,-49.95,323.2095,-11.5061,8.2148,5.0,42.26587,48.84391,2.3533595,307.0968,NaN,,37.019352,,0 / 27,2358,2022-01-10 16:59:03:485
-3.369692,-0.168096,11.49542,-1.270071,2.206801,9.47034,0.878402,-2.090603,-0.511945,0.069373,-0.135018,-1.947379,43.0,14.775,0.45,-49.95,323.2095,-11.5061,8.2148,5.0,42.26587,48.84391,2.3533595,307.0968,NaN,,37.019352,,0 / 27,2363,2022-01-10 16:59:03:490
-3.369692,-0.168096,11.49542,-1.270071,2.206801,9.47034,0.878402,-2.090603,-0.511945,0.069373,-0.135018,-1.947379,43.0,14.775,0.45,-49.95,323.2095,-11.5061,8.2148,5.0,42.26587,48.84391,2.3533595,307.0968,NaN,,37.019352,,0 / 27,2369,2022-01-10 16:59:03:496
