ACCELEROMETER X (m/s²),ACCELEROMETER Y (m/s²),ACCELEROMETER Z (m/s²),GRAVITY X (m/s²),GRAVITY Y (m/s²),GRAVITY Z (m/s²),LINEAR ACCELERATION X (m/s²),LINEAR ACCELERATION Y (m/s²),LINEAR ACCELERATION Z (m/s²),GYROSCOPE X (rad/s),GYROSCOPE Y (rad/s),GYROSCOPE Z (rad/s),LIGHT (lux),MAGNETIC FIELD X (μT),MAGNETIC FIELD Y (μT),MAGNETIC FIELD Z (μT),ORIENTATION Z (azimuth °),ORIENTATION X (pitch °),ORIENTATION Y (roll °),PROXIMITY (i),SOUND LEVEL (dB),LOCATION Latitude : ,LOCATION Longitude : ,LOCATION Altitude ( m),LOCATION Altitude-google ( m),LOCATION Speed ( Kmh),LOCATION Accuracy ( m),LOCATION ORIENTATION (°),Satellites in range,Time since start in ms ,YYYY-MO-DD HH-MI-SS_SSS
-1.138086,-0.202792,10.162318,-0.851554,-0.104855,9.769045,0.346763,0.443557,-0.40801,-1.232608,-0.763506,0.121836,33.0,-1.95,-31.575,-23.775,177.2745,0.6332,-1.1071,1.97,27.16026,48.843853,2.352965,565.0007,NaN,0.0,38.03871,,8 / 25,7,2022-01-10 17:26:54:429
-1.138086,-0.202792,10.162318,-0.851554,-0.104855,9.769045,0.346763,0.443557,-0.40801,-1.232608,-0.763506,0.121836,33.0,-1.95,-31.575,-23.775,177.2745,0.6332,-1.1071,1.97,27.16026,48.843853,2.352965,565.0007,NaN,0.0,38.03871,,8 / 25,13,2022-01-10 17:26:54:435
-1.138086,-0.202792,10.162318,-0.851554,-0.104855,9.769045,0.346763,0.443557,-0.40801,-1.232608,-0.763506,0.121836,33.0,-1.95,-31.575,-23.775,177.2745,0.6332,-1.1071,1.97,27.16026,48.843853,2.352965,565.0007,NaN,0.0,38.03871,,8 / 25,17,2022-01-10 17:26:54:439
-1.138086,-0.202792,10.162318,-0.851554,-0.104855,9.769045,0.346763,0.443557,-0.40801,-1.232608,-0.763506,0.121836,33.0,-1.95,-31.575,-23.775,177.2745,0.6332,-1.1071,1.97,27.16026,48.843853,2.352965,565.0007,NaN,0.0,38.03871,,8 / 25,22,2022-01-10 17:26:54:444
-1.138086,-0.202792,10.162318,-0.851554,-0.104855,9.769045,0.346763,0.443557,-0.40801,-1.232608,-0.763506,0.121836,33.0,-1.95,-31.575,-23.775,177.2745,0.6332,-1.1071,1.97,27.16026,48.843853,2.352965,565.0007,NaN,0.0,38.03871,,8 / 25,27,2022-01-10 17:26:54:449
-0.20997,-0.714258,9.861719,-0.851554,-0.104855,9.769045,0.346763,0.443557,-0.40801,-1.232608,-0.763506,0.121836,33.0,-0.75,-31.65,-24.0,174.5444,0.6126,4.9818,1.97,27.16026,48.843853,2.352965,565.0007,NaN,0.0,38.03871,,8 / 25,32,2022-01-10 17:26:54:454
-0.20997,-0.714258,9.861719,-0.851554,-0.104855,9.769045,0.346763,0.443557,-0.40801,-1.232608,-0.763506,0.121836,33.0,-0.75,-31.65,-24.0,174.5444,0.6126,4.9818,1.97,27.16026,48.843853,2.352965,565.0007,NaN,0.0,38.03871,,8 / 25,37,2022-01-10 17:26:54:459
-0.20997,-0.714258,9.861719,-0.851554,-0.104855,9.769045,0.346763,0.443557,-0.40801,-1.232608,-0.763506,0.121836,33.0,-0.75,-31.65,-24.0,174.5444,0.6126,4.9818,1.97,27.16026,48.843853,2.352965,565.0007,NaN,0.0,38.03871,,8 / 25,42,2022-01-10 17:26:54:464
-0.20997,-0.714258,9.861719,-0.851554,-0.104855,9.769045,0.346763,0.443557,-0.40801,-1.442991,0.941533,-0.094406,33.0,-0.75,-31.65,-24.0,174.5444,0.6126,4.9818,1.97,27.16026,48.843853,2.352965,565.0007,NaN,0.0,38.03871,,8 / 25,47,2022-01-10 17:26:54:469
-0.20997,-0.714258,9.861719,-0.851554,-0.104855,9.769045,0.346763,0.443557,-0.40801,-1.442991,0.941533,-0.094406,33.0,-0.75,-31.65,-24.0,174.5444,0.6126,4.9818,1.97,27.16026,48.843853,2.352965,565.0007,NaN,0.0,38.03871,,8 / 25,52,2022-01-10 17:26:54:474
-0.20997,-0.714258,9.861719,-0.851554,-0.104855,9.769045,0.346763,0.443557,-0.40801,-1.442991,0.941533,-0.094406,33.0,-0.75,-31.65,-24.0,174.5444,0.6126,4.9818,1.97,27.16026,48.843853,2.352965,565.0007,NaN,0.0,38.03871,,8 / 25,57,2022-01-10 17:26:54:479
-0.20997,-0.714258,9.861719,-0.851554,-0.104855,9.769045,0.346763,0.443557,-0.40801,-1.442991,0.941533,-0.094406,90.0,-0.75,-31.65,-24.0,174.5444,0.6126,4.9818,1.97,27.16026,48.843853,2.352965,565.0007,NaN,0.0,38.03871,,8 / 25,62,2022-01-10 17:26:54:484
-0.20997,-0.714258,9.861719,-0.851554,-0.104855,9.769045,0.346763,0.443557,-0.40801,-1.442991,0.941533,-0.094406,90.0,-0.75,-31.65,-24.0,174.5444,0.6126,4.9818,1.97,27.16026,48.843853,2.352965,565.0007,NaN,0.0,38.03871,,8 / 25,68,2022-01-10 17:26:54:490
-0.20997,-0.714258,9.861719,-0.851554,-0.104855,9.769045,0.346763,0.443557,-0.40801,-1.442991,0.941533,-0.094406,90.0,-0.75,-31.65,-24.0,174.5444,0.6126,4.9818,1.97,27.16026,48.843853,2.352965,565.0007,NaN,0.0,38.03871,,8 / 25,72,2022-01-10 17:26:54:494
-0.20997,-0.714258,9.861719,-0.851554,-0.104855,9.769045,0.346763,0.443557,-0.40801,-1.442991,0.941533,-0.094406,90.0,-0.75,-31.65,-24.0,174.5444,0.6126,4.9818,1.97,27.16026,48.843853,2.352965,565.0007,NaN,0.0,38.03871,,8 / 25,77,2022-01-10 17:26:54:499
-0.20997,-0.714258,9.861719,-0.851554,-0.104855,9.769045,0.346763,0.443557,-0.40801,-1.442991,0.941533,-0.094406,90.0,-0.75,-31.65,-24.0,174.5444,0.6126,4.9818,1.97,27.16026,48.843853,2.352965,565.0007,NaN,0.0,38.03871,,8 / 25,82,2022-01-10 17:26:54:504
-0.20997,-0.714258,9.861719,-0.851554,-0.104855,9.769045,0.346763,0.443557,-0.40801,-1.442991,0.941533,-0.094406,90.0,-0.75,-31.65,-24.0,174.5444,0.6126,4.9818,1.97,27.16026,48.843853,2.352965,565.0007,NaN,0.0,38.03871,,8 / 25,87,2022-01-10 17:26:54:509
-0.20997,-0.714258,9.861719,-0.851554,-0.104855,9.769045,0.346763,0.443557,-0.40801,-1.442991,0.941533,-0.094406,90.0,-0.75,-31.65,-24.0,174.5444,0.6126,4.9818,1.97,27.16026,48.843853,2.352965,565.0007,NaN,0.0,38.03871,,8 / 25,93,2022-01-10 17:26:54:515
-0.20997,-0.714258,9.861719,-0.851554,-0.104855,9.769045,0.346763,0.443557,-0.40801,-1.442991,0.941533,-0.094406,90.0,-0.75,-31.65,-24.0,174.5444,0.6126,4.9818,1.97,27.16026,48.843853,2.352965,565.0007,NaN,0.0,38.03871,,8 / 25,97,2022-01-10 17:26:54:519
-0.20997,-0.714258,9.861719,-0.851554,-0.104855,9.769045,0.346763,0.443557,-0.40801,-1.442991,0.941533,-0.094406,90.0,-0.75,-31.65,-24.0,174.5444,0.6126,4.9818,1.97,27.16026,48.843853,2.352965,565.0007,NaN,0.0,38.03871,,8 / 25,101,2022-01-10 17:26:54:523
-0.20997,-0.714258,9.861719,-1.342009,-1.649681,9.573294,0.864641,0.616326,0.674659,-1.442991,0.941533,-0.094406,90.0,-0.75,-31.65,-24.0,174.5444,0.6126,4.9818,1.97,27.16026,48.843853,2.352965,565.0007,NaN,0.0,38.03871,,8 / 25,107,2022-01-10 17:26:54:529
-0.20997,-0.714258,9.861719,-1.342009,-1.649681,9.573294,0.864641,0.616326,0.674659,-1.442991,0.941533,-0.094406,90.0,-0.75,-31.65,-24.0,174.5444,0.6126,4.9818,1.97,27.16026,48.843853,2.352965,565.0007,NaN,0.0,38.03871,,8 / 25,112,2022-01-10 17:26:54:534
-1.032802,-1.826023,9.97807,-1.342009,-1.649681,9.573294,0.864641,0.616326,0.674659,-1.442991,0.941533,-0.094406,90.0,-0.75,-31.65,-24.0,174.5444,0.6126,4.9818,1.97,27.16026,48.843853,2.352965,565.0007,NaN,0.0,38.03871,,8 / 25,117,2022-01-10 17:26:54:539
-1.032802,-1.826023,9.97807,-1.342009,-1.649681,9.573294,0.864641,0.616326,0.674659,-1.442991,0.941533,-0.094406,90.0,-0.75,-31.65,-24.0,174.5444,0.6126,4.9818,1.97,27.16026,48.843853,2.352965,565.0007,NaN,0.0,38.03871,,8 / 25,122,2022-01-10 17:26:54:544
-1.032802,-1.826023,9.97807,-1.342009,-1.649681,9.573294,0.864641,0.616326,0.674659,-1.442991,0.941533,-0.094406,90.0,-0.75,-31.65,-24.0,174.5444,0.6126,4.9818,1.97,27.16026,48.843853,2.352965,565.0007,NaN,0.0,38.03871,,8 / 25,127,2022-01-10 17:26:54:549
-1.032802,-1.826023,9.97807,-1.342009,-1.649681,9.573294,0.864641,0.616326,0.674659,-1.442991,0.941533,-0.094406,90.0,-0.75,-31.65,-24.0,174.5444,0.6126,4.9818,1.97,27.16026,48.843853,2.352965,565.0007,NaN,0.0,38.03871,,8 / 25,132,2022-01-10 17:26:54:554
-1.032802,-1.826023,9.97807,-1.342009,-1.649681,9.573294,0.864641,0.616326,0.674659,-1.442991,0.941533,-0.094406,90.0,-0.75,-31.65,-24.0,174.5444,0.6126,4.9818,1.97,27.16026,48.843853,2.352965,565.0007,NaN,0.0,38.03871,,8 / 25,136,2022-01-10 17:26:54:558
-1.032802,-1.826023,9.97807,-1.342009,-1.649681,9.573294,0.864641,0.616326,0.674659,-1.442991,0.941533,-0.094406,90.0,-0.75,-31.65,-24.0,174.5444,0.6126,4.9818,1.97,27.16026,48.843853,2.352965,565.0007,NaN,0.0,38.03871,,8 / 25,142,2022-01-10 17:26:54:564
-1.032802,-1.826023,9.97807,-1.342009,-1.649681,9.573294,0.864641,0.616326,0.674659,-1.442991,0.941533,-0.094406,90.0,-0.75,-31.65,-24.0,174.5444,0.6126,4.9818,1.97,27.16026,48.843853,2.352965,565.0007,NaN,0.0,38.03871,,8 / 25,147,2022-01-10 17:26:54:569
-1.032802,-1.826023,9.97807,-1.342009,-1.649681,9.573294,0.864641,0.616326,0.674659,-1.442991,0.941533,-0.094406,90.0,-0.75,-31.65,-24.0,174.5444,0.6126,4.9818,1.97,27.16026,48.843853,2.352965,565.0007,NaN,0.0,38.03871,,8 / 25,151,2022-01-10 17:26:54:573
-1.032802,-1.826023,9.97807,-1.342009,-1.649681,9.573294,0.864641,0.616326,0.674659,-1.442991,0.941533,-0.094406,90.0,-0.75,-31.65,-24.0,174.5444,0.6126,4.9818,1.97,27.16026,48.843853,2.352965,565.0007,NaN,0.0,38.03871,,8 / 25,157,2022-01-10 17:26:54:579
-1.032802,-1.826023,9.97807,-1.342009,-1.649681,9.573294,0.864641,0.616326,0.674659,-1.442991,0.941533,-0.094406,90.0,-0.75,-31.65,-24.0,174.5444,0.6126,4.9818,1.97,27.16026,48.843853,2.352965,565.0007,NaN,0.0,38.03871,,8 / 25,162,2022-01-10 17:26:54:584
-1.032802,-1.826023,9.97807,-1.342009,-1.649681,9.573294,0.864641,0.616326,0.674659,-1.442991,0.941533,-0.094406,90.0,-0.75,-31.65,-24.0,174.5444,0.6126,4.9818,1.97,27.16026,48.843853,2.352965,565.0007,NaN,0.0,38.03871,,8 / 25,167,2022-01-10 17:26:54:589
-1.032802,-1.826023,9.97807,-1.342009,-1.649681,9.573294,0.864641,0.616326,0.674659,-1.442991,0.941533,-0.094406,90.0,-0.75,-31.65,-24.0,174.5444,0.6126,4.9818,1.97,27.16026,48.843853,2.352965,565.0007,NaN,0.0,38.03871,,8 / 25,172,2022-01-10 17:26:54:594
-1.032802,-1.826023,9.97807,-1.342009,-1.649681,9.573294,0.864641,0.616326,0.674659,1.269625,-0.471366,0.172035,90.0,-0.75,-31.65,-24.0,174.5444,0.6126,4.9818,1.97,27.16026,48.843853,2.352965,565.0007,NaN,0.0,38.03871,,8 / 25,177,2022-01-10 17:26:54:599
-1.032802,-1.826023,9.97807,-1.342009,-1.649681,9.573294,0.864641,0.616326,0.674659,1.269625,-0.471366,0.172035,90.0,-0.75,-31.65,-24.0,174.5444,0.6126,4.9818,1.97,27.16026,48.843853,2.352965,565.0007,NaN,0.0,38.03871,,8 / 25,182,2022-01-10 17:26:54:604
-1.032802,-1.826023,9.97807,-1.342009,-1.649681,9.573294,0.864641,0.616326,0.674659,1.269625,-0.471366,0.172035,90.0,-0.75,-31.65,-24.0,174.5444,0.6126,4.9818,1.97,27.16026,48.843853,2.352965,565.0007,NaN,0.0,38.03871,,8 / 25,186,2022-01-10 17:26:54:608
-1.032802,-1.826023,9.97807,-1.342009,-1.649681,9.573294,0.864641,0.616326,0.674659,1.269625,-0.471366,0.172035,90.0,-0.75,-31.65,-24.0,174.5444,0.6126,4.9818,1.97,27.16026,48.843853,2.352965,565.0007,NaN,0.0,38.03871,,8 / 25,191,2022-01-10 17:26:54:613
-1.032802,-1.826023,9.97807,-1.342009,-1.649681,9.573294,0.864641,0.616326,0.674659,1.269625,-0.471366,0.172035,90.0,-0.75,-31.65,-24.0,174.5444,0.6126,4.9818,1.97,27.16026,48.843853,2.352965,565.0007,NaN,0.0,38.03871,,8 / 25,196,2022-01-10 17:26:54:618
-0.882054,-1.064208,9.097511,-1.342009,-1.649681,9.573294,0.864641,0.616326,0.674659,1.269625,-0.471366,0.172035,90.0,-0.75,-31.65,-24.0,174.5444,0.6126,4.9818,1.97,27.16026,48.843853,2.352965,565.0007,NaN,0.0,38.03871,,8 / 25,202,2022-01-10 17:26:54:624
-0.882054,-1.064208,9.097511,-1.342009,-1.649681,9.573294,0.864641,0.616326,0.674659,1.269625,-0.471366,0.172035,90.0,-0.75,-31.65,-24.0,174.5444,0.6126,4.9818,1.97,27.16026,48.843853,2.352965,565.0007,NaN,0.0,38.03871,,8 / 25,207,2022-01-10 17:26:54:629
-0.882054,-1.064208,9.097511,-1.342009,-1.649681,9.573294,0.864641,0.616326,0.674659,1.269625,-0.471366,0.172035,90.0,-0.75,-31.65,-24.0,174.5444,0.6126,4.9818,1.97,27.16026,48.843853,2.352965,565.0007,NaN,0.0,38.03871,,8 / 25,211,2022-01-10 17:26:54:633
-0.882054,-1.064208,9.097511,-1.342009,-1.649681,9.573294,0.864641,0.616326,0.674659,1.269625,-0.471366,0.172035,90.0,-0.75,-31.65,-24.0,174.5444,0.6126,4.9818,1.97,27.16026,48.843853,2.352965,565.0007,NaN,0.0,38.03871,,8 / 25,216,2022-01-10 17:26:54:638
-0.882054,-1.064208,9.097511,-0.95886,-0.686941,9.735455,-0.157283,-0.697671,0.803189,1.269625,-0.471366,0.172035,90.0,-0.75,-31.65,-24.0,174.5444,0.6126,4.9818,1.97,27.16026,48.843853,2.352965,565.0007,NaN,0.0,38.03871,,8 / 25,222,2022-01-10 17:26:54:644
-0.882054,-1.064208,9.097511,-0.95886,-0.686941,9.735455,-0.157283,-0.697671,0.803189,1.269625,-0.471366,0.172035,90.0,-0.75,-31.65,-24.0,174.5444,0.6126,4.9818,1.97,25.07779,48.843853,2.352965,565.0007,NaN,0.0,38.03871,,8 / 25,227,2022-01-10 17:26:54:649
-0.882054,-1.064208,9.097511,-0.95886,-0.686941,9.735455,-0.157283,-0.697671,0.803189,1.269625,-0.471366,0.172035,90.0,0.825,-29.175,-25.275,177.2842,4.0168,5.625,1.97,25.07779,48.843853,2.352965,565.0007,NaN,0.0,38.03871,,8 / 25,232,2022-01-10 17:26:54:654
-0.882054,-1.064208,9.097511,-0.95886,-0.686941,9.735455,-0.157283,-0.697671,0.803189,1.269625,-0.471366,0.172035,90.0,0.825,-29.175,-25.275,177.2842,4.0168,5.625,1.97,25.07779,48.843853,2.352965,565.0007,NaN,0.0,38.03871,,8 / 25,236,2022-01-10 17:26:54:658
-0.882054,-1.064208,9.097511,-0.95886,-0.686941,9.735455,-0.157283,-0.697671,0.803189,1.269625,-0.471366,0.172035,90.0,0.825,-29.175,-25.275,177.2842,4.0168,5.625,1.97,25.07779,48.843853,2.352965,565.0007,NaN,0.0,38.03871,,8 / 25,245,2022-01-10 17:26:54:667
-0.882054,-1.064208,9.097511,-0.95886,-0.686941,9.735455,-0.157283,-0.697671,0.803189,1.269625,-0.471366,0.172035,90.0,0.825,-29.175,-25.275,177.2842,4.0168,5.625,1.97,25.07779,48.843853,2.352965,565.0007,NaN,0.0,38.03871,,8 / 25,249,2022-01-10 17:26:54:671
-0.882054,-1.064208,9.097511,-0.95886,-0.686941,9.735455,-0.157283,-0.697671,0.803189,1.269625,-0.471366,0.172035,90.0,0.825,-29.175,-25.275,177.2842,4.0168,5.625,1.97,25.07779,48.843853,2.352965,565.0007,NaN,0.0,38.03871,,8 / 25,251,2022-01-10 17:26:54:673
-0.882054,-1.064208,9.097511,-0.95886,-0.686941,9.735455,-0.157283,-0.697671,0.803189,1.269625,-0.471366,0.172035,90.0,0.825,-29.175,-25.275,177.2842,4.0168,5.625,1.97,25.07779,48.843853,2.352965,565.0007,NaN,0.0,38.03871,,8 / 25,256,2022-01-10 17:26:54:678
-0.882054,-1.064208,9.097511,-0.95886,-0.686941,9.735455,-0.157283,-0.697671,0.803189,1.269625,-0.471366,0.172035,90.0,0.825,-29.175,-25.275,177.2842,4.0168,5.625,1.97,25.07779,48.843853,2.352965,565.0007,NaN,0.0,38.03871,,8 / 25,261,2022-01-10 17:26:54:683
-0.882054,-1.064208,9.097511,-0.95886,-0.686941,9.735455,-0.157283,-0.697671,0.803189,1.269625,-0.471366,0.172035,90.0,0.825,-29.175,-25.275,177.2842,4.0168,5.625,1.97,25.07779,48.843853,2.352965,565.0007,NaN,0.0,38.03871,,8 / 25,267,2022-01-10 17:26:54:689
-0.882054,-1.064208,9.097511,-0.95886,-0.686941,9.735455,-0.157283,-0.697671,0.803189,1.269625,-0.471366,0.172035,90.0,0.825,-29.175,-25.275,177.2842,4.0168,5.625,1.97,25.07779,48.843853,2.352965,565.0007,NaN,0.0,38.03871,,8 / 25,271,2022-01-10 17:26:54:693
-0.882054,-1.064208,9.097511,-0.95886,-0.686941,9.735455,-0.157283,-0.697671,0.803189,1.269625,-0.471366,0.172035,90.0,0.825,-29.175,-25.275,177.2842,4.0168,5.625,1.97,25.07779,48.843853,2.352965,565.0007,NaN,0.0,38.03871,,8 / 25,277,2022-01-10 17:26:54:699
-0.882054,-1.064208,9.097511,-0.95886,-0.686941,9.735455,-0.157283,-0.697671,0.803189,1.269625,-0.471366,0.172035,90.0,0.825,-29.175,-25.275,177.2842,4.0168,5.625,1.97,25.07779,48.843853,2.352965,565.0007,NaN,0.0,38.03871,,8 / 25,281,2022-01-10 17:26:54:703
-0.882054,-1.064208,9.097511,-0.95886,-0.686941,9.735455,-0.157283,-0.697671,0.803189,1.269625,-0.471366,0.172035,90.0,0.825,-29.175,-25.275,177.2842,4.0168,5.625,1.97,25.07779,48.843853,2.352965,565.0007,NaN,0.0,38.03871,,8 / 25,286,2022-01-10 17:26:54:708
-0.06012,-1.31695,9.086744,-0.95886,-0.686941,9.735455,-0.157283,-0.697671,0.803189,1.269625,-0.471366,0.172035,90.0,0.825,-29.175,-25.275,177.2842,4.0168,5.625,1.97,25.07779,48.843853,2.352965,565.0007,NaN,0.0,38.03871,,8 / 25,292,2022-01-10 17:26:54:714
-0.06012,-1.31695,9.086744,-0.95886,-0.686941,9.735455,-0.157283,-0.697671,0.803189,1.269625,-0.471366,0.172035,90.0,0.825,-29.175,-25.275,177.2842,4.0168,5.625,1.97,25.07779,48.843853,2.352965,565.0007,NaN,0.0,38.03871,,8 / 25,297,2022-01-10 17:26:54:719
-0.06012,-1.31695,9.086744,-0.95886,-0.686941,9.735455,-0.157283,-0.697671,0.803189,1.269625,-0.471366,0.172035,90.0,0.825,-29.175,-25.275,177.2842,4.0168,5.625,1.97,25.07779,48.843853,2.352965,565.0007,NaN,0.0,38.03871,,8 / 25,301,2022-01-10 17:26:54:723
-0.06012,-1.31695,9.086744,-0.95886,-0.686941,9.735455,-0.157283,-0.697671,0.803189,1.269625,-0.471366,0.172035,90.0,0.825,-29.175,-25.275,177.2842,4.0168,5.625,1.97,25.07779,48.843853,2.352965,565.0007,NaN,0.0,38.03871,,8 / 25,307,2022-01-10 17:26:54:729
-0.06012,-1.31695,9.086744,-0.95886,-0.686941,9.735455,-0.157283,-0.697671,0.803189,1.269625,-0.471366,0.172035,90.0,0.825,-29.175,-25.275,177.2842,4.0168,5.625,1.97,25.07779,48.843853,2.352965,565.0007,NaN,0.0,38.03871,,8 / 25,311,2022-01-10 17:26:54:733
-0.06012,-1.31695,9.086744,-0.95886,-0.686941,9.735455,-0.157283,-0.697671,0.803189,1.269625,-0.471366,0.172035,90.0,0.825,-29.175,-25.275,177.2842,4.0168,5.625,1.97,25.07779,48.843853,2.352965,565.0007,NaN,0.0,38.03871,,8 / 25,317,2022-01-10 17:26:54:739
-0.06012,-1.31695,9.086744,-0.95886,-0.686941,9.735455,-0.157283,-0.697671,0.803189,1.269625,-0.471366,0.172035,90.0,0.825,-29.175,-25.275,177.2842,4.0168,5.625,1.97,25.07779,48.843853,2.352965,565.0007,NaN,0.0,38.03871,,8 / 25,323,2022-01-10 17:26:54:745
-0.06012,-1.31695,9.086744,-0.95886,-0.686941,9.735455,-0.157283,-0.697671,0.803189,1.269625,-0.471366,0.172035,90.0,0.825,-29.175,-25.275,177.2842,4.0168,5.625,1.97,25.07779,48.843853,2.352965,565.0007,NaN,0.0,38.03871,,8 / 25,327,2022-01-10 17:26:54:749
-0.06012,-1.31695,9.086744,-0.95886,-0.686941,9.735455,-0.157283,-0.697671,0.803189,-1.142995,-0.221435,0.182954,90.0,0.825,-29.175,-25.275,177.2842,4.0168,5.625,1.97,25.07779,48.843853,2.352965,565.0007,NaN,0.0,38.03871,,8 / 25,331,2022-01-10 17:26:54:753
-0.06012,-1.31695,9.086744,-0.95886,-0.686941,9.735455,-0.157283,-0.697671,0.803189,-1.142995,-0.221435,0.182954,90.0,0.825,-29.175,-25.275,177.2842,4.0168,5.625,1.97,25.07779,48.843853,2.352965,565.0007,NaN,0.0,38.03871,,8 / 25,337,2022-01-10 17:26:54:759
-0.06012,-1.31695,9.086744,-0.95886,-0.686941,9.735455,-0.157283,-0.697671,0.803189,-1.142995,-0.221435,0.182954,90.0,0.825,-29.175,-25.275,177.2842,4.0168,5.625,1.97,25.07779,48.843853,2.352965,565.0007,NaN,0.0,38.03871,,8 / 25,341,2022-01-10 17:26:54:763
-0.06012,-1.31695,9.086744,-0.95886,-0.686941,9.735455,-0.157283,-0.697671,0.803189,-1.142995,-0.221435,0.182954,90.0,0.825,-29.175,-25.275,177.2842,4.0168,5.625,1.97,25.07779,48.843853,2.352965,565.0007,NaN,0.0,38.03871,,8 / 25,347,2022-01-10 17:26:54:769
-0.06012,-1.31695,9.086744,-0.95886,-0.686941,9.735455,-0.157283,-0.697671,0.803189,-1.142995,-0.221435,0.182954,90.0,0.825,-29.175,-25.275,177.2842,4.0168,5.625,1.97,25.07779,48.843853,2.352965,565.0007,NaN,0.0,38.03871,,8 / 25,352,2022-01-10 17:26:54:774
-0.06012,-1.31695,9.086744,-0.95886,-0.686941,9.735455,-0.157283,-0.697671,0.803189,-1.142995,-0.221435,0.182954,90.0,0.825,-29.175,-25.275,177.2842,4.0168,5.625,1.97,25.07779,48.843853,2.352965,565.0007,NaN,0.0,38.03871,,8 / 25,357,2022-01-10 17:26:54:779
-0.06012,-1.31695,9.086744,-0.95886,-0.686941,9.735455,-0.157283,-0.697671,0.803189,-1.142995,-0.221435,0.182954,90.0,0.825,-29.175,-25.275,177.2842,4.0168,5.625,1.97,25.07779,48.843853,2.352965,565.0007,NaN,0.0,38.03871,,8 / 25,361,2022-01-10 17:26:54:783
-0.06012,-1.31695,9.086744,-0.561054,-1.573346,9.663342,0.404509,0.42698,-0.573057,-1.142995,-0.221435,0.182954,90.0,0.825,-29.175,-25.275,177.2842,4.0168,5.625,1.97,25.07779,48.843853,2.352965,565.0007,NaN,0.0,38.03871,,8 / 25,367,2022-01-10 17:26:54:789
-0.06012,-1.31695,9.086744,-0.561054,-1.573346,9.663342,0.404509,0.42698,-0.573057,-1.142995,-0.221435,0.182954,90.0,0.825,-29.175,-25.275,177.2842,4.0168,5.625,1.97,25.07779,48.843853,2.352965,565.0007,NaN,0.0,38.03871,,8 / 25,373,2022-01-10 17:26:54:795
-0.06012,-1.31695,9.086744,-0.561054,-1.573346,9.663342,0.404509,0.42698,-0.573057,-1.142995,-0.221435,0.182954,90.0,0.825,-29.175,-25.275,177.2842,4.0168,5.625,1.97,25.07779,48.843853,2.352965,565.0007,NaN,0.0,38.03871,,8 / 25,377,2022-01-10 17:26:54:799
-0.06012,-1.31695,9.086744,-0.561054,-1.573346,9.663342,0.404509,0.42698,-0.573057,-1.142995,-0.221435,0.182954,90.0,0.825,-29.175,-25.275,177.2842,4.0168,5.625,1.97,25.07779,48.843853,2.352965,565.0007,NaN,0.0,38.03871,,8 / 25,381,2022-01-10 17:26:54:803
-0.06012,-1.31695,9.086744,-0.561054,-1.573346,9.663342,0.404509,0.42698,-0.573057,-1.142995,-0.221435,0.182954,90.0,0.825,-29.175,-25.275,177.2842,4.0168,5.625,1.97,25.07779,48.843853,2.352965,565.0007,NaN,0.0,38.03871,,8 / 25,387,2022-01-10 17:26:54:809
-0.06012,-1.31695,9.086744,-0.561054,-1.573346,9.663342,0.404509,0.42698,-0.573057,-1.142995,-0.221435,0.182954,90.0,0.825,-29.175,-25.275,177.2842,4.0168,5.625,1.97,25.07779,48.843853,2.352965,565.0007,NaN,0.0,38.03871,,8 / 25,392,2022-01-10 17:26:54:814
-0.06012,-1.31695,9.086744,-0.561054,-1.573346,9.663342,0.404509,0.42698,-0.573057,-1.142995,-0.221435,0.182954,90.0,0.825,-29.175,-25.275,177.2842,4.0168,5.625,1.97,25.07779,48.843853,2.352965,565.0007,NaN,0.0,38.03871,,8 / 25,397,2022-01-10 17:26:54:819
-0.06012,-1.31695,9.086744,-0.561054,-1.573346,9.663342,0.404509,0.42698,-0.573057,-1.142995,-0.221435,0.182954,90.0,0.825,-29.175,-25.275,177.2842,4.0168,5.625,1.97,25.07779,48.843853,2.352965,565.0007,NaN,0.0,38.03871,,8 / 25,403,2022-01-10 17:26:54:825
-0.171685,-0.771984,13.096816,-0.561054,-1.573346,9.663342,0.404509,0.42698,-0.573057,-1.142995,-0.221435,0.182954,90.0,0.825,-29.175,-25.275,177.2842,4.0168,5.625,1.97,25.07779,48.843853,2.352965,565.0007,NaN,0.0,38.03871,,8 / 25,407,2022-01-10 17:26:54:829
-0.171685,-0.771984,13.096816,-0.561054,-1.573346,9.663342,0.404509,0.42698,-0.573057,-1.142995,-0.221435,0.182954,90.0,0.825,-29.175,-25.275,177.2842,4.0168,5.625,1.97,25.07779,48.843853,2.352965,565.0007,NaN,0.0,38.03871,,8 / 25,412,2022-01-10 17:26:54:834
-0.171685,-0.771984,13.096816,-0.561054,-1.573346,9.663342,0.404509,0.42698,-0.573057,-1.142995,-0.221435,0.182954,90.0,0.825,-29.175,-25.275,177.2842,4.0168,5.625,1.97,25.07779,48.843853,2.352965,565.0007,NaN,0.0,38.03871,,8 / 25,417,2022-01-10 17:26:54:839
-0.171685,-0.771984,13.096816,-0.561054,-1.573346,9.663342,0.404509,0.42698,-0.573057,-1.142995,-0.221435,0.182954,90.0,0.825,-29.175,-25.275,177.2842,4.0168,5.625,1.97,25.07779,48.843853,2.352965,565.0007,NaN,0.0,38.03871,,8 / 25,422,2022-01-10 17:26:54:844
-0.171685,-0.771984,13.096816,-0.561054,-1.573346,9.663342,0.404509,0.42698,-0.573057,-1.142995,-0.221435,0.182954,90.0,0.825,-29.175,-25.275,177.2842,4.0168,5.625,1.97,25.07779,48.843853,2.352965,565.0007,NaN,0.0,38.03871,,8 / 25,426,2022-01-10 17:26:54:848
-0.171685,-0.771984,13.096816,-0.561054,-1.573346,9.663342,0.404509,0.42698,-0.573057,-1.142995,-0.221435,0.182954,90.0,0.525,-26.625,-27.225,178.9523,9.2322,3.3229,1.97,25.07779,48.843853,2.352965,565.0007,NaN,0.0,38.03871,,8 / 25,433,2022-01-10 17:26:54:855
-0.171685,-0.771984,13.096816,-0.561054,-1.573346,9.663342,0.404509,0.42698,-0.573057,-1.142995,-0.221435,0.182954,90.0,0.525,-26.625,-27.225,178.9523,9.2322,3.3229,1.97,25.07779,48.843853,2.352965,565.0007,NaN,0.0,38.03871,,8 / 25,437,2022-01-10 17:26:54:859
-0.171685,-0.771984,13.096816,-0.561054,-1.573346,9.663342,0.404509,0.42698,-0.573057,-1.142995,-0.221435,0.182954,90.0,0.525,-26.625,-27.225,178.9523,9.2322,3.3229,1.97,25.07779,48.843853,2.352965,565.0007,NaN,0.0,38.03871,,8 / 25,441,2022-01-10 17:26:54:863
-0.171685,-0.771984,13.096816,-0.561054,-1.573346,9.663342,0.404509,0.42698,-0.573057,-1.142995,-0.221435,0.182954,90.0,0.525,-26.625,-27.225,178.9523,9.2322,3.3229,1.97,25.07779,48.843853,2.352965,565.0007,NaN,0.0,38.03871,,8 / 25,448,2022-01-10 17:26:54:870
-0.171685,-0.771984,13.096816,-0.561054,-1.573346,9.663342,0.404509,0.42698,-0.573057,-1.142995,-0.221435,0.182954,90.0,0.525,-26.625,-27.225,178.9523,9.2322,3.3229,1.97,25.07779,48.843853,2.352965,565.0007,NaN,0.0,38.03871,,8 / 25,452,2022-01-10 17:26:54:874
-0.171685,-0.771984,13.096816,-0.561054,-1.573346,9.663342,0.404509,0.42698,-0.573057,-1.142995,-0.221435,0.182954,90.0,0.525,-26.625,-27.225,178.9523,9.2322,3.3229,1.97,25.07779,48.843853,2.352965,565.0007,NaN,0.0,38.03871,,8 / 25,457,2022-01-10 17:26:54:879
-0.171685,-0.771984,13.096816,-0.418465,-2.074773,9.575521,0.209431,1.286426,4.107216,0.025299,-0.448729,0.102262,90.0,0.525,-26.625,-27.225,178.9523,9.2322,3.3229,1.97,25.07779,48.843853,2.352965,565.0007,NaN,0.0,38.03871,,8 / 25,462,2022-01-10 17:26:54:884
-0.171685,-0.771984,13.096816,-0.418465,-2.074773,9.575521,0.209431,1.286426,4.107216,0.025299,-0.448729,0.102262,90.0,0.525,-26.625,-27.225,178.9523,9.2322,3.3229,1.97,25.07779,48.843853,2.352965,565.0007,NaN,0.0,38.03871,,8 / 25,467,2022-01-10 17:26:54:889
-0.171685,-0.771984,13.096816,-0.418465,-2.074773,9.575521,0.209431,1.286426,4.107216,0.025299,-0.448729,0.102262,90.0,0.525,-26.625,-27.225,178.9523,9.2322,3.3229,1.97,25.07779,48.843853,2.352965,565.0007,NaN,0.0,38.03871,,8 / 25,472,2022-01-10 17:26:54:894
-0.171685,-0.771984,13.096816,-0.418465,-2.074773,9.575521,0.209431,1.286426,4.107216,0.025299,-0.448729,0.102262,90.0,0.525,-26.625,-27.225,178.9523,9.2322,3.3229,1.97,25.07779,48.843853,2.352965,565.0007,NaN,0.0,38.03871,,8 / 25,477,2022-01-10 17:26:54:899
-0.171685,-0.771984,13.096816,-0.418465,-2.074773,9.575521,0.209431,1.286426,4.107216,0.025299,-0.448729,0.102262,90.0,0.525,-26.625,-27.225,178.9523,9.2322,3.3229,1.97,25.07779,48.843853,2.352965,565.0007,NaN,0.0,38.03871,,8 / 25,482,2022-01-10 17:26:54:904
-0.171685,-0.771984,13.096816,-0.418465,-2.074773,9.575521,0.209431,1.286426,4.107216,0.025299,-0.448729,0.102262,90.0,0.525,-26.625,-27.225,178.9523,9.2322,3.3229,1.97,25.07779,48.843853,2.352965,565.0007,NaN,0.0,38.03871,,8 / 25,487,2022-01-10 17:26:54:909
-0.171685,-0.771984,13.096816,-0.418465,-2.074773,9.575521,0.209431,1.286426,4.107216,0.025299,-0.448729,0.102262,90.0,0.525,-26.625,-27.225,178.9523,9.2322,3.3229,1.97,25.07779,48.843853,2.352965,565.0007,NaN,0.0,38.03871,,8 / 25,492,2022-01-10 17:26:54:914
-0.171685,-0.771984,13.096816,-0.418465,-2.074773,9.575521,0.209431,1.286426,4.107216,0.025299,-0.448729,0.102262,90.0,0.525,-26.625,-27.225,178.9523,9.2322,3.3229,1.97,25.07779,48.843853,2.352965,565.0007,NaN,0.0,38.03871,,8 / 25,498,2022-01-10 17:26:54:920
-0.171685,-0.771984,13.096816,-0.418465,-2.074773,9.575521,0.209431,1.286426,4.107216,0.025299,-0.448729,0.102262,90.0,0.525,-26.625,-27.225,178.9523,9.2322,3.3229,1.97,25.07779,48.843853,2.352965,565.0007,NaN,0.0,38.03871,,8 / 25,503,2022-01-10 17:26:54:925
1.319642,-0.723829,26.288746,-0.418465,-2.074773,9.575521,0.209431,1.286426,4.107216,0.025299,-0.448729,0.102262,31.0,0.525,-26.625,-27.225,178.9523,9.2322,3.3229,1.97,25.07779,48.843853,2.352965,565.0007,NaN,0.0,38.03871,,8 / 25,537,2022-01-10 17:26:54:959
1.319642,-0.723829,26.288746,-0.418465,-2.074773,9.575521,0.209431,1.286426,4.107216,0.025299,-0.448729,0.102262,31.0,0.525,-26.625,-27.225,178.9523,9.2322,3.3229,1.97,25.07779,48.843853,2.352965,565.0007,NaN,0.0,38.03871,,8 / 25,537,2022-01-10 17:26:54:959
1.319642,-0.723829,26.288746,-0.418465,-2.074773,9.575521,0.209431,1.286426,4.107216,0.025299,-0.448729,0.102262,31.0,0.525,-26.625,-27.225,178.9523,9.2322,3.3229,1.97,25.07779,48.843853,2.352965,565.0007,NaN,0.0,38.03871,,8 / 25,537,2022-01-10 17:26:54:959
1.319642,-0.723829,26.288746,-0.418465,-2.074773,9.575521,0.209431,1.286426,4.107216,0.025299,-0.448729,0.102262,31.0,0.525,-26.625,-27.225,178.9523,9.2322,3.3229,1.97,25.07779,48.843853,2.352965,565.0007,NaN,0.0,38.03871,,8 / 25,538,2022-01-10 17:26:54:960
1.319642,-0.723829,26.288746,-0.418465,-2.074773,9.575521,0.209431,1.286426,4.107216,0.025299,-0.448729,0.102262,31.0,0.525,-26.625,-27.225,178.9523,9.2322,3.3229,1.97,25.07779,48.843853,2.352965,565.0007,NaN,0.0,38.03871,,8 / 25,538,2022-01-10 17:26:54:960
1.319642,-0.723829,26.288746,-0.418465,-2.074773,9.575521,0.209431,1.286426,4.107216,0.025299,-0.448729,0.102262,31.0,0.525,-26.625,-27.225,178.9523,9.2322,3.3229,1.97,25.07779,48.843853,2.352965,565.0007,NaN,0.0,38.03871,,8 / 25,538,2022-01-10 17:26:54:960
1.319642,-0.723829,26.288746,-0.418465,-2.074773,9.575521,0.209431,1.286426,4.107216,0.025299,-0.448729,0.102262,31.0,0.525,-26.625,-27.225,178.9523,9.2322,3.3229,1.97,25.07779,48.843853,2.352965,565.0007,NaN,0.0,38.03871,,8 / 25,538,2022-01-10 17:26:54:960
1.319642,-0.723829,26.288746,-0.418465,-2.074773,9.575521,0.209431,1.286426,4.107216,0.025299,-0.448729,0.102262,31.0,0.525,-26.625,-27.225,178.9523,9.2322,3.3229,1.97,25.07779,48.843853,2.352965,565.0007,NaN,0.0,38.03871,,8 / 25,542,2022-01-10 17:26:54:964
1.319642,-0.723829,26.288746,-0.418465,-2.074773,9.575521,0.209431,1.286426,4.107216,0.025299,-0.448729,0.102262,31.0,0.525,-26.625,-27.225,178.9523,9.2322,3.3229,1.97,30.29392,48.843853,2.352965,565.0007,NaN,0.0,38.03871,,8 / 25,548,2022-01-10 17:26:54:970
1.319642,-0.723829,26.288746,-0.418465,-2.074773,9.575521,0.209431,1.286426,4.107216,0.025299,-0.448729,0.102262,31.0,0.525,-26.625,-27.225,178.9523,9.2322,3.3229,1.97,30.29392,48.843853,2.352965,565.0007,NaN,0.0,38.03871,,8 / 25,552,2022-01-10 17:26:54:974
1.319642,-0.723829,26.288746,-0.418465,-2.074773,9.575521,0.209431,1.286426,4.107216,0.025299,-0.448729,0.102262,31.0,0.525,-26.625,-27.225,178.9523,9.2322,3.3229,1.97,30.29392,48.843853,2.352965,565.0007,NaN,0.0,38.03871,,8 / 25,557,2022-01-10 17:26:54:979
1.319642,-0.723829,26.288746,-0.418465,-2.074773,9.575521,0.209431,1.286426,4.107216,0.025299,-0.448729,0.102262,31.0,0.525,-26.625,-27.225,178.9523,9.2322,3.3229,1.97,30.29392,48.843853,2.352965,565.0007,NaN,0.0,38.03871,,8 / 25,562,2022-01-10 17:26:54:984
1.319642,-0.723829,26.288746,-0.418465,-2.074773,9.575521,0.209431,1.286426,4.107216,0.025299,-0.448729,0.102262,31.0,0.525,-26.625,-27.225,178.9523,9.2322,3.3229,1.97,30.29392,48.843853,2.352965,565.0007,NaN,0.0,38.03871,,8 / 25,567,2022-01-10 17:26:54:989
1.319642,-0.723829,26.288746,-0.418465,-2.074773,9.575521,0.209431,1.286426,4.107216,0.025299,-0.448729,0.102262,31.0,0.525,-26.625,-27.225,178.9523,9.2322,3.3229,1.97,30.29392,48.843853,2.352965,565.0007,NaN,0.0,38.03871,,8 / 25,572,2022-01-10 17:26:54:994
1.319642,-0.723829,26.288746,-0.418465,-2.074773,9.575521,0.209431,1.286426,4.107216,0.025299,-0.448729,0.102262,31.0,0.525,-26.625,-27.225,178.9523,9.2322,3.3229,1.97,30.29392,48.843853,2.352965,565.0007,NaN,0.0,38.03871,,8 / 25,576,2022-01-10 17:26:54:998
1.319642,-0.723829,26.288746,-0.418465,-2.074773,9.575521,0.209431,1.286426,4.107216,0.025299,-0.448729,0.102262,31.0,0.525,-26.625,-27.225,178.9523,9.2322,3.3229,1.97,30.29392,48.843853,2.352965,565.0007,NaN,0.0,38.03871,,8 / 25,582,2022-01-10 17:26:55:004
1.319642,-0.723829,26.288746,-0.418465,-2.074773,9.575521,0.209431,1.286426,4.107216,0.025299,-0.448729,0.102262,31.0,0.525,-26.625,-27.225,178.9523,9.2322,3.3229,1.97,30.29392,48.843853,2.352965,565.0007,NaN,0.0,38.03871,,8 / 25,587,2022-01-10 17:26:55:009
1.319642,-0.723829,26.288746,-0.418465,-2.074773,9.575521,0.209431,1.286426,4.107216,0.025299,-0.448729,0.102262,31.0,0.525,-26.625,-27.225,178.9523,9.2322,3.3229,1.97,30.29392,48.843853,2.352965,565.0007,NaN,0.0,38.03871,,8 / 25,592,2022-01-10 17:26:55:014
1.319642,-0.723829,26.288746,0.731945,4.959562,8.428369,1.665358,-4.690666,20.11564,13.862809,1.454443,-1.580539,31.0,0.525,-26.625,-27.225,178.9523,9.2322,3.3229,1.97,30.29392,48.843853,2.352965,565.0007,NaN,0.0,38.03871,,8 / 25,597,2022-01-10 17:26:55:019
1.319642,-0.723829,26.288746,0.731945,4.959562,8.428369,1.665358,-4.690666,20.11564,13.862809,1.454443,-1.580539,31.0,0.525,-26.625,-27.225,178.9523,9.2322,3.3229,1.97,30.29392,48.843853,2.352965,565.0007,NaN,0.0,38.03871,,8 / 25,601,2022-01-10 17:26:55:023
-0.16331,-14.103895,2.345864,0.731945,4.959562,8.428369,1.665358,-4.690666,20.11564,13.862809,1.454443,-1.580539,31.0,0.525,-26.625,-27.225,178.9523,9.2322,3.3229,1.97,30.29392,48.843853,2.352965,565.0007,NaN,0.0,38.03871,,8 / 25,607,2022-01-10 17:26:55:029
-0.16331,-14.103895,2.345864,0.731945,4.959562,8.428369,1.665358,-4.690666,20.11564,13.862809,1.454443,-1.580539,31.0,0.525,-26.625,-27.225,178.9523,9.2322,3.3229,1.97,30.29392,48.843853,2.352965,565.0007,NaN,0.0,38.03871,,8 / 25,612,2022-01-10 17:26:55:034
-0.16331,-14.103895,2.345864,0.731945,4.959562,8.428369,1.665358,-4.690666,20.11564,13.862809,1.454443,-1.580539,31.0,0.525,-26.625,-27.225,178.9523,9.2322,3.3229,1.97,30.29392,48.843853,2.352965,565.0007,NaN,0.0,38.03871,,8 / 25,617,2022-01-10 17:26:55:039
-0.16331,-14.103895,2.345864,0.731945,4.959562,8.428369,1.665358,-4.690666,20.11564,13.862809,1.454443,-1.580539,31.0,0.525,-26.625,-27.225,178.9523,9.2322,3.3229,1.97,30.29392,48.843853,2.352965,565.0007,NaN,0.0,38.03871,,8 / 25,622,2022-01-10 17:26:55:044
-0.16331,-14.103895,2.345864,0.731945,4.959562,8.428369,1.665358,-4.690666,20.11564,13.862809,1.454443,-1.580539,31.0,0.525,-26.625,-27.225,178.9523,9.2322,3.3229,1.97,30.29392,48.843853,2.352965,565.0007,NaN,0.0,38.03871,,8 / 25,626,2022-01-10 17:26:55:048
-0.16331,-14.103895,2.345864,0.731945,4.959562,8.428369,1.665358,-4.690666,20.11564,13.862809,1.454443,-1.580539,31.0,-1.95,-28.575,-25.05,180.7917,-30.3801,-4.9633,1.97,30.29392,48.843853,2.352965,565.0007,NaN,0.0,38.03871,,8 / 25,633,2022-01-10 17:26:55:055
-0.16331,-14.103895,2.345864,0.731945,4.959562,8.428369,1.665358,-4.690666,20.11564,13.862809,1.454443,-1.580539,31.0,-1.95,-28.575,-25.05,180.7917,-30.3801,-4.9633,1.97,30.29392,48.843853,2.352965,565.0007,NaN,0.0,38.03871,,8 / 25,637,2022-01-10 17:26:55:059
-0.16331,-14.103895,2.345864,0.731945,4.959562,8.428369,1.665358,-4.690666,20.11564,13.862809,1.454443,-1.580539,31.0,-1.95,-28.575,-25.05,180.7917,-30.3801,-4.9633,1.97,30.29392,48.843853,2.352965,565.0007,NaN,0.0,38.03871,,8 / 25,642,2022-01-10 17:26:55:064
-0.16331,-14.103895,2.345864,0.731945,4.959562,8.428369,1.665358,-4.690666,20.11564,13.862809,1.454443,-1.580539,31.0,-1.95,-28.575,-25.05,180.7917,-30.3801,-4.9633,1.97,30.29392,48.843853,2.352965,565.0007,NaN,0.0,38.03871,,8 / 25,647,2022-01-10 17:26:55:069
-0.16331,-14.103895,2.345864,0.731945,4.959562,8.428369,1.665358,-4.690666,20.11564,13.862809,1.454443,-1.580539,31.0,-1.95,-28.575,-25.05,180.7917,-30.3801,-4.9633,1.97,30.29392,48.843853,2.352965,565.0007,NaN,0.0,38.03871,,8 / 25,653,2022-01-10 17:26:55:075
-0.16331,-14.103895,2.345864,0.731945,4.959562,8.428369,1.665358,-4.690666,20.11564,13.862809,1.454443,-1.580539,31.0,-1.95,-28.575,-25.05,180.7917,-30.3801,-4.9633,1.97,30.29392,48.843853,2.352965,565.0007,NaN,0.0,38.03871,,8 / 25,657,2022-01-10 17:26:55:079
-0.16331,-14.103895,2.345864,0.731945,4.959562,8.428369,1.665358,-4.690666,20.11564,13.862809,1.454443,-1.580539,31.0,-1.95,-28.575,-25.05,180.7917,-30.3801,-4.9633,1.97,30.29392,48.843853,2.352965,565.0007,NaN,0.0,38.03871,,8 / 25,662,2022-01-10 17:26:55:084
-0.16331,-14.103895,2.345864,0.731945,4.959562,8.428369,1.665358,-4.690666,20.11564,13.862809,1.454443,-1.580539,31.0,-1.95,-28.575,-25.05,180.7917,-30.3801,-4.9633,1.97,30.29392,48.843853,2.352965,565.0007,NaN,0.0,38.03871,,8 / 25,667,2022-01-10 17:26:55:089
-0.16331,-14.103895,2.345864,0.731945,4.959562,8.428369,1.665358,-4.690666,20.11564,13.862809,1.454443,-1.580539,31.0,-1.95,-28.575,-25.05,180.7917,-30.3801,-4.9633,1.97,30.29392,48.843853,2.352965,565.0007,NaN,0.0,38.03871,,8 / 25,672,2022-01-10 17:26:55:094
-0.16331,-14.103895,2.345864,0.731945,4.959562,8.428369,1.665358,-4.690666,20.11564,13.862809,1.454443,-1.580539,31.0,-1.95,-28.575,-25.05,180.7917,-30.3801,-4.9633,1.97,30.29392,48.843853,2.352965,565.0007,NaN,0.0,38.03871,,8 / 25,678,2022-01-10 17:26:55:100
-0.16331,-14.103895,2.345864,0.731945,4.959562,8.428369,1.665358,-4.690666,20.11564,13.862809,1.454443,-1.580539,31.0,-1.95,-28.575,-25.05,180.7917,-30.3801,-4.9633,1.97,30.29392,48.843853,2.352965,565.0007,NaN,0.0,38.03871,,8 / 25,682,2022-01-10 17:26:55:104
-0.16331,-14.103895,2.345864,0.731945,4.959562,8.428369,1.665358,-4.690666,20.11564,13.862809,1.454443,-1.580539,31.0,-1.95,-28.575,-25.05,180.7917,-30.3801,-4.9633,1.97,30.29392,48.843853,2.352965,565.0007,NaN,0.0,38.03871,,8 / 25,687,2022-01-10 17:26:55:109
-0.16331,-14.103895,2.345864,0.731945,4.959562,8.428369,1.665358,-4.690666,20.11564,13.862809,1.454443,-1.580539,31.0,-1.95,-28.575,-25.05,180.7917,-30.3801,-4.9633,1.97,30.29392,48.843853,2.352965,565.0007,NaN,0.0,38.03871,,8 / 25,693,2022-01-10 17:26:55:115
-0.16331,-14.103895,2.345864,0.731945,4.959562,8.428369,1.665358,-4.690666,20.11564,13.862809,1.454443,-1.580539,31.0,-1.95,-28.575,-25.05,180.7917,-30.3801,-4.9633,1.97,30.29392,48.843853,2.352965,565.0007,NaN,0.0,38.03871,,8 / 25,697,2022-01-10 17:26:55:119
1.991427,-13.581661,-0.389731,0.731945,4.959562,8.428369,1.665358,-4.690666,20.11564,13.862809,1.454443,-1.580539,31.0,-1.95,-28.575,-25.05,180.7917,-30.3801,-4.9633,1.97,30.29392,48.843853,2.352965,565.0007,NaN,0.0,38.03871,,8 / 25,703,2022-01-10 17:26:55:125
1.991427,-13.581661,-0.389731,2.344217,3.025819,-9.028811,-1.553332,-16.439518,8.785517,13.862809,1.454443,-1.580539,2.0,-1.95,-28.575,-25.05,180.7917,-30.3801,-4.9633,1.97,30.29392,48.843853,2.352965,565.0007,NaN,0.0,38.03871,,8 / 25,708,2022-01-10 17:26:55:130
1.991427,-13.581661,-0.389731,2.344217,3.025819,-9.028811,-1.553332,-16.439518,8.785517,13.862809,1.454443,-1.580539,2.0,-1.95,-28.575,-25.05,180.7917,-30.3801,-4.9633,1.97,30.29392,48.843853,2.352965,565.0007,NaN,0.0,38.03871,,8 / 25,712,2022-01-10 17:26:55:134
1.991427,-13.581661,-0.389731,2.344217,3.025819,-9.028811,-1.553332,-16.439518,8.785517,13.862809,1.454443,-1.580539,2.0,-1.95,-28.575,-25.05,180.7917,-30.3801,-4.9633,1.97,30.29392,48.843853,2.352965,565.0007,NaN,0.0,38.03871,,8 / 25,717,2022-01-10 17:26:55:139
1.991427,-13.581661,-0.389731,2.344217,3.025819,-9.028811,-1.553332,-16.439518,8.785517,13.862809,1.454443,-1.580539,2.0,-1.95,-28.575,-25.05,180.7917,-30.3801,-4.9633,1.97,30.29392,48.843853,2.352965,565.0007,NaN,0.0,38.03871,,8 / 25,722,2022-01-10 17:26:55:144
1.991427,-13.581661,-0.389731,2.344217,3.025819,-9.028811,-1.553332,-16.439518,8.785517,18.359558,7.138526,4.932296,2.0,-1.95,-28.575,-25.05,180.7917,-30.3801,-4.9633,1.97,30.29392,48.843853,2.352965,565.0007,NaN,0.0,38.03871,,8 / 25,727,2022-01-10 17:26:55:149
1.991427,-13.581661,-0.389731,2.344217,3.025819,-9.028811,-1.553332,-16.439518,8.785517,18.359558,7.138526,4.932296,2.0,-1.95,-28.575,-25.05,180.7917,-30.3801,-4.9633,1.97,30.29392,48.843853,2.352965,565.0007,NaN,0.0,38.03871,,8 / 25,732,2022-01-10 17:26:55:154
1.991427,-13.581661,-0.389731,2.344217,3.025819,-9.028811,-1.553332,-16.439518,8.785517,18.359558,7.138526,4.932296,2.0,-1.95,-28.575,-25.05,180.7917,-30.3801,-4.9633,1.97,30.29392,48.843853,2.352965,565.0007,NaN,0.0,38.03871,,8 / 25,737,2022-01-10 17:26:55:159
1.991427,-13.581661,-0.389731,2.344217,3.025819,-9.028811,-1.553332,-16.439518,8.785517,18.359558,7.138526,4.932296,2.0,-1.95,-28.575,-25.05,180.7917,-30.3801,-4.9633,1.97,30.29392,48.843853,2.352965,565.0007,NaN,0.0,38.03871,,8 / 25,743,2022-01-10 17:26:55:165
1.991427,-13.581661,-0.389731,2.344217,3.025819,-9.028811,-1.553332,-16.439518,8.785517,18.359558,7.138526,4.932296,2.0,-1.95,-28.575,-25.05,180.7917,-30.3801,-4.9633,1.97,30.29392,48.843853,2.352965,565.0007,NaN,0.0,38.03871,,8 / 25,747,2022-01-10 17:26:55:169
1.991427,-13.581661,-0.389731,2.344217,3.025819,-9.028811,-1.553332,-16.439518,8.785517,18.359558,7.138526,4.932296,2.0,-1.95,-28.575,-25.05,180.7917,-30.3801,-4.9633,1.97,30.29392,48.843853,2.352965,565.0007,NaN,0.0,38.03871,,8 / 25,751,2022-01-10 17:26:55:173
1.991427,-13.581661,-0.389731,2.344217,3.025819,-9.028811,-1.553332,-16.439518,8.785517,18.359558,7.138526,4.932296,2.0,-1.95,-28.575,-25.05,180.7917,-30.3801,-4.9633,1.97,30.29392,48.843853,2.352965,565.0007,NaN,0.0,38.03871,,8 / 25,757,2022-01-10 17:26:55:179
1.991427,-13.581661,-0.389731,2.344217,3.025819,-9.028811,-1.553332,-16.439518,8.785517,18.359558,7.138526,4.932296,2.0,-1.95,-28.575,-25.05,180.7917,-30.3801,-4.9633,1.97,30.29392,48.843853,2.352965,565.0007,NaN,0.0,38.03871,,8 / 25,761,2022-01-10 17:26:55:183
1.991427,-13.581661,-0.389731,2.344217,3.025819,-9.028811,-1.553332,-16.439518,8.785517,18.359558,7.138526,4.932296,2.0,-1.95,-28.575,-25.05,180.7917,-30.3801,-4.9633,1.97,30.29392,48.843853,2.352965,565.0007,NaN,0.0,38.03871,,8 / 25,767,2022-01-10 17:26:55:189
1.991427,-13.581661,-0.389731,2.344217,3.025819,-9.028811,-1.553332,-16.439518,8.785517,18.359558,7.138526,4.932296,2.0,-1.95,-28.575,-25.05,180.7917,-30.3801,-4.9633,1.97,30.29392,48.843853,2.352965,565.0007,NaN,0.0,38.03871,,8 / 25,771,2022-01-10 17:26:55:193
1.991427,-13.581661,-0.389731,2.344217,3.025819,-9.028811,-1.553332,-16.439518,8.785517,18.359558,7.138526,4.932296,2.0,-1.95,-28.575,-25.05,180.7917,-30.3801,-4.9633,1.97,30.29392,48.843853,2.352965,565.0007,NaN,0.0,38.03871,,8 / 25,777,2022-01-10 17:26:55:199
1.991427,-13.581661,-0.389731,2.344217,3.025819,-9.028811,-1.553332,-16.439518,8.785517,18.359558,7.138526,4.932296,2.0,-1.95,-28.575,-25.05,180.7917,-30.3801,-4.9633,1.97,30.29392,48.843853,2.352965,565.0007,NaN,0.0,38.03871,,8 / 25,784,2022-01-10 17:26:55:206
1.991427,-13.581661,-0.389731,2.344217,3.025819,-9.028811,-1.553332,-16.439518,8.785517,18.359558,7.138526,4.932296,2.0,-1.95,-28.575,-25.05,180.7917,-30.3801,-4.9633,1.97,30.29392,48.843853,2.352965,565.0007,NaN,0.0,38.03871,,8 / 25,786,2022-01-10 17:26:55:208
1.991427,-13.581661,-0.389731,2.344217,3.025819,-9.028811,-1.553332,-16.439518,8.785517,18.359558,7.138526,4.932296,2.0,-1.95,-28.575,-25.05,180.7917,-30.3801,-4.9633,1.97,30.29392,48.843853,2.352965,565.0007,NaN,0.0,38.03871,,8 / 25,792,2022-01-10 17:26:55:214
1.991427,-13.581661,-0.389731,2.344217,3.025819,-9.028811,-1.553332,-16.439518,8.785517,18.359558,7.138526,4.932296,2.0,-1.95,-28.575,-25.05,180.7917,-30.3801,-4.9633,1.97,30.29392,48.843853,2.352965,565.0007,NaN,0.0,38.03871,,8 / 25,797,2022-01-10 17:26:55:219
1.991427,-13.581661,-0.389731,2.344217,3.025819,-9.028811,-1.553332,-16.439518,8.785517,18.359558,7.138526,4.932296,2.0,-1.95,-28.575,-25.05,180.7917,-30.3801,-4.9633,1.97,30.29392,48.843853,2.352965,565.0007,NaN,0.0,38.03871,,8 / 25,802,2022-01-10 17:26:55:224
5.196613,-8.516355,-0.287737,2.344217,3.025819,-9.028811,-1.553332,-16.439518,8.785517,18.359558,7.138526,4.932296,2.0,-1.95,-28.575,-25.05,180.7917,-30.3801,-4.9633,1.97,30.29392,48.843853,2.352965,565.0007,NaN,0.0,38.03871,,8 / 25,808,2022-01-10 17:26:55:230
5.196613,-8.516355,-0.287737,2.344217,3.025819,-9.028811,-1.553332,-16.439518,8.785517,18.359558,7.138526,4.932296,2.0,-1.95,-28.575,-25.05,180.7917,-30.3801,-4.9633,1.97,30.29392,48.843853,2.352965,565.0007,NaN,0.0,38.03871,,8 / 25,812,2022-01-10 17:26:55:234
5.196613,-8.516355,-0.287737,2.344217,3.025819,-9.028811,-1.553332,-16.439518,8.785517,18.359558,7.138526,4.932296,2.0,-1.95,-28.575,-25.05,180.7917,-30.3801,-4.9633,1.97,30.29392,48.843853,2.352965,565.0007,NaN,0.0,38.03871,,8 / 25,816,2022-01-10 17:26:55:238
5.196613,-8.516355,-0.287737,2.344217,3.025819,-9.028811,-1.553332,-16.439518,8.785517,18.359558,7.138526,4.932296,2.0,-1.95,-28.575,-25.05,180.7917,-30.3801,-4.9633,1.97,30.29392,48.843853,2.352965,565.0007,NaN,0.0,38.03871,,8 / 25,822,2022-01-10 17:26:55:244
5.196613,-8.516355,-0.287737,2.344217,3.025819,-9.028811,-1.553332,-16.439518,8.785517,18.359558,7.138526,4.932296,2.0,-1.95,-28.575,-25.05,180.7917,-30.3801,-4.9633,1.97,30.29392,48.843853,2.352965,565.0007,NaN,0.0,38.03871,,8 / 25,827,2022-01-10 17:26:55:249
5.196613,-8.516355,-0.287737,2.344217,3.025819,-9.028811,-1.553332,-16.439518,8.785517,18.359558,7.138526,4.932296,2.0,-0.075,-8.175,-14.475,196.6148,-17.9717,-165.4452,1.97,30.29392,48.843853,2.352965,565.0007,NaN,0.0,38.03871,,8 / 25,832,2022-01-10 17:26:55:254
5.196613,-8.516355,-0.287737,2.344217,3.025819,-9.028811,-1.553332,-16.439518,8.785517,18.359558,7.138526,4.932296,2.0,-0.075,-8.175,-14.475,196.6148,-17.9717,-165.4452,1.97,30.29392,48.843853,2.352965,565.0007,NaN,0.0,38.03871,,8 / 25,837,2022-01-10 17:26:55:259
5.196613,-8.516355,-0.287737,-2.077835,-9.404147,1.847971,6.508241,-3.682525,-1.958638,18.359558,7.138526,4.932296,2.0,-0.075,-8.175,-14.475,196.6148,-17.9717,-165.4452,1.97,30.29392,48.843853,2.352965,565.0007,NaN,0.0,38.03871,,8 / 25,843,2022-01-10 17:26:55:265
5.196613,-8.516355,-0.287737,-2.077835,-9.404147,1.847971,6.508241,-3.682525,-1.958638,18.359558,7.138526,4.932296,2.0,-0.075,-8.175,-14.475,196.6148,-17.9717,-165.4452,1.97,30.29392,48.843853,2.352965,565.0007,NaN,0.0,38.03871,,8 / 25,846,2022-01-10 17:26:55:268
5.196613,-8.516355,-0.287737,-2.077835,-9.404147,1.847971,6.508241,-3.682525,-1.958638,18.359558,7.138526,4.932296,2.0,-0.075,-8.175,-14.475,196.6148,-17.9717,-165.4452,1.97,30.29392,48.843853,2.352965,565.0007,NaN,0.0,38.03871,,8 / 25,852,2022-01-10 17:26:55:274
5.196613,-8.516355,-0.287737,-2.077835,-9.404147,1.847971,6.508241,-3.682525,-1.958638,-4.614856,17.865156,14.119664,2.0,-0.075,-8.175,-14.475,196.6148,-17.9717,-165.4452,1.97,30.29392,48.843853,2.352965,565.0007,NaN,0.0,38.03871,,8 / 25,857,2022-01-10 17:26:55:279
5.196613,-8.516355,-0.287737,-2.077835,-9.404147,1.847971,6.508241,-3.682525,-1.958638,-4.614856,17.865156,14.119664,2.0,-0.075,-8.175,-14.475,196.6148,-17.9717,-165.4452,1.97,30.29392,48.843853,2.352965,565.0007,NaN,0.0,38.03871,,8 / 25,862,2022-01-10 17:26:55:284
5.196613,-8.516355,-0.287737,-2.077835,-9.404147,1.847971,6.508241,-3.682525,-1.958638,-4.614856,17.865156,14.119664,2.0,-0.075,-8.175,-14.475,196.6148,-17.9717,-165.4452,1.97,30.29392,48.843853,2.352965,565.0007,NaN,0.0,38.03871,,8 / 25,867,2022-01-10 17:26:55:289
5.196613,-8.516355,-0.287737,-2.077835,-9.404147,1.847971,6.508241,-3.682525,-1.958638,-4.614856,17.865156,14.119664,2.0,-0.075,-8.175,-14.475,196.6148,-17.9717,-165.4452,1.97,61.52077,48.843853,2.352965,565.0007,NaN,0.0,38.03871,,8 / 25,872,2022-01-10 17:26:55:294
5.196613,-8.516355,-0.287737,-2.077835,-9.404147,1.847971,6.508241,-3.682525,-1.958638,-4.614856,17.865156,14.119664,2.0,-0.075,-8.175,-14.475,196.6148,-17.9717,-165.4452,1.97,61.52077,48.843853,2.352965,565.0007,NaN,0.0,38.03871,,8 / 25,877,2022-01-10 17:26:55:299
5.196613,-8.516355,-0.287737,-2.077835,-9.404147,1.847971,6.508241,-3.682525,-1.958638,-4.614856,17.865156,14.119664,2.0,-0.075,-8.175,-14.475,196.6148,-17.9717,-165.4452,1.97,61.52077,48.843853,2.352965,565.0007,NaN,0.0,38.03871,,8 / 25,881,2022-01-10 17:26:55:303
5.196613,-8.516355,-0.287737,-2.077835,-9.404147,1.847971,6.508241,-3.682525,-1.958638,-4.614856,17.865156,14.119664,2.0,-0.075,-8.175,-14.475,196.6148,-17.9717,-165.4452,1.97,61.52077,48.843853,2.352965,565.0007,NaN,0.0,38.03871,,8 / 25,887,2022-01-10 17:26:55:309
-1.211366,-8.710473,-0.412463,-2.077835,-9.404147,1.847971,6.508241,-3.682525,-1.958638,-4.614856,17.865156,14.119664,2.0,-0.075,-8.175,-14.475,196.6148,-17.9717,-165.4452,1.97,61.52077,48.843853,2.352965,565.0007,NaN,0.0,38.03871,,8 / 25,892,2022-01-10 17:26:55:314
-1.211366,-8.710473,-0.412463,-2.077835,-9.404147,1.847971,6.508241,-3.682525,-1.958638,-4.614856,17.865156,14.119664,2.0,-0.075,-8.175,-14.475,196.6148,-17.9717,-165.4452,1.97,61.52077,48.843853,2.352965,565.0007,NaN,0.0,38.03871,,8 / 25,897,2022-01-10 17:26:55:319
-1.211366,-8.710473,-0.412463,-2.077835,-9.404147,1.847971,6.508241,-3.682525,-1.958638,-4.614856,17.865156,14.119664,2.0,-0.075,-8.175,-14.475,196.6148,-17.9717,-165.4452,1.97,61.52077,48.843853,2.352965,565.0007,NaN,0.0,38.03871,,8 / 25,903,2022-01-10 17:26:55:325
-1.211366,-8.710473,-0.412463,-2.077835,-9.404147,1.847971,6.508241,-3.682525,-1.958638,-4.614856,17.865156,14.119664,2.0,-0.075,-8.175,-14.475,196.6148,-17.9717,-165.4452,1.97,61.52077,48.843853,2.352965,565.0007,NaN,0.0,38.03871,,8 / 25,907,2022-01-10 17:26:55:329
-1.211366,-8.710473,-0.412463,-2.077835,-9.404147,1.847971,6.508241,-3.682525,-1.958638,-4.614856,17.865156,14.119664,2.0,-0.075,-8.175,-14.475,196.6148,-17.9717,-165.4452,1.97,61.52077,48.843853,2.352965,565.0007,NaN,0.0,38.03871,,8 / 25,913,2022-01-10 17:26:55:335
-1.211366,-8.710473,-0.412463,-2.077835,-9.404147,1.847971,6.508241,-3.682525,-1.958638,-4.614856,17.865156,14.119664,2.0,-0.075,-8.175,-14.475,196.6148,-17.9717,-165.4452,1.97,61.52077,48.843853,2.352965,565.0007,NaN,0.0,38.03871,,8 / 25,918,2022-01-10 17:26:55:340
-1.211366,-8.710473,-0.412463,-2.077835,-9.404147,1.847971,6.508241,-3.682525,-1.958638,-4.614856,17.865156,14.119664,2.0,-0.075,-8.175,-14.475,196.6148,-17.9717,-165.4452,1.97,61.52077,48.843853,2.352965,565.0007,NaN,0.0,38.03871,,8 / 25,921,2022-01-10 17:26:55:343
-1.211366,-8.710473,-0.412463,-2.077835,-9.404147,1.847971,6.508241,-3.682525,-1.958638,-4.614856,17.865156,14.119664,2.0,-0.075,-8.175,-14.475,196.6148,-17.9717,-165.4452,1.97,61.52077,48.843853,2.352965,565.0007,NaN,0.0,38.03871,,8 / 25,928,2022-01-10 17:26:55:350
-1.211366,-8.710473,-0.412463,-2.077835,-9.404147,1.847971,6.508241,-3.682525,-1.958638,-4.614856,17.865156,14.119664,3.0,-0.075,-8.175,-14.475,196.6148,-17.9717,-165.4452,1.97,61.52077,48.843853,2.352965,565.0007,NaN,0.0,38.03871,,8 / 25,932,2022-01-10 17:26:55:354
-1.211366,-8.710473,-0.412463,-2.077835,-9.404147,1.847971,6.508241,-3.682525,-1.958638,-4.614856,17.865156,14.119664,3.0,-0.075,-8.175,-14.475,196.6148,-17.9717,-165.4452,1.97,61.52077,48.843853,2.352965,565.0007,NaN,0.0,38.03871,,8 / 25,937,2022-01-10 17:26:55:359
-1.211366,-8.710473,-0.412463,-2.077835,-9.404147,1.847971,6.508241,-3.682525,-1.958638,-4.614856,17.865156,14.119664,3.0,-0.075,-8.175,-14.475,196.6148,-17.9717,-165.4452,1.97,61.52077,48.843853,2.352965,565.0007,NaN,0.0,38.03871,,8 / 25,942,2022-01-10 17:26:55:364
-1.211366,-8.710473,-0.412463,-2.077835,-9.404147,1.847971,6.508241,-3.682525,-1.958638,-4.614856,17.865156,14.119664,3.0,-0.075,-8.175,-14.475,196.6148,-17.9717,-165.4452,1.97,61.52077,48.843853,2.352965,565.0007,NaN,0.0,38.03871,,8 / 25,947,2022-01-10 17:26:55:369
-1.211366,-8.710473,-0.412463,-0.952531,6.276451,-7.474572,0.187997,-12.735764,5.527866,-4.614856,17.865156,14.119664,3.0,-0.075,-8.175,-14.475,196.6148,-17.9717,-165.4452,1.97,61.52077,48.843853,2.352965,565.0007,NaN,0.0,38.03871,,8 / 25,953,2022-01-10 17:26:55:375
-1.211366,-8.710473,-0.412463,-0.952531,6.276451,-7.474572,0.187997,-12.735764,5.527866,-4.614856,17.865156,14.119664,3.0,-0.075,-8.175,-14.475,196.6148,-17.9717,-165.4452,1.97,61.52077,48.843853,2.352965,565.0007,NaN,0.0,38.03871,,8 / 25,957,2022-01-10 17:26:55:379
-1.211366,-8.710473,-0.412463,-0.952531,6.276451,-7.474572,0.187997,-12.735764,5.527866,-4.614856,17.865156,14.119664,3.0,-0.075,-8.175,-14.475,196.6148,-17.9717,-165.4452,1.97,61.52077,48.843853,2.352965,565.0007,NaN,0.0,38.03871,,8 / 25,963,2022-01-10 17:26:55:385
-1.211366,-8.710473,-0.412463,-0.952531,6.276451,-7.474572,0.187997,-12.735764,5.527866,-4.614856,17.865156,14.119664,3.0,-0.075,-8.175,-14.475,196.6148,-17.9717,-165.4452,1.97,61.52077,48.843853,2.352965,565.0007,NaN,0.0,38.03871,,8 / 25,966,2022-01-10 17:26:55:388
-1.211366,-8.710473,-0.412463,-0.952531,6.276451,-7.474572,0.187997,-12.735764,5.527866,-4.614856,17.865156,14.119664,3.0,-0.075,-8.175,-14.475,196.6148,-17.9717,-165.4452,1.97,61.52077,48.843857,2.3529298,531.0504,NaN,0.0,34.580647,,8 / 25,973,2022-01-10 17:26:55:395
-1.211366,-8.710473,-0.412463,-0.952531,6.276451,-7.474572,0.187997,-12.735764,5.527866,-4.614856,17.865156,14.119664,3.0,-0.075,-8.175,-14.475,196.6148,-17.9717,-165.4452,1.97,61.52077,48.843857,2.3529298,531.0504,NaN,0.0,34.580647,,8 / 25,977,2022-01-10 17:26:55:399
-2.062912,6.585945,2.634498,-0.952531,6.276451,-7.474572,0.187997,-12.735764,5.527866,-4.614856,17.865156,14.119664,3.0,-0.075,-8.175,-14.475,196.6148,-17.9717,-165.4452,1.97,61.52077,48.843857,2.3529298,531.0504,NaN,0.0,34.580647,,8 / 25,982,2022-01-10 17:26:55:404
-2.062912,6.585945,2.634498,-0.952531,6.276451,-7.474572,0.187997,-12.735764,5.527866,-4.614856,17.865156,14.119664,3.0,-0.075,-8.175,-14.475,196.6148,-17.9717,-165.4452,1.97,61.52077,48.843857,2.3529298,531.0504,NaN,0.0,34.580647,,8 / 25,987,2022-01-10 17:26:55:409
-2.062912,6.585945,2.634498,-0.952531,6.276451,-7.474572,0.187997,-12.735764,5.527866,-16.84959,5.400199,2.593976,3.0,-0.075,-8.175,-14.475,196.6148,-17.9717,-165.4452,1.97,61.52077,48.843857,2.3529298,531.0504,NaN,0.0,34.580647,,8 / 25,992,2022-01-10 17:26:55:414
-2.062912,6.585945,2.634498,-0.952531,6.276451,-7.474572,0.187997,-12.735764,5.527866,-16.84959,5.400199,2.593976,3.0,-0.075,-8.175,-14.475,196.6148,-17.9717,-165.4452,1.97,61.52077,48.843857,2.3529298,531.0504,NaN,0.0,34.580647,,8 / 25,998,2022-01-10 17:26:55:420
-2.062912,6.585945,2.634498,-0.952531,6.276451,-7.474572,0.187997,-12.735764,5.527866,-16.84959,5.400199,2.593976,3.0,-0.075,-8.175,-14.475,196.6148,-17.9717,-165.4452,1.97,61.52077,48.843857,2.3529298,531.0504,NaN,0.0,34.580647,,8 / 25,1002,2022-01-10 17:26:55:424
-2.062912,6.585945,2.634498,-0.952531,6.276451,-7.474572,0.187997,-12.735764,5.527866,-16.84959,5.400199,2.593976,3.0,-0.075,-8.175,-14.475,196.6148,-17.9717,-165.4452,1.97,61.52077,48.843857,2.3529298,531.0504,NaN,0.0,34.580647,,8 / 25,1010,2022-01-10 17:26:55:432
-2.062912,6.585945,2.634498,-0.952531,6.276451,-7.474572,0.187997,-12.735764,5.527866,-16.84959,5.400199,2.593976,3.0,-0.075,-8.175,-14.475,196.6148,-17.9717,-165.4452,1.97,61.52077,48.843857,2.3529298,531.0504,NaN,0.0,34.580647,,8 / 25,1012,2022-01-10 17:26:55:434
-2.062912,6.585945,2.634498,-0.952531,6.276451,-7.474572,0.187997,-12.735764,5.527866,-16.84959,5.400199,2.593976,3.0,-0.075,-8.175,-14.475,196.6148,-17.9717,-165.4452,1.97,61.52077,48.843857,2.3529298,531.0504,NaN,0.0,34.580647,,8 / 25,1017,2022-01-10 17:26:55:439
-2.062912,6.585945,2.634498,-0.952531,6.276451,-7.474572,0.187997,-12.735764,5.527866,-16.84959,5.400199,2.593976,3.0,-0.075,-8.175,-14.475,196.6148,-17.9717,-165.4452,1.97,61.52077,48.843857,2.3529298,531.0504,NaN,0.0,34.580647,,8 / 25,1023,2022-01-10 17:26:55:445
-2.062912,6.585945,2.634498,-0.952531,6.276451,-7.474572,0.187997,-12.735764,5.527866,-16.84959,5.400199,2.593976,3.0,-0.075,-8.175,-14.475,196.6148,-17.9717,-165.4452,1.97,61.52077,48.843857,2.3529298,531.0504,NaN,0.0,34.580647,,8 / 25,1028,2022-01-10 17:26:55:450
-2.062912,6.585945,2.634498,-0.952531,6.276451,-7.474572,0.187997,-12.735764,5.527866,-16.84959,5.400199,2.593976,3.0,2.55,-8.7,2.475,153.2508,-39.7933,172.7376,1.97,61.52077,48.843857,2.3529298,531.0504,NaN,0.0,34.580647,,8 / 25,1032,2022-01-10 17:26:55:454
-2.062912,6.585945,2.634498,-0.952531,6.276451,-7.474572,0.187997,-12.735764,5.527866,-16.84959,5.400199,2.593976,3.0,2.55,-8.7,2.475,153.2508,-39.7933,172.7376,1.97,61.52077,48.843857,2.3529298,531.0504,NaN,0.0,34.580647,,8 / 25,1037,2022-01-10 17:26:55:459
-2.062912,6.585945,2.634498,-0.952531,6.276451,-7.474572,0.187997,-12.735764,5.527866,-16.84959,5.400199,2.593976,3.0,2.55,-8.7,2.475,153.2508,-39.7933,172.7376,1.97,61.52077,48.843857,2.3529298,531.0504,NaN,0.0,34.580647,,8 / 25,1044,2022-01-10 17:26:55:466
-2.062912,6.585945,2.634498,-0.952531,6.276451,-7.474572,0.187997,-12.735764,5.527866,-16.84959,5.400199,2.593976,3.0,2.55,-8.7,2.475,153.2508,-39.7933,172.7376,1.97,61.52077,48.843857,2.3529298,531.0504,NaN,0.0,34.580647,,8 / 25,1046,2022-01-10 17:26:55:468
-2.062912,6.585945,2.634498,-0.952531,6.276451,-7.474572,0.187997,-12.735764,5.527866,-16.84959,5.400199,2.593976,3.0,2.55,-8.7,2.475,153.2508,-39.7933,172.7376,1.97,61.52077,48.843857,2.3529298,531.0504,NaN,0.0,34.580647,,8 / 25,1053,2022-01-10 17:26:55:475
-2.062912,6.585945,2.634498,-0.952531,6.276451,-7.474572,0.187997,-12.735764,5.527866,-16.84959,5.400199,2.593976,3.0,2.55,-8.7,2.475,153.2508,-39.7933,172.7376,1.97,61.52077,48.843857,2.3529298,531.0504,NaN,0.0,34.580647,,8 / 25,1057,2022-01-10 17:26:55:479
-2.062912,6.585945,2.634498,-0.952531,6.276451,-7.474572,0.187997,-12.735764,5.527866,-16.84959,5.400199,2.593976,3.0,2.55,-8.7,2.475,153.2508,-39.7933,172.7376,1.97,61.52077,48.843857,2.3529298,531.0504,NaN,0.0,34.580647,,8 / 25,1062,2022-01-10 17:26:55:484
-2.062912,6.585945,2.634498,-0.952531,6.276451,-7.474572,0.187997,-12.735764,5.527866,-16.84959,5.400199,2.593976,3.0,2.55,-8.7,2.475,153.2508,-39.7933,172.7376,1.97,61.52077,48.843857,2.3529298,531.0504,NaN,0.0,34.580647,,8 / 25,1068,2022-01-10 17:26:55:490
19.658234,25.302902,57.25277,2.16857,6.23063,7.255822,0.187997,-12.735764,5.527866,-16.84959,5.400199,2.593976,3.0,2.55,-8.7,2.475,153.2508,-39.7933,172.7376,1.97,61.52077,48.843857,2.3529298,531.0504,NaN,0.0,34.580647,,8 / 25,1072,2022-01-10 17:26:55:494
19.658234,25.302902,57.25277,2.16857,6.23063,7.255822,-2.021086,0.009137,-4.646742,-16.84959,5.400199,2.593976,3.0,2.55,-8.7,2.475,153.2508,-39.7933,172.7376,1.97,61.52077,48.843857,2.3529298,531.0504,NaN,0.0,34.580647,,8 / 25,1076,2022-01-10 17:26:55:498
19.658234,25.302902,57.25277,2.16857,6.23063,7.255822,-2.021086,0.009137,-4.646742,-16.84959,5.400199,2.593976,3.0,2.55,-8.7,2.475,153.2508,-39.7933,172.7376,1.97,61.52077,48.843857,2.3529298,531.0504,NaN,0.0,34.580647,,8 / 25,1081,2022-01-10 17:26:55:503
19.658234,25.302902,57.25277,2.16857,6.23063,7.255822,-2.021086,0.009137,-4.646742,-16.84959,5.400199,2.593976,3.0,2.55,-8.7,2.475,153.2508,-39.7933,172.7376,1.97,61.52077,48.843857,2.3529298,531.0504,NaN,0.0,34.580647,,8 / 25,1087,2022-01-10 17:26:55:509
19.658234,25.302902,57.25277,2.16857,6.23063,7.255822,-2.021086,0.009137,-4.646742,-16.84959,5.400199,2.593976,3.0,2.55,-8.7,2.475,153.2508,-39.7933,172.7376,1.97,61.52077,48.843857,2.3529298,531.0504,NaN,0.0,34.580647,,8 / 25,1092,2022-01-10 17:26:55:514
19.658234,25.302902,57.25277,2.16857,6.23063,7.255822,-2.021086,0.009137,-4.646742,-16.84959,5.400199,2.593976,3.0,2.55,-8.7,2.475,153.2508,-39.7933,172.7376,1.97,61.52077,48.843857,2.3529298,531.0504,NaN,0.0,34.580647,,8 / 25,1098,2022-01-10 17:26:55:520
19.658234,25.302902,57.25277,2.16857,6.23063,7.255822,-2.021086,0.009137,-4.646742,-16.84959,5.400199,2.593976,3.0,2.55,-8.7,2.475,153.2508,-39.7933,172.7376,1.97,61.52077,48.843857,2.3529298,531.0504,NaN,0.0,34.580647,,8 / 25,1101,2022-01-10 17:26:55:523
19.658234,25.302902,57.25277,2.16857,6.23063,7.255822,-2.021086,0.009137,-4.646742,-16.84959,5.400199,2.593976,29.0,2.55,-8.7,2.475,153.2508,-39.7933,172.7376,1.97,61.52077,48.843857,2.3529298,531.0504,NaN,0.0,34.580647,,8 / 25,1107,2022-01-10 17:26:55:529
19.658234,25.302902,57.25277,2.16857,6.23063,7.255822,-2.021086,0.009137,-4.646742,-16.84959,5.400199,2.593976,29.0,2.55,-8.7,2.475,153.2508,-39.7933,172.7376,1.97,61.52077,48.843857,2.3529298,531.0504,NaN,0.0,34.580647,,8 / 25,1111,2022-01-10 17:26:55:533
19.658234,25.302902,57.25277,2.16857,6.23063,7.255822,-2.021086,0.009137,-4.646742,-16.84959,5.400199,2.593976,29.0,2.55,-8.7,2.475,153.2508,-39.7933,172.7376,1.97,61.52077,48.843857,2.3529298,531.0504,NaN,0.0,34.580647,,8 / 25,1117,2022-01-10 17:26:55:539
19.658234,25.302902,57.25277,2.16857,6.23063,7.255822,-2.021086,0.009137,-4.646742,-16.84959,5.400199,2.593976,29.0,2.55,-8.7,2.475,153.2508,-39.7933,172.7376,1.97,61.52077,48.843857,2.3529298,531.0504,NaN,0.0,34.580647,,8 / 25,1122,2022-01-10 17:26:55:544
19.658234,25.302902,57.25277,2.16857,6.23063,7.255822,-2.021086,0.009137,-4.646742,0.597329,-4.02698,-2.152436,29.0,2.55,-8.7,2.475,153.2508,-39.7933,172.7376,1.97,61.52077,48.843857,2.3529298,531.0504,NaN,0.0,34.580647,,8 / 25,1126,2022-01-10 17:26:55:548
19.658234,25.302902,57.25277,2.16857,6.23063,7.255822,-2.021086,0.009137,-4.646742,0.597329,-4.02698,-2.152436,29.0,2.55,-8.7,2.475,153.2508,-39.7933,172.7376,1.97,61.52077,48.843857,2.3529298,531.0504,NaN,0.0,34.580647,,8 / 25,1132,2022-01-10 17:26:55:554
19.658234,25.302902,57.25277,2.16857,6.23063,7.255822,-2.021086,0.009137,-4.646742,0.597329,-4.02698,-2.152436,29.0,2.55,-8.7,2.475,153.2508,-39.7933,172.7376,1.97,61.52077,48.843857,2.3529298,531.0504,NaN,0.0,34.580647,,8 / 25,1137,2022-01-10 17:26:55:559
19.658234,25.302902,57.25277,2.16857,6.23063,7.255822,-2.021086,0.009137,-4.646742,0.597329,-4.02698,-2.152436,29.0,2.55,-8.7,2.475,153.2508,-39.7933,172.7376,1.97,61.52077,48.843857,2.3529298,531.0504,NaN,0.0,34.580647,,8 / 25,1143,2022-01-10 17:26:55:565
19.658234,25.302902,57.25277,2.16857,6.23063,7.255822,-2.021086,0.009137,-4.646742,0.597329,-4.02698,-2.152436,29.0,2.55,-8.7,2.475,153.2508,-39.7933,172.7376,1.97,61.52077,48.843857,2.3529298,531.0504,NaN,0.0,34.580647,,8 / 25,1146,2022-01-10 17:26:55:568
19.658234,25.302902,57.25277,2.16857,6.23063,7.255822,-2.021086,0.009137,-4.646742,0.597329,-4.02698,-2.152436,29.0,2.55,-8.7,2.475,153.2508,-39.7933,172.7376,1.97,61.52077,48.843857,2.3529298,531.0504,NaN,0.0,34.580647,,8 / 25,1152,2022-01-10 17:26:55:574
19.658234,25.302902,57.25277,2.16857,6.23063,7.255822,-2.021086,0.009137,-4.646742,0.597329,-4.02698,-2.152436,29.0,2.55,-8.7,2.475,153.2508,-39.7933,172.7376,1.97,61.52077,48.843857,2.3529298,531.0504,NaN,0.0,34.580647,,8 / 25,1156,2022-01-10 17:26:55:578
19.658234,25.302902,57.25277,2.16857,6.23063,7.255822,-2.021086,0.009137,-4.646742,0.597329,-4.02698,-2.152436,29.0,2.55,-8.7,2.475,153.2508,-39.7933,172.7376,1.97,61.52077,48.843857,2.3529298,531.0504,NaN,0.0,34.580647,,8 / 25,1162,2022-01-10 17:26:55:584
19.658234,25.302902,57.25277,2.16857,6.23063,7.255822,-2.021086,0.009137,-4.646742,0.597329,-4.02698,-2.152436,29.0,2.55,-8.7,2.475,153.2508,-39.7933,172.7376,1.97,61.52077,48.843857,2.3529298,531.0504,NaN,0.0,34.580647,,8 / 25,1166,2022-01-10 17:26:55:588
19.658234,25.302902,57.25277,2.16857,6.23063,7.255822,-2.021086,0.009137,-4.646742,0.597329,-4.02698,-2.152436,29.0,2.55,-8.7,2.475,153.2508,-39.7933,172.7376,1.97,61.52077,48.843857,2.3529298,531.0504,NaN,0.0,34.580647,,8 / 25,1172,2022-01-10 17:26:55:594
19.658234,25.302902,57.25277,2.16857,6.23063,7.255822,-2.021086,0.009137,-4.646742,0.597329,-4.02698,-2.152436,29.0,2.55,-8.7,2.475,153.2508,-39.7933,172.7376,1.97,61.52077,48.843857,2.3529298,531.0504,NaN,0.0,34.580647,,8 / 25,1176,2022-01-10 17:26:55:598
19.658234,25.302902,57.25277,2.16857,6.23063,7.255822,-2.021086,0.009137,-4.646742,0.597329,-4.02698,-2.152436,29.0,2.55,-8.7,2.475,153.2508,-39.7933,172.7376,1.97,61.52077,48.843857,2.3529298,531.0504,NaN,0.0,34.580647,,8 / 25,1182,2022-01-10 17:26:55:604
19.658234,25.302902,57.25277,2.16857,6.23063,7.255822,-2.021086,0.009137,-4.646742,0.597329,-4.02698,-2.152436,29.0,2.55,-8.7,2.475,153.2508,-39.7933,172.7376,1.97,61.52077,48.843857,2.3529298,531.0504,NaN,0.0,34.580647,,8 / 25,1187,2022-01-10 17:26:55:609
19.658234,25.302902,57.25277,2.16857,6.23063,7.255822,-2.021086,0.009137,-4.646742,0.597329,-4.02698,-2.152436,29.0,2.55,-8.7,2.475,153.2508,-39.7933,172.7376,1.97,61.52077,48.843857,2.3529298,531.0504,NaN,0.0,34.580647,,8 / 25,1192,2022-01-10 17:26:55:614
2.205883,6.791728,2.561517,1.609019,6.638334,7.036617,-2.782271,1.341343,2.634398,0.597329,-4.02698,-2.152436,29.0,2.55,-8.7,2.475,153.2508,-39.7933,172.7376,1.97,61.52077,48.843857,2.3529298,531.0504,NaN,0.0,34.580647,,8 / 25,1197,2022-01-10 17:26:55:619
2.205883,6.791728,2.561517,1.609019,6.638334,7.036617,-2.782271,1.341343,2.634398,0.597329,-4.02698,-2.152436,29.0,2.55,-8.7,2.475,153.2508,-39.7933,172.7376,1.97,61.52077,48.843857,2.3529298,531.0504,NaN,0.0,34.580647,,8 / 25,1202,2022-01-10 17:26:55:624
2.205883,6.791728,2.561517,1.609019,6.638334,7.036617,-2.782271,1.341343,2.634398,0.597329,-4.02698,-2.152436,29.0,2.55,-8.7,2.475,153.2508,-39.7933,172.7376,1.97,63.28058,48.843857,2.3529298,531.0504,NaN,0.0,34.580647,,8 / 25,1208,2022-01-10 17:26:55:630
2.205883,6.791728,2.561517,1.609019,6.638334,7.036617,-2.782271,1.341343,2.634398,0.597329,-4.02698,-2.152436,29.0,2.55,-8.7,2.475,153.2508,-39.7933,172.7376,1.97,63.28058,48.843857,2.3529298,531.0504,NaN,0.0,34.580647,,8 / 25,1211,2022-01-10 17:26:55:633
2.205883,6.791728,2.561517,1.609019,6.638334,7.036617,-2.782271,1.341343,2.634398,0.597329,-4.02698,-2.152436,29.0,2.55,-8.7,2.475,153.2508,-39.7933,172.7376,1.97,63.28058,48.843857,2.3529298,531.0504,NaN,0.0,34.580647,,8 / 25,1217,2022-01-10 17:26:55:639
2.205883,6.791728,2.561517,1.609019,6.638334,7.036617,-2.782271,1.341343,2.634398,0.597329,-4.02698,-2.152436,29.0,2.55,-8.7,2.475,153.2508,-39.7933,172.7376,1.97,63.28058,48.843857,2.3529298,531.0504,NaN,0.0,34.580647,,8 / 25,1222,2022-01-10 17:26:55:644
2.205883,6.791728,2.561517,1.609019,6.638334,7.036617,-2.782271,1.341343,2.634398,0.597329,-4.02698,-2.152436,29.0,2.55,-8.7,2.475,153.2508,-39.7933,172.7376,1.97,63.28058,48.843857,2.3529298,531.0504,NaN,0.0,34.580647,,8 / 25,1226,2022-01-10 17:26:55:648
2.205883,6.791728,2.561517,1.609019,6.638334,7.036617,-2.782271,1.341343,2.634398,0.597329,-4.02698,-2.152436,29.0,-0.225,-2.925,-9.9,333.0838,-42.6036,-12.88,1.97,63.28058,48.843857,2.3529298,531.0504,NaN,0.0,34.580647,,8 / 25,1231,2022-01-10 17:26:55:653
2.205883,6.791728,2.561517,1.609019,6.638334,7.036617,-2.782271,1.341343,2.634398,0.597329,-4.02698,-2.152436,29.0,-0.225,-2.925,-9.9,333.0838,-42.6036,-12.88,1.97,63.28058,48.843857,2.3529298,531.0504,NaN,0.0,34.580647,,8 / 25,1237,2022-01-10 17:26:55:659
2.205883,6.791728,2.561517,1.609019,6.638334,7.036617,-2.782271,1.341343,2.634398,0.597329,-4.02698,-2.152436,29.0,-0.225,-2.925,-9.9,333.0838,-42.6036,-12.88,1.97,63.28058,48.843857,2.3529298,531.0504,NaN,0.0,34.580647,,8 / 25,1242,2022-01-10 17:26:55:664
2.205883,6.791728,2.561517,1.609019,6.638334,7.036617,-2.782271,1.341343,2.634398,-0.466439,0.657648,0.471099,29.0,-0.225,-2.925,-9.9,333.0838,-42.6036,-12.88,1.97,63.28058,48.843857,2.3529298,531.0504,NaN,0.0,34.580647,,8 / 25,1247,2022-01-10 17:26:55:669
2.205883,6.791728,2.561517,1.609019,6.638334,7.036617,-2.782271,1.341343,2.634398,-0.466439,0.657648,0.471099,29.0,-0.225,-2.925,-9.9,333.0838,-42.6036,-12.88,1.97,63.28058,48.843857,2.3529298,531.0504,NaN,0.0,34.580647,,8 / 25,1251,2022-01-10 17:26:55:673
2.205883,6.791728,2.561517,1.609019,6.638334,7.036617,-2.782271,1.341343,2.634398,-0.466439,0.657648,0.471099,29.0,-0.225,-2.925,-9.9,333.0838,-42.6036,-12.88,1.97,63.28058,48.843857,2.3529298,531.0504,NaN,0.0,34.580647,,8 / 25,1257,2022-01-10 17:26:55:679
2.205883,6.791728,2.561517,1.609019,6.638334,7.036617,-2.782271,1.341343,2.634398,-0.466439,0.657648,0.471099,29.0,-0.225,-2.925,-9.9,333.0838,-42.6036,-12.88,1.97,63.28058,48.843857,2.3529298,531.0504,NaN,0.0,34.580647,,8 / 25,1261,2022-01-10 17:26:55:683
2.205883,6.791728,2.561517,1.609019,6.638334,7.036617,-2.782271,1.341343,2.634398,-0.466439,0.657648,0.471099,29.0,-0.225,-2.925,-9.9,333.0838,-42.6036,-12.88,1.97,63.28058,48.843857,2.3529298,531.0504,NaN,0.0,34.580647,,8 / 25,1266,2022-01-10 17:26:55:688
2.205883,6.791728,2.561517,1.609019,6.638334,7.036617,-2.782271,1.341343,2.634398,-0.466439,0.657648,0.471099,29.0,-0.225,-2.925,-9.9,333.0838,-42.6036,-12.88,1.97,63.28058,48.843857,2.3529298,531.0504,NaN,0.0,34.580647,,8 / 25,1273,2022-01-10 17:26:55:695
2.205883,6.791728,2.561517,1.609019,6.638334,7.036617,-2.782271,1.341343,2.634398,-0.466439,0.657648,0.471099,29.0,-0.225,-2.925,-9.9,333.0838,-42.6036,-12.88,1.97,63.28058,48.843857,2.3529298,531.0504,NaN,0.0,34.580647,,8 / 25,1276,2022-01-10 17:26:55:698
2.205883,6.791728,2.561517,1.609019,6.638334,7.036617,-2.782271,1.341343,2.634398,-0.466439,0.657648,0.471099,29.0,-0.225,-2.925,-9.9,333.0838,-42.6036,-12.88,1.97,63.28058,48.843857,2.3529298,531.0504,NaN,0.0,34.580647,,8 / 25,1281,2022-01-10 17:26:55:703
2.205883,6.791728,2.561517,1.609019,6.638334,7.036617,-2.782271,1.341343,2.634398,-0.466439,0.657648,0.471099,29.0,-0.225,-2.925,-9.9,333.0838,-42.6036,-12.88,1.97,63.28058,48.843857,2.3529298,531.0504,NaN,0.0,34.580647,,8 / 25,1287,2022-01-10 17:26:55:709
2.205883,6.791728,2.561517,1.609019,6.638334,7.036617,-2.782271,1.341343,2.634398,-0.466439,0.657648,0.471099,29.0,-0.225,-2.925,-9.9,333.0838,-42.6036,-12.88,1.97,63.28058,48.843857,2.3529298,531.0504,NaN,0.0,34.580647,,8 / 25,1291,2022-01-10 17:26:55:713
2.205883,6.791728,2.561517,1.609019,6.638334,7.036617,-2.782271,1.341343,2.634398,-0.466439,0.657648,0.471099,29.0,-0.225,-2.925,-9.9,333.0838,-42.6036,-12.88,1.97,63.28058,48.843857,2.3529298,531.0504,NaN,0.0,34.580647,,8 / 25,1297,2022-01-10 17:26:55:719
2.205883,6.791728,2.561517,1.609019,6.638334,7.036617,-2.782271,1.341343,2.634398,-0.466439,0.657648,0.471099,29.0,-0.225,-2.925,-9.9,333.0838,-42.6036,-12.88,1.97,63.28058,48.843857,2.3529298,531.0504,NaN,0.0,34.580647,,8 / 25,1302,2022-01-10 17:26:55:724
2.205883,6.791728,2.561517,1.609019,6.638334,7.036617,-2.782271,1.341343,2.634398,-0.466439,0.657648,0.471099,29.0,-0.225,-2.925,-9.9,333.0838,-42.6036,-12.88,1.97,63.28058,48.843857,2.3529298,531.0504,NaN,0.0,34.580647,,8 / 25,1306,2022-01-10 17:26:55:728
2.205883,6.791728,2.561517,1.609019,6.638334,7.036617,-2.782271,1.341343,2.634398,-0.466439,0.657648,0.471099,29.0,-0.225,-2.925,-9.9,333.0838,-42.6036,-12.88,1.97,63.28058,48.843857,2.3529298,531.0504,NaN,0.0,34.580647,,8 / 25,1312,2022-01-10 17:26:55:734
2.205883,6.791728,2.561517,1.609019,6.638334,7.036617,-2.782271,1.341343,2.634398,-0.466439,0.657648,0.471099,29.0,-0.225,-2.925,-9.9,333.0838,-42.6036,-12.88,1.97,63.28058,48.843857,2.3529298,531.0504,NaN,0.0,34.580647,,8 / 25,1317,2022-01-10 17:26:55:739
2.205883,6.791728,2.561517,1.609019,6.638334,7.036617,-2.782271,1.341343,2.634398,-0.466439,0.657648,0.471099,29.0,-0.225,-2.925,-9.9,333.0838,-42.6036,-12.88,1.97,63.28058,48.843857,2.3529298,531.0504,NaN,0.0,34.580647,,8 / 25,1321,2022-01-10 17:26:55:743
2.964109,6.742676,9.522836,1.856358,4.848007,8.319926,-0.866816,6.336703,0.256049,-0.466439,0.657648,0.471099,29.0,-0.225,-2.925,-9.9,333.0838,-42.6036,-12.88,1.97,63.28058,48.843857,2.3529298,531.0504,NaN,0.0,34.580647,,8 / 25,1327,2022-01-10 17:26:55:749
2.964109,6.742676,9.522836,1.856358,4.848007,8.319926,-0.866816,6.336703,0.256049,-0.466439,0.657648,0.471099,29.0,-0.225,-2.925,-9.9,333.0838,-42.6036,-12.88,1.97,63.28058,48.843857,2.3529298,531.0504,NaN,0.0,34.580647,,8 / 25,1332,2022-01-10 17:26:55:754
2.964109,6.742676,9.522836,1.856358,4.848007,8.319926,-0.866816,6.336703,0.256049,-0.466439,0.657648,0.471099,29.0,-0.225,-2.925,-9.9,333.0838,-42.6036,-12.88,1.97,63.28058,48.843857,2.3529298,531.0504,NaN,0.0,34.580647,,8 / 25,1336,2022-01-10 17:26:55:758
2.964109,6.742676,9.522836,1.856358,4.848007,8.319926,-0.866816,6.336703,0.256049,-0.466439,0.657648,0.471099,29.0,-0.225,-2.925,-9.9,333.0838,-42.6036,-12.88,1.97,63.28058,48.843857,2.3529298,531.0504,NaN,0.0,34.580647,,8 / 25,1342,2022-01-10 17:26:55:764
2.964109,6.742676,9.522836,1.856358,4.848007,8.319926,-0.866816,6.336703,0.256049,-0.466439,0.657648,0.471099,29.0,-0.225,-2.925,-9.9,333.0838,-42.6036,-12.88,1.97,63.28058,48.843857,2.3529298,531.0504,NaN,0.0,34.580647,,8 / 25,1348,2022-01-10 17:26:55:770
2.964109,6.742676,9.522836,1.856358,4.848007,8.319926,-0.866816,6.336703,0.256049,-0.466439,0.657648,0.471099,29.0,-0.225,-2.925,-9.9,333.0838,-42.6036,-12.88,1.97,63.28058,48.843857,2.3529298,531.0504,NaN,0.0,34.580647,,8 / 25,1351,2022-01-10 17:26:55:773
2.964109,6.742676,9.522836,1.856358,4.848007,8.319926,-0.866816,6.336703,0.256049,-0.466439,0.657648,0.471099,29.0,-0.225,-2.925,-9.9,333.0838,-42.6036,-12.88,1.97,63.28058,48.843857,2.3529298,531.0504,NaN,0.0,34.580647,,8 / 25,1357,2022-01-10 17:26:55:779
2.964109,6.742676,9.522836,1.856358,4.848007,8.319926,-0.866816,6.336703,0.256049,-0.466439,0.657648,0.471099,29.0,-0.225,-2.925,-9.9,333.0838,-42.6036,-12.88,1.97,63.28058,48.843857,2.3529298,531.0504,NaN,0.0,34.580647,,8 / 25,1362,2022-01-10 17:26:55:784
2.964109,6.742676,9.522836,1.856358,4.848007,8.319926,-0.866816,6.336703,0.256049,-0.466439,0.657648,0.471099,29.0,-0.225,-2.925,-9.9,333.0838,-42.6036,-12.88,1.97,63.28058,48.843857,2.3529298,531.0504,NaN,0.0,34.580647,,8 / 25,1367,2022-01-10 17:26:55:789
2.964109,6.742676,9.522836,1.856358,4.848007,8.319926,-0.866816,6.336703,0.256049,-0.466439,0.657648,0.471099,29.0,-0.225,-2.925,-9.9,333.0838,-42.6036,-12.88,1.97,63.28058,48.843857,2.3529298,531.0504,NaN,0.0,34.580647,,8 / 25,1372,2022-01-10 17:26:55:794
2.964109,6.742676,9.522836,1.856358,4.848007,8.319926,-0.866816,6.336703,0.256049,-0.466439,0.657648,0.471099,29.0,-0.225,-2.925,-9.9,333.0838,-42.6036,-12.88,1.97,63.28058,48.843857,2.3529298,531.0504,NaN,0.0,34.580647,,8 / 25,1377,2022-01-10 17:26:55:799
2.964109,6.742676,9.522836,1.856358,4.848007,8.319926,-0.866816,6.336703,0.256049,-0.466439,0.657648,0.471099,29.0,-0.225,-2.925,-9.9,333.0838,-42.6036,-12.88,1.97,63.28058,48.843857,2.3529298,531.0504,NaN,0.0,34.580647,,8 / 25,1381,2022-01-10 17:26:55:803
2.964109,6.742676,9.522836,1.856358,4.848007,8.319926,-0.866816,6.336703,0.256049,-0.466439,0.657648,0.471099,29.0,-0.225,-2.925,-9.9,333.0838,-42.6036,-12.88,1.97,63.28058,48.843857,2.3529298,531.0504,NaN,0.0,34.580647,,8 / 25,1387,2022-01-10 17:26:55:809
2.964109,6.742676,9.522836,1.856358,4.848007,8.319926,-0.866816,6.336703,0.256049,-0.242607,0.356587,-0.087882,29.0,-0.225,-2.925,-9.9,333.0838,-42.6036,-12.88,1.97,63.28058,48.843857,2.3529298,531.0504,NaN,0.0,34.580647,,8 / 25,1392,2022-01-10 17:26:55:814
2.964109,6.742676,9.522836,1.856358,4.848007,8.319926,-0.866816,6.336703,0.256049,-0.242607,0.356587,-0.087882,29.0,-0.225,-2.925,-9.9,333.0838,-42.6036,-12.88,1.97,63.28058,48.843857,2.3529298,531.0504,NaN,0.0,34.580647,,8 / 25,1397,2022-01-10 17:26:55:819
2.964109,6.742676,9.522836,1.856358,4.848007,8.319926,-0.866816,6.336703,0.256049,-0.242607,0.356587,-0.087882,29.0,-0.225,-2.925,-9.9,333.0838,-42.6036,-12.88,1.97,63.28058,48.843857,2.3529298,531.0504,NaN,0.0,34.580647,,8 / 25,1401,2022-01-10 17:26:55:823
2.964109,6.742676,9.522836,1.856358,4.848007,8.319926,-0.866816,6.336703,0.256049,-0.242607,0.356587,-0.087882,29.0,-0.225,-2.925,-9.9,333.0838,-42.6036,-12.88,1.97,63.28058,48.843857,2.3529298,531.0504,NaN,0.0,34.580647,,8 / 25,1407,2022-01-10 17:26:55:829
2.964109,6.742676,9.522836,1.856358,4.848007,8.319926,-0.866816,6.336703,0.256049,-0.242607,0.356587,-0.087882,29.0,-0.225,-2.925,-9.9,333.0838,-42.6036,-12.88,1.97,63.28058,48.843857,2.3529298,531.0504,NaN,0.0,34.580647,,8 / 25,1413,2022-01-10 17:26:55:835
2.964109,6.742676,9.522836,1.856358,4.848007,8.319926,-0.866816,6.336703,0.256049,-0.242607,0.356587,-0.087882,29.0,-0.225,-2.925,-9.9,333.0838,-42.6036,-12.88,1.97,63.28058,48.843857,2.3529298,531.0504,NaN,0.0,34.580647,,8 / 25,1416,2022-01-10 17:26:55:838
2.964109,6.742676,9.522836,1.856358,4.848007,8.319926,-0.866816,6.336703,0.256049,-0.242607,0.356587,-0.087882,29.0,-0.225,-2.925,-9.9,333.0838,-42.6036,-12.88,1.97,63.28058,48.843857,2.3529298,531.0504,NaN,0.0,34.580647,,8 / 25,1422,2022-01-10 17:26:55:844
2.964109,6.742676,9.522836,1.856358,4.848007,8.319926,-0.866816,6.336703,0.256049,-0.242607,0.356587,-0.087882,29.0,-0.225,-2.925,-9.9,333.0838,-42.6036,-12.88,1.97,63.28058,48.843857,2.3529298,531.0504,NaN,0.0,34.580647,,8 / 25,1426,2022-01-10 17:26:55:848
1.495514,4.62742,9.292826,1.856358,4.848007,8.319926,-0.866816,6.336703,0.256049,-0.242607,0.356587,-0.087882,29.0,-6.0,-10.65,-27.525,356.9911,-29.6275,-12.5779,1.97,63.28058,48.843857,2.3529298,531.0504,NaN,0.0,34.580647,,8 / 25,1433,2022-01-10 17:26:55:855
1.495514,4.62742,9.292826,1.856358,4.848007,8.319926,-0.866816,6.336703,0.256049,-0.242607,0.356587,-0.087882,29.0,-6.0,-10.65,-27.525,356.9911,-29.6275,-12.5779,1.97,63.28058,48.843857,2.3529298,531.0504,NaN,0.0,34.580647,,8 / 25,1436,2022-01-10 17:26:55:858
1.495514,4.62742,9.292826,1.503098,4.141705,8.761128,-0.38858,0.872344,1.419371,-0.242607,0.356587,-0.087882,29.0,-6.0,-10.65,-27.525,356.9911,-29.6275,-12.5779,1.97,63.28058,48.843857,2.3529298,531.0504,NaN,0.0,34.580647,,8 / 25,1442,2022-01-10 17:26:55:864
1.495514,4.62742,9.292826,1.503098,4.141705,8.761128,-0.38858,0.872344,1.419371,-0.242607,0.356587,-0.087882,29.0,-6.0,-10.65,-27.525,356.9911,-29.6275,-12.5779,1.97,63.28058,48.843857,2.3529298,531.0504,NaN,0.0,34.580647,,8 / 25,1447,2022-01-10 17:26:55:869
1.495514,4.62742,9.292826,1.503098,4.141705,8.761128,-0.38858,0.872344,1.419371,-0.242607,0.356587,-0.087882,29.0,-6.0,-10.65,-27.525,356.9911,-29.6275,-12.5779,1.97,63.28058,48.843857,2.3529298,531.0504,NaN,0.0,34.580647,,8 / 25,1452,2022-01-10 17:26:55:874
1.495514,4.62742,9.292826,1.503098,4.141705,8.761128,-0.38858,0.872344,1.419371,-0.242607,0.356587,-0.087882,29.0,-6.0,-10.65,-27.525,356.9911,-29.6275,-12.5779,1.97,63.28058,48.843857,2.3529298,531.0504,NaN,0.0,34.580647,,8 / 25,1457,2022-01-10 17:26:55:879
1.495514,4.62742,9.292826,1.503098,4.141705,8.761128,-0.38858,0.872344,1.419371,-0.242607,0.356587,-0.087882,29.0,-6.0,-10.65,-27.525,356.9911,-29.6275,-12.5779,1.97,63.28058,48.843857,2.3529298,531.0504,NaN,0.0,34.580647,,8 / 25,1462,2022-01-10 17:26:55:884
1.495514,4.62742,9.292826,1.503098,4.141705,8.761128,-0.38858,0.872344,1.419371,-0.242607,0.356587,-0.087882,29.0,-6.0,-10.65,-27.525,356.9911,-29.6275,-12.5779,1.97,63.28058,48.843857,2.3529298,531.0504,NaN,0.0,34.580647,,8 / 25,1467,2022-01-10 17:26:55:889
1.495514,4.62742,9.292826,1.503098,4.141705,8.761128,-0.38858,0.872344,1.419371,-0.242607,0.356587,-0.087882,29.0,-6.0,-10.65,-27.525,356.9911,-29.6275,-12.5779,1.97,63.28058,48.843857,2.3529298,531.0504,NaN,0.0,34.580647,,8 / 25,1472,2022-01-10 17:26:55:894
1.495514,4.62742,9.292826,1.503098,4.141705,8.761128,-0.38858,0.872344,1.419371,-0.242607,0.356587,-0.087882,29.0,-6.0,-10.65,-27.525,356.9911,-29.6275,-12.5779,1.97,63.28058,48.843857,2.3529298,531.0504,NaN,0.0,34.580647,,8 / 25,1477,2022-01-10 17:26:55:899
1.495514,4.62742,9.292826,1.503098,4.141705,8.761128,-0.38858,0.872344,1.419371,-0.242607,0.356587,-0.087882,29.0,-6.0,-10.65,-27.525,356.9911,-29.6275,-12.5779,1.97,63.28058,48.843857,2.3529298,531.0504,NaN,0.0,34.580647,,8 / 25,1482,2022-01-10 17:26:55:904
1.495514,4.62742,9.292826,1.503098,4.141705,8.761128,-0.38858,0.872344,1.419371,-0.242607,0.356587,-0.087882,29.0,-6.0,-10.65,-27.525,356.9911,-29.6275,-12.5779,1.97,63.28058,48.843857,2.3529298,531.0504,NaN,0.0,34.580647,,8 / 25,1487,2022-01-10 17:26:55:909
1.495514,4.62742,9.292826,1.503098,4.141705,8.761128,-0.38858,0.872344,1.419371,-0.242607,0.356587,-0.087882,29.0,-6.0,-10.65,-27.525,356.9911,-29.6275,-12.5779,1.97,63.28058,48.843857,2.3529298,531.0504,NaN,0.0,34.580647,,8 / 25,1491,2022-01-10 17:26:55:913
1.495514,4.62742,9.292826,1.503098,4.141705,8.761128,-0.38858,0.872344,1.419371,-0.242607,0.356587,-0.087882,29.0,-6.0,-10.65,-27.525,356.9911,-29.6275,-12.5779,1.97,63.28058,48.843857,2.3529298,531.0504,NaN,0.0,34.580647,,8 / 25,1497,2022-01-10 17:26:55:919
1.495514,4.62742,9.292826,1.503098,4.141705,8.761128,-0.38858,0.872344,1.419371,-0.242607,0.356587,-0.087882,29.0,-6.0,-10.65,-27.525,356.9911,-29.6275,-12.5779,1.97,63.28058,48.843857,2.3529298,531.0504,NaN,0.0,34.580647,,8 / 25,1502,2022-01-10 17:26:55:924
1.495514,4.62742,9.292826,1.503098,4.141705,8.761128,-0.38858,0.872344,1.419371,-0.242607,0.356587,-0.087882,29.0,-6.0,-10.65,-27.525,356.9911,-29.6275,-12.5779,1.97,63.28058,48.843857,2.3529298,531.0504,NaN,0.0,34.580647,,8 / 25,1508,2022-01-10 17:26:55:930
1.495514,4.62742,9.292826,1.503098,4.141705,8.761128,-0.38858,0.872344,1.419371,-0.242607,0.356587,-0.087882,29.0,-6.0,-10.65,-27.525,356.9911,-29.6275,-12.5779,1.97,63.28058,48.843857,2.3529298,531.0504,NaN,0.0,34.580647,,8 / 25,1512,2022-01-10 17:26:55:934
1.495514,4.62742,9.292826,1.503098,4.141705,8.761128,-0.38858,0.872344,1.419371,-0.242607,0.356587,-0.087882,29.0,-6.0,-10.65,-27.525,356.9911,-29.6275,-12.5779,1.97,63.28058,48.843857,2.3529298,531.0504,NaN,0.0,34.580647,,8 / 25,1517,2022-01-10 17:26:55:939
1.495514,4.62742,9.292826,1.503098,4.141705,8.761128,-0.38858,0.872344,1.419371,-0.242607,0.356587,-0.087882,29.0,-6.0,-10.65,-27.525,356.9911,-29.6275,-12.5779,1.97,63.28058,48.843857,2.3529298,531.0504,NaN,0.0,34.580647,,8 / 25,1522,2022-01-10 17:26:55:944