ACCELEROMETER X (m/s²),ACCELEROMETER Y (m/s²),ACCELEROMETER Z (m/s²),GRAVITY X (m/s²),GRAVITY Y (m/s²),GRAVITY Z (m/s²),LINEAR ACCELERATION X (m/s²),LINEAR ACCELERATION Y (m/s²),LINEAR ACCELERATION Z (m/s²),GYROSCOPE X (rad/s),GYROSCOPE Y (rad/s),GYROSCOPE Z (rad/s),LIGHT (lux),MAGNETIC FIELD X (μT),MAGNETIC FIELD Y (μT),MAGNETIC FIELD Z (μT),ORIENTATION Z (azimuth °),ORIENTATION X (pitch °),ORIENTATION Y (roll °),PROXIMITY (i),SOUND LEVEL (dB),LOCATION Latitude : ,LOCATION Longitude : ,LOCATION Altitude ( m),LOCATION Altitude-google ( m),LOCATION Speed ( Kmh),LOCATION Accuracy ( m),LOCATION ORIENTATION (°),Satellites in range,Time since start in ms ,YYYY-MO-DD HH-MI-SS_SSS
-0.025424,-0.278465,9.71815,-0.012192,-0.272595,9.802854,0.003715,0.00632,-0.011355,-9.32E-4,-2.66E-4,1.33E-4,33.0,8.4,-9.3,-32.325,218.8117,1.6092,0.0727,1.97,64.6691,48.843857,2.3533845,307.0968,NaN,,37.648388,,0 / 18,10,2022-01-10 17:59:31:574
-0.025424,-0.278465,9.71815,-0.012192,-0.272595,9.802854,0.003715,0.00632,-0.011355,-9.32E-4,-2.66E-4,1.33E-4,33.0,8.4,-9.3,-32.325,218.8117,1.6092,0.0727,1.97,64.6691,48.843857,2.3533845,307.0968,NaN,,37.648388,,0 / 18,15,2022-01-10 17:59:31:579
-0.015852,-0.254537,9.694221,-0.012192,-0.272595,9.802854,0.003715,0.00632,-0.011355,-9.32E-4,-2.66E-4,1.33E-4,33.0,8.4,-9.3,-32.325,218.8117,1.6092,0.0727,1.97,64.6691,48.843857,2.3533845,307.0968,NaN,,37.648388,,0 / 18,19,2022-01-10 17:59:31:583
-0.015852,-0.254537,9.694221,-0.012192,-0.272595,9.802854,0.003715,0.00632,-0.011355,-9.32E-4,-2.66E-4,1.33E-4,33.0,8.775,-9.525,-32.475,219.4577,1.5929,0.0713,1.97,64.6691,48.843857,2.3533845,307.0968,NaN,,37.648388,,0 / 18,25,2022-01-10 17:59:31:589
-0.015852,-0.254537,9.694221,-0.012192,-0.272595,9.802854,0.003715,0.00632,-0.011355,-9.32E-4,-2.66E-4,1.33E-4,33.0,8.775,-9.525,-32.475,219.4577,1.5929,0.0713,1.97,64.6691,48.843857,2.3533845,307.0968,NaN,,37.648388,,0 / 18,30,2022-01-10 17:59:31:594
-0.015852,-0.254537,9.694221,-0.012192,-0.272595,9.802854,0.003715,0.00632,-0.011355,-9.32E-4,-2.66E-4,1.33E-4,33.0,8.775,-9.525,-32.475,219.4577,1.5929,0.0713,1.97,64.6691,48.843857,2.3533845,307.0968,NaN,,37.648388,,0 / 18,35,2022-01-10 17:59:31:599
-0.015852,-0.254537,9.694221,-0.012192,-0.272595,9.802854,5.82E-4,0.003806,-0.00597,-9.32E-4,-2.66E-4,1.33E-4,33.0,8.775,-9.525,-32.475,219.4577,1.5929,0.0713,1.97,64.6691,48.843857,2.3533845,307.0968,NaN,,37.648388,,0 / 18,39,2022-01-10 17:59:31:603
-0.015852,-0.254537,9.694221,-0.012192,-0.272595,9.802854,5.82E-4,0.003806,-0.00597,-9.32E-4,-2.66E-4,1.33E-4,33.0,8.775,-9.525,-32.475,219.4577,1.5929,0.0713,1.97,64.6691,48.843857,2.3533845,307.0968,NaN,,37.648388,,0 / 18,45,2022-01-10 17:59:31:609
-0.015852,-0.254537,9.694221,-0.012192,-0.272595,9.802854,5.82E-4,0.003806,-0.00597,-9.32E-4,-2.66E-4,1.33E-4,33.0,8.775,-9.525,-32.475,219.4577,1.5929,0.0713,1.97,64.6691,48.843857,2.3533845,307.0968,NaN,,37.648388,,0 / 18,50,2022-01-10 17:59:31:614
-0.015852,-0.254537,9.694221,-0.012192,-0.272595,9.802854,5.82E-4,0.003806,-0.00597,-9.32E-4,-2.66E-4,1.33E-4,33.0,8.775,-9.525,-32.475,219.4577,1.5929,0.0713,1.97,64.6691,48.843857,2.3533845,307.0968,NaN,,37.648388,,0 / 18,55,2022-01-10 17:59:31:619
-0.015852,-0.254537,9.694221,-0.012192,-0.272595,9.802854,5.82E-4,0.003806,-0.00597,-9.32E-4,-2.66E-4,1.33E-4,33.0,8.775,-9.525,-32.475,219.4577,1.5929,0.0713,1.97,64.6691,48.843857,2.3533845,307.0968,NaN,,37.648388,,0 / 18,60,2022-01-10 17:59:31:624
-0.015852,-0.254537,9.694221,-0.012192,-0.272595,9.802854,5.82E-4,0.003806,-0.00597,-9.32E-4,-2.66E-4,1.33E-4,33.0,8.775,-9.525,-32.475,219.4577,1.5929,0.0713,1.97,64.6691,48.843857,2.3533845,307.0968,NaN,,37.648388,,0 / 18,64,2022-01-10 17:59:31:628
-0.015852,-0.254537,9.694221,-0.012192,-0.272595,9.802854,5.82E-4,0.003806,-0.00597,-9.32E-4,-2.66E-4,1.33E-4,33.0,8.775,-9.525,-32.475,219.4577,1.5929,0.0713,1.97,64.6691,48.843857,2.3533845,307.0968,NaN,,37.648388,,0 / 18,73,2022-01-10 17:59:31:637
-0.015852,-0.254537,9.694221,-0.012192,-0.272595,9.802854,5.82E-4,0.003806,-0.00597,-3.99E-4,2.66E-4,1.33E-4,33.0,8.775,-9.525,-32.475,219.4577,1.5929,0.0713,1.97,64.6691,48.843857,2.3533845,307.0968,NaN,,37.648388,,0 / 18,75,2022-01-10 17:59:31:639
-0.015852,-0.254537,9.694221,-0.012192,-0.272595,9.802854,5.82E-4,0.003806,-0.00597,-3.99E-4,2.66E-4,1.33E-4,33.0,8.775,-9.525,-32.475,219.4577,1.5929,0.0713,1.97,64.6691,48.843857,2.3533845,307.0968,NaN,,37.648388,,0 / 18,80,2022-01-10 17:59:31:644
-0.015852,-0.254537,9.694221,-0.012192,-0.272595,9.802854,5.82E-4,0.003806,-0.00597,-3.99E-4,2.66E-4,1.33E-4,33.0,8.775,-9.525,-32.475,219.4577,1.5929,0.0713,1.97,64.6691,48.843857,2.3533845,307.0968,NaN,,37.648388,,0 / 18,86,2022-01-10 17:59:31:650
-0.015852,-0.254537,9.694221,-0.012192,-0.272595,9.802854,5.82E-4,0.003806,-0.00597,-3.99E-4,2.66E-4,1.33E-4,33.0,8.775,-9.525,-32.475,219.4577,1.5929,0.0713,1.97,64.6691,48.843857,2.3533845,307.0968,NaN,,37.648388,,0 / 18,90,2022-01-10 17:59:31:654
-0.015852,-0.254537,9.694221,-0.012192,-0.272595,9.802854,5.82E-4,0.003806,-0.00597,-3.99E-4,2.66E-4,1.33E-4,33.0,8.775,-9.525,-32.475,219.4577,1.5929,0.0713,1.97,64.6691,48.843857,2.3533845,307.0968,NaN,,37.648388,,0 / 18,95,2022-01-10 17:59:31:659
-0.015852,-0.264108,9.687043,-0.012192,-0.272595,9.802854,5.82E-4,0.003806,-0.00597,-3.99E-4,2.66E-4,1.33E-4,33.0,8.775,-9.525,-32.475,219.4577,1.5929,0.0713,1.97,64.6691,48.843857,2.3533845,307.0968,NaN,,37.648388,,0 / 18,100,2022-01-10 17:59:31:664
-0.020638,-0.264108,9.687043,-0.0123,-0.271783,9.802876,5.82E-4,0.003806,-0.00597,-3.99E-4,2.66E-4,1.33E-4,33.0,8.775,-9.525,-32.475,219.4577,1.5929,0.0713,1.97,64.6691,48.843857,2.3533845,307.0968,NaN,,37.648388,,0 / 18,105,2022-01-10 17:59:31:669
-0.020638,-0.264108,9.687043,-0.0123,-0.271783,9.802876,5.82E-4,0.003806,-0.00597,-3.99E-4,2.66E-4,1.33E-4,33.0,8.775,-9.525,-32.475,219.4577,1.5929,0.0713,1.97,64.6691,48.843857,2.3533845,307.0968,NaN,,37.648388,,0 / 18,110,2022-01-10 17:59:31:674
-0.020638,-0.264108,9.687043,-0.0123,-0.271783,9.802876,5.82E-4,0.003806,-0.00597,-3.99E-4,2.66E-4,1.33E-4,33.0,8.775,-9.525,-32.475,219.4577,1.5929,0.0713,1.97,64.6691,48.843857,2.3533845,307.0968,NaN,,37.648388,,0 / 18,116,2022-01-10 17:59:31:680
-0.020638,-0.264108,9.687043,-0.0123,-0.271783,9.802876,5.82E-4,0.003806,-0.00597,-3.99E-4,2.66E-4,1.33E-4,33.0,8.775,-9.525,-32.475,219.4577,1.5929,0.0713,1.97,64.6691,48.843857,2.3533845,307.0968,NaN,,37.648388,,0 / 18,120,2022-01-10 17:59:31:684
-0.020638,-0.264108,9.687043,-0.0123,-0.271783,9.802876,5.82E-4,0.003806,-0.00597,-3.99E-4,2.66E-4,1.33E-4,33.0,8.775,-9.525,-32.475,219.4577,1.5929,0.0713,1.97,64.6691,48.843857,2.3533845,307.0968,NaN,,37.648388,,0 / 18,125,2022-01-10 17:59:31:689
-0.020638,-0.264108,9.687043,-0.0123,-0.271783,9.802876,5.82E-4,0.003806,-0.00597,-3.99E-4,2.66E-4,1.33E-4,33.0,8.775,-9.525,-32.475,219.4577,1.5929,0.0713,1.97,64.6691,48.843857,2.3533845,307.0968,NaN,,37.648388,,0 / 18,131,2022-01-10 17:59:31:695
-0.020638,-0.264108,9.687043,-0.0123,-0.271783,9.802876,5.82E-4,0.003806,-0.00597,-3.99E-4,2.66E-4,1.33E-4,33.0,8.775,-9.525,-32.475,219.4577,1.5929,0.0713,1.97,64.6691,48.843857,2.3533845,307.0968,NaN,,37.648388,,0 / 18,136,2022-01-10 17:59:31:700
-0.020638,-0.264108,9.687043,-0.0123,-0.271783,9.802876,5.82E-4,0.003806,-0.00597,-3.99E-4,2.66E-4,1.33E-4,33.0,8.775,-9.525,-32.475,219.4577,1.5929,0.0713,1.97,64.6691,48.843857,2.3533845,307.0968,NaN,,37.648388,,0 / 18,139,2022-01-10 17:59:31:703
-0.020638,-0.264108,9.687043,-0.0123,-0.271783,9.802876,5.82E-4,0.003806,-0.00597,-3.99E-4,2.66E-4,1.33E-4,33.0,8.775,-9.525,-32.475,219.4577,1.5929,0.0713,1.97,64.6691,48.843857,2.3533845,307.0968,NaN,,37.648388,,0 / 18,146,2022-01-10 17:59:31:710
-0.020638,-0.264108,9.687043,-0.0123,-0.271783,9.802876,5.82E-4,0.003806,-0.00597,-3.99E-4,2.66E-4,1.33E-4,33.0,8.775,-9.525,-32.475,219.4577,1.5929,0.0713,1.97,64.6691,48.843857,2.3533845,307.0968,NaN,,37.648388,,0 / 18,150,2022-01-10 17:59:31:714
-0.020638,-0.264108,9.687043,-0.0123,-0.271783,9.802876,5.82E-4,0.003806,-0.00597,-3.99E-4,2.66E-4,1.33E-4,33.0,8.775,-9.525,-32.475,219.4577,1.5929,0.0713,1.97,64.6691,48.843857,2.3533845,307.0968,NaN,,37.648388,,0 / 18,155,2022-01-10 17:59:31:719
-0.020638,-0.264108,9.687043,-0.0123,-0.271783,9.802876,5.82E-4,0.003806,-0.00597,-3.99E-4,2.66E-4,1.33E-4,33.0,8.775,-9.525,-32.475,219.4577,1.5929,0.0713,1.97,64.6691,48.843857,2.3533845,307.0968,NaN,,37.648388,,0 / 18,161,2022-01-10 17:59:31:725
-0.020638,-0.264108,9.687043,-0.0123,-0.271783,9.802876,5.82E-4,0.003806,-0.00597,-3.99E-4,2.66E-4,1.33E-4,33.0,8.775,-9.525,-32.475,219.4577,1.5929,0.0713,1.97,64.6691,48.843857,2.3533845,307.0968,NaN,,37.648388,,0 / 18,166,2022-01-10 17:59:31:730
-0.020638,-0.264108,9.687043,-0.0123,-0.271783,9.802876,3.16E-4,0.006328,-0.004435,-3.99E-4,2.66E-4,1.33E-4,33.0,8.775,-9.525,-32.475,219.4577,1.5929,0.0713,1.97,64.6691,48.843857,2.3533845,307.0968,NaN,,37.648388,,0 / 18,170,2022-01-10 17:59:31:734
-0.020638,-0.264108,9.687043,-0.0123,-0.271783,9.802876,3.16E-4,0.006328,-0.004435,-3.99E-4,2.66E-4,1.33E-4,33.0,8.775,-9.525,-32.475,219.4577,1.5929,0.0713,1.97,64.6691,48.843857,2.3533845,307.0968,NaN,,37.648388,,0 / 18,176,2022-01-10 17:59:31:740
-0.020638,-0.264108,9.687043,-0.0123,-0.271783,9.802876,3.16E-4,0.006328,-0.004435,-3.99E-4,2.66E-4,1.33E-4,33.0,8.775,-9.525,-32.475,219.4577,1.5929,0.0713,1.97,64.6691,48.843857,2.3533845,307.0968,NaN,,37.648388,,0 / 18,179,2022-01-10 17:59:31:743
-0.020638,-0.264108,9.687043,-0.0123,-0.271783,9.802876,3.16E-4,0.006328,-0.004435,-3.99E-4,2.66E-4,1.33E-4,33.0,8.775,-9.525,-32.475,219.4577,1.5929,0.0713,1.97,64.6691,48.843857,2.3533845,307.0968,NaN,,37.648388,,0 / 18,185,2022-01-10 17:59:31:749
-0.020638,-0.264108,9.687043,-0.0123,-0.271783,9.802876,3.16E-4,0.006328,-0.004435,-3.99E-4,2.66E-4,1.33E-4,33.0,8.775,-9.525,-32.475,219.4577,1.5929,0.0713,1.97,64.6691,48.843857,2.3533845,307.0968,NaN,,37.648388,,0 / 18,191,2022-01-10 17:59:31:755
-0.020638,-0.264108,9.687043,-0.0123,-0.271783,9.802876,3.16E-4,0.006328,-0.004435,-3.99E-4,2.66E-4,1.33E-4,33.0,8.775,-9.525,-32.475,219.4577,1.5929,0.0713,1.97,64.6691,48.843857,2.3533845,307.0968,NaN,,37.648388,,0 / 18,194,2022-01-10 17:59:31:758
-0.020638,-0.264108,9.687043,-0.0123,-0.271783,9.802876,3.16E-4,0.006328,-0.004435,-3.99E-4,2.66E-4,1.33E-4,33.0,8.775,-9.525,-32.475,219.4577,1.5929,0.0713,1.97,64.6691,48.843857,2.3533845,307.0968,NaN,,37.648388,,0 / 18,202,2022-01-10 17:59:31:766
-0.020638,-0.264108,9.687043,-0.0123,-0.271783,9.802876,3.16E-4,0.006328,-0.004435,-3.99E-4,2.66E-4,1.33E-4,33.0,8.775,-9.525,-32.475,219.4577,1.5929,0.0713,1.97,64.6691,48.843857,2.3533845,307.0968,NaN,,37.648388,,0 / 18,205,2022-01-10 17:59:31:769
-0.020638,-0.264108,9.687043,-0.0123,-0.271783,9.802876,3.16E-4,0.006328,-0.004435,-3.99E-4,2.66E-4,1.33E-4,33.0,8.775,-9.525,-32.475,219.4577,1.5929,0.0713,1.97,64.6691,48.843857,2.3533845,307.0968,NaN,,37.648388,,0 / 18,210,2022-01-10 17:59:31:774
-0.011067,-0.261715,9.683455,-0.0123,-0.271783,9.802876,3.16E-4,0.006328,-0.004435,-0.001065,-3.99E-4,3.99E-4,33.0,8.775,-9.525,-32.475,219.4577,1.5929,0.0713,1.97,64.6691,48.843857,2.3533845,307.0968,NaN,,37.648388,,0 / 18,214,2022-01-10 17:59:31:778
-0.011067,-0.261715,9.683455,-0.0123,-0.271783,9.802876,3.16E-4,0.006328,-0.004435,-0.001065,-3.99E-4,3.99E-4,33.0,8.775,-9.525,-32.475,219.4577,1.5929,0.0713,1.97,64.6691,48.843857,2.3533845,307.0968,NaN,,37.648388,,0 / 18,220,2022-01-10 17:59:31:784
-0.011067,-0.261715,9.683455,-0.0123,-0.271783,9.802876,3.16E-4,0.006328,-0.004435,-0.001065,-3.99E-4,3.99E-4,33.0,8.775,-9.45,-32.325,222.1931,1.5881,0.0719,1.97,64.6691,48.843857,2.3533845,307.0968,NaN,,37.648388,,0 / 18,225,2022-01-10 17:59:31:789
-0.011067,-0.261715,9.683455,-0.011685,-0.271383,9.802887,3.16E-4,0.006328,-0.004435,-0.001065,-3.99E-4,3.99E-4,33.0,8.775,-9.45,-32.325,222.1931,1.5881,0.0719,1.97,64.6691,48.843857,2.3533845,307.0968,NaN,,37.648388,,0 / 18,232,2022-01-10 17:59:31:796
-0.011067,-0.261715,9.683455,-0.011685,-0.271383,9.802887,3.16E-4,0.006328,-0.004435,-0.001065,-3.99E-4,3.99E-4,33.0,8.775,-9.45,-32.325,222.1931,1.5881,0.0719,1.97,64.6691,48.843857,2.3533845,307.0968,NaN,,37.648388,,0 / 18,235,2022-01-10 17:59:31:799
-0.011067,-0.261715,9.683455,-0.011685,-0.271383,9.802887,3.16E-4,0.006328,-0.004435,-0.001065,-3.99E-4,3.99E-4,33.0,8.775,-9.45,-32.325,222.1931,1.5881,0.0719,1.97,64.6691,48.843857,2.3533845,307.0968,NaN,,37.648388,,0 / 18,242,2022-01-10 17:59:31:806
-0.011067,-0.261715,9.683455,-0.011685,-0.271383,9.802887,3.16E-4,0.006328,-0.004435,-0.001065,-3.99E-4,3.99E-4,33.0,8.775,-9.45,-32.325,222.1931,1.5881,0.0719,1.97,64.6691,48.843857,2.3533845,307.0968,NaN,,37.648388,,0 / 18,245,2022-01-10 17:59:31:809
-0.011067,-0.261715,9.683455,-0.011685,-0.271383,9.802887,3.16E-4,0.006328,-0.004435,-0.001065,-3.99E-4,3.99E-4,33.0,8.775,-9.45,-32.325,222.1931,1.5881,0.0719,1.97,64.6691,48.843857,2.3533845,307.0968,NaN,,37.648388,,0 / 18,250,2022-01-10 17:59:31:814
-0.011067,-0.261715,9.683455,-0.011685,-0.271383,9.802887,3.16E-4,0.006328,-0.004435,-0.001065,-3.99E-4,3.99E-4,33.0,8.775,-9.45,-32.325,222.1931,1.5881,0.0719,1.97,64.6691,48.843857,2.3533845,307.0968,NaN,,37.648388,,0 / 18,255,2022-01-10 17:59:31:819
-0.011067,-0.261715,9.683455,-0.011685,-0.271383,9.802887,3.16E-4,0.006328,-0.004435,-0.001065,-3.99E-4,3.99E-4,33.0,8.775,-9.45,-32.325,222.1931,1.5881,0.0719,1.97,64.6691,48.843857,2.3533845,307.0968,NaN,,37.648388,,0 / 18,260,2022-01-10 17:59:31:824
-0.011067,-0.261715,9.683455,-0.011685,-0.271383,9.802887,3.16E-4,0.006328,-0.004435,-0.001065,-3.99E-4,3.99E-4,33.0,8.775,-9.45,-32.325,222.1931,1.5881,0.0719,1.97,65.7567,48.843857,2.3533845,307.0968,NaN,,37.648388,,0 / 18,265,2022-01-10 17:59:31:829
-0.011067,-0.261715,9.683455,-0.011685,-0.271383,9.802887,3.16E-4,0.006328,-0.004435,-0.001065,-3.99E-4,3.99E-4,33.0,8.775,-9.45,-32.325,222.1931,1.5881,0.0719,1.97,65.7567,48.843857,2.3533845,307.0968,NaN,,37.648388,,0 / 18,270,2022-01-10 17:59:31:834
-0.011067,-0.261715,9.683455,-0.011685,-0.271383,9.802887,3.16E-4,0.006328,-0.004435,-0.001065,-3.99E-4,3.99E-4,33.0,8.775,-9.45,-32.325,222.1931,1.5881,0.0719,1.97,65.7567,48.843857,2.3533845,307.0968,NaN,,37.648388,,0 / 18,275,2022-01-10 17:59:31:839
-0.011067,-0.261715,9.683455,-0.011685,-0.271383,9.802887,3.16E-4,0.006328,-0.004435,-0.001065,-3.99E-4,3.99E-4,33.0,8.775,-9.45,-32.325,222.1931,1.5881,0.0719,1.97,65.7567,48.843857,2.3533845,307.0968,NaN,,37.648388,,0 / 18,279,2022-01-10 17:59:31:843
-0.011067,-0.261715,9.683455,-0.011685,-0.271383,9.802887,6.51E-4,0.002156,-1.74E-4,-0.001065,-3.99E-4,3.99E-4,33.0,8.775,-9.45,-32.325,222.1931,1.5881,0.0719,1.97,65.7567,48.843857,2.3533845,307.0968,NaN,,37.648388,,0 / 18,285,2022-01-10 17:59:31:849
-0.011067,-0.261715,9.683455,-0.011685,-0.271383,9.802887,6.51E-4,0.002156,-1.74E-4,-0.001065,-3.99E-4,3.99E-4,33.0,8.775,-9.45,-32.325,222.1931,1.5881,0.0719,1.97,65.7567,48.843857,2.3533845,307.0968,NaN,,37.648388,,0 / 18,290,2022-01-10 17:59:31:854
-0.011067,-0.261715,9.683455,-0.011685,-0.271383,9.802887,6.51E-4,0.002156,-1.74E-4,-0.001065,-3.99E-4,3.99E-4,33.0,8.775,-9.45,-32.325,222.1931,1.5881,0.0719,1.97,65.7567,48.843857,2.3533845,307.0968,NaN,,37.648388,,0 / 18,294,2022-01-10 17:59:31:858
-0.011067,-0.261715,9.683455,-0.011685,-0.271383,9.802887,6.51E-4,0.002156,-1.74E-4,-0.001065,-3.99E-4,3.99E-4,33.0,8.775,-9.45,-32.325,222.1931,1.5881,0.0719,1.97,65.7567,48.843857,2.3533845,307.0968,NaN,,37.648388,,0 / 18,300,2022-01-10 17:59:31:864
-0.011067,-0.261715,9.683455,-0.011685,-0.271383,9.802887,6.51E-4,0.002156,-1.74E-4,-0.001065,-3.99E-4,3.99E-4,33.0,8.775,-9.45,-32.325,222.1931,1.5881,0.0719,1.97,65.7567,48.843857,2.3533845,307.0968,NaN,,37.648388,,0 / 18,305,2022-01-10 17:59:31:869
-0.006281,-0.264108,9.689436,-0.011685,-0.271383,9.802887,6.51E-4,0.002156,-1.74E-4,-0.001065,-3.99E-4,3.99E-4,33.0,8.775,-9.45,-32.325,222.1931,1.5881,0.0719,1.97,65.7567,48.843857,2.3533845,307.0968,NaN,,37.648388,,0 / 18,310,2022-01-10 17:59:31:874
-0.006281,-0.264108,9.689436,-0.011685,-0.271383,9.802887,6.51E-4,0.002156,-1.74E-4,-0.001065,-3.99E-4,3.99E-4,33.0,8.775,-9.45,-32.325,222.1931,1.5881,0.0719,1.97,65.7567,48.843857,2.3533845,307.0968,NaN,,37.648388,,0 / 18,315,2022-01-10 17:59:31:879
-0.006281,-0.264108,9.689436,-0.011685,-0.271383,9.802887,6.51E-4,0.002156,-1.74E-4,-0.001065,-3.99E-4,3.99E-4,33.0,8.775,-9.45,-32.325,222.1931,1.5881,0.0719,1.97,65.7567,48.843857,2.3533845,307.0968,NaN,,37.648388,,0 / 18,320,2022-01-10 17:59:31:884
-0.006281,-0.264108,9.689436,-0.011685,-0.271383,9.802887,6.51E-4,0.002156,-1.74E-4,-0.001065,-3.99E-4,3.99E-4,33.0,8.775,-9.45,-32.325,222.1931,1.5881,0.0719,1.97,65.7567,48.843857,2.3533845,307.0968,NaN,,37.648388,,0 / 18,325,2022-01-10 17:59:31:889
-0.006281,-0.264108,9.689436,-0.011685,-0.271383,9.802887,6.51E-4,0.002156,-1.74E-4,-0.001065,-3.99E-4,3.99E-4,33.0,8.775,-9.45,-32.325,222.1931,1.5881,0.0719,1.97,65.7567,48.843857,2.3533845,307.0968,NaN,,37.648388,,0 / 18,330,2022-01-10 17:59:31:894
-0.006281,-0.264108,9.689436,-0.011685,-0.271383,9.802887,6.51E-4,0.002156,-1.74E-4,-0.001065,-3.99E-4,3.99E-4,33.0,8.775,-9.45,-32.325,222.1931,1.5881,0.0719,1.97,65.7567,48.843857,2.3533845,307.0968,NaN,,37.648388,,0 / 18,335,2022-01-10 17:59:31:899
-0.006281,-0.264108,9.689436,-0.011685,-0.271383,9.802887,6.51E-4,0.002156,-1.74E-4,-0.001065,-3.99E-4,3.99E-4,33.0,8.775,-9.45,-32.325,222.1931,1.5881,0.0719,1.97,65.7567,48.843857,2.3533845,307.0968,NaN,,37.648388,,0 / 18,340,2022-01-10 17:59:31:904
-0.006281,-0.264108,9.689436,-0.011685,-0.271383,9.802887,6.51E-4,0.002156,-1.74E-4,-0.001065,-3.99E-4,3.99E-4,33.0,8.775,-9.45,-32.325,222.1931,1.5881,0.0719,1.97,65.7567,48.843857,2.3533845,307.0968,NaN,,37.648388,,0 / 18,344,2022-01-10 17:59:31:908
-0.006281,-0.264108,9.689436,-0.011227,-0.27088,9.802901,6.51E-4,0.002156,-1.74E-4,-2.66E-4,-6.66E-4,7.99E-4,33.0,8.775,-9.45,-32.325,222.1931,1.5881,0.0719,1.97,65.7567,48.843857,2.3533845,307.0968,NaN,,37.648388,,0 / 18,350,2022-01-10 17:59:31:914
-0.006281,-0.264108,9.689436,-0.011227,-0.27088,9.802901,6.51E-4,0.002156,-1.74E-4,-2.66E-4,-6.66E-4,7.99E-4,33.0,8.775,-9.45,-32.325,222.1931,1.5881,0.0719,1.97,65.7567,48.843857,2.3533845,307.0968,NaN,,37.648388,,0 / 18,354,2022-01-10 17:59:31:918
-0.006281,-0.264108,9.689436,-0.011227,-0.27088,9.802901,6.51E-4,0.002156,-1.74E-4,-2.66E-4,-6.66E-4,7.99E-4,33.0,8.775,-9.45,-32.325,222.1931,1.5881,0.0719,1.97,65.7567,48.843857,2.3533845,307.0968,NaN,,37.648388,,0 / 18,359,2022-01-10 17:59:31:923
-0.006281,-0.264108,9.689436,-0.011227,-0.27088,9.802901,6.51E-4,0.002156,-1.74E-4,-2.66E-4,-6.66E-4,7.99E-4,33.0,8.775,-9.45,-32.325,222.1931,1.5881,0.0719,1.97,65.7567,48.843857,2.3533845,307.0968,NaN,,37.648388,,0 / 18,365,2022-01-10 17:59:31:929
-0.006281,-0.264108,9.689436,-0.011227,-0.27088,9.802901,6.51E-4,0.002156,-1.74E-4,-2.66E-4,-6.66E-4,7.99E-4,33.0,8.775,-9.45,-32.325,222.1931,1.5881,0.0719,1.97,65.7567,48.843857,2.3533845,307.0968,NaN,,37.648388,,0 / 18,370,2022-01-10 17:59:31:934
-0.006281,-0.264108,9.689436,-0.011227,-0.27088,9.802901,6.51E-4,0.002156,-1.74E-4,-2.66E-4,-6.66E-4,7.99E-4,33.0,8.775,-9.45,-32.325,222.1931,1.5881,0.0719,1.97,65.7567,48.843857,2.3533845,307.0968,NaN,,37.648388,,0 / 18,375,2022-01-10 17:59:31:939
-0.006281,-0.264108,9.689436,-0.011227,-0.27088,9.802901,6.51E-4,0.002156,-1.74E-4,-2.66E-4,-6.66E-4,7.99E-4,33.0,8.775,-9.45,-32.325,222.1931,1.5881,0.0719,1.97,65.7567,48.843857,2.3533845,307.0968,NaN,,37.648388,,0 / 18,379,2022-01-10 17:59:31:943
-0.006281,-0.264108,9.689436,-0.011227,-0.27088,9.802901,6.51E-4,0.002156,-1.74E-4,-2.66E-4,-6.66E-4,7.99E-4,33.0,8.775,-9.45,-32.325,222.1931,1.5881,0.0719,1.97,65.7567,48.843857,2.3533845,307.0968,NaN,,37.648388,,0 / 18,385,2022-01-10 17:59:31:949
-0.006281,-0.264108,9.689436,-0.011227,-0.27088,9.802901,6.51E-4,0.002156,-1.74E-4,-2.66E-4,-6.66E-4,7.99E-4,33.0,8.775,-9.45,-32.325,222.1931,1.5881,0.0719,1.97,65.7567,48.843857,2.3533845,307.0968,NaN,,37.648388,,0 / 18,390,2022-01-10 17:59:31:954
-0.006281,-0.264108,9.689436,-0.011227,-0.27088,9.802901,6.51E-4,0.002156,-1.74E-4,-2.66E-4,-6.66E-4,7.99E-4,33.0,8.775,-9.45,-32.325,222.1931,1.5881,0.0719,1.97,65.7567,48.843857,2.3533845,307.0968,NaN,,37.648388,,0 / 18,395,2022-01-10 17:59:31:959
-0.006281,-0.264108,9.689436,-0.011227,-0.27088,9.802901,6.51E-4,0.002156,-1.74E-4,-2.66E-4,-6.66E-4,7.99E-4,33.0,8.775,-9.45,-32.325,222.1931,1.5881,0.0719,1.97,65.7567,48.843857,2.3533845,307.0968,NaN,,37.648388,,0 / 18,399,2022-01-10 17:59:31:963
-0.006281,-0.264108,9.689436,-0.011227,-0.27088,9.802901,6.51E-4,0.002156,-1.74E-4,-2.66E-4,-6.66E-4,7.99E-4,33.0,8.775,-9.45,-32.325,222.1931,1.5881,0.0719,1.97,65.7567,48.843857,2.3533845,307.0968,NaN,,37.648388,,0 / 18,405,2022-01-10 17:59:31:969
-0.006281,-0.264108,9.689436,-0.011227,-0.27088,9.802901,6.51E-4,0.002156,-1.74E-4,-2.66E-4,-6.66E-4,7.99E-4,33.0,8.775,-9.45,-32.325,222.1931,1.5881,0.0719,1.97,65.7567,48.843857,2.3533845,307.0968,NaN,,37.648388,,0 / 18,410,2022-01-10 17:59:31:974
-0.006281,-0.264108,9.689436,-0.011227,-0.27088,9.802901,6.51E-4,0.002156,-1.74E-4,-2.66E-4,-6.66E-4,7.99E-4,33.0,8.775,-9.45,-32.325,222.1931,1.5881,0.0719,1.97,65.7567,48.843857,2.3533845,307.0968,NaN,,37.648388,,0 / 18,415,2022-01-10 17:59:31:979
-0.006281,-0.264108,9.689436,-0.011227,-0.27088,9.802901,0.001858,0.00162,-0.006921,-2.66E-4,-6.66E-4,7.99E-4,33.0,8.775,-9.45,-32.325,222.1931,1.5881,0.0719,1.97,65.7567,48.843857,2.3533845,307.0968,NaN,,37.648388,,0 / 18,421,2022-01-10 17:59:31:985
-0.002692,-0.264108,9.68465,-0.011227,-0.27088,9.802901,0.001858,0.00162,-0.006921,-2.66E-4,-6.66E-4,7.99E-4,33.0,8.775,-9.45,-32.325,222.1931,1.5881,0.0719,1.97,65.7567,48.843857,2.3533845,307.0968,NaN,,37.648388,,0 / 18,424,2022-01-10 17:59:31:988
-0.002692,-0.264108,9.68465,-0.011227,-0.27088,9.802901,0.001858,0.00162,-0.006921,-2.66E-4,-6.66E-4,7.99E-4,33.0,8.55,-9.15,-32.775,222.1296,1.5828,0.0656,1.97,65.7567,48.843857,2.3533845,307.0968,NaN,,37.648388,,0 / 18,431,2022-01-10 17:59:31:995
-0.002692,-0.264108,9.68465,-0.011227,-0.27088,9.802901,0.001858,0.00162,-0.006921,-2.66E-4,-6.66E-4,7.99E-4,33.0,8.55,-9.15,-32.775,222.1296,1.5828,0.0656,1.97,65.7567,48.843857,2.3533845,307.0968,NaN,,37.648388,,0 / 18,435,2022-01-10 17:59:31:999
-0.002692,-0.264108,9.68465,-0.011227,-0.27088,9.802901,0.001858,0.00162,-0.006921,-2.66E-4,-6.66E-4,7.99E-4,33.0,8.55,-9.15,-32.775,222.1296,1.5828,0.0656,1.97,65.7567,48.843857,2.3533845,307.0968,NaN,,37.648388,,0 / 18,442,2022-01-10 17:59:32:006
-0.002692,-0.264108,9.68465,-0.011227,-0.27088,9.802901,0.001858,0.00162,-0.006921,-2.66E-4,-6.66E-4,7.99E-4,33.0,8.55,-9.15,-32.775,222.1296,1.5828,0.0656,1.97,65.7567,48.843857,2.3533845,307.0968,NaN,,37.648388,,0 / 18,445,2022-01-10 17:59:32:009
-0.002692,-0.264108,9.68465,-0.011227,-0.27088,9.802901,0.001858,0.00162,-0.006921,-2.66E-4,-6.66E-4,7.99E-4,33.0,8.55,-9.15,-32.775,222.1296,1.5828,0.0656,1.97,65.7567,48.843857,2.3533845,307.0968,NaN,,37.648388,,0 / 18,450,2022-01-10 17:59:32:014
-0.002692,-0.264108,9.68465,-0.011227,-0.27088,9.802901,0.001858,0.00162,-0.006921,-2.66E-4,-6.66E-4,7.99E-4,33.0,8.55,-9.15,-32.775,222.1296,1.5828,0.0656,1.97,65.7567,48.843857,2.3533845,307.0968,NaN,,37.648388,,0 / 18,456,2022-01-10 17:59:32:020
-0.002692,-0.264108,9.68465,-0.011227,-0.27088,9.802901,0.001858,0.00162,-0.006921,-2.66E-4,-6.66E-4,7.99E-4,33.0,8.55,-9.15,-32.775,222.1296,1.5828,0.0656,1.97,65.7567,48.843857,2.3533845,307.0968,NaN,,37.648388,,0 / 18,460,2022-01-10 17:59:32:024
-0.002692,-0.264108,9.68465,-0.011558,-0.269838,9.802931,0.001858,0.00162,-0.006921,-2.66E-4,-6.66E-4,7.99E-4,33.0,8.55,-9.15,-32.775,222.1296,1.5828,0.0656,1.97,65.7567,48.843857,2.3533845,307.0968,NaN,,37.648388,,0 / 18,465,2022-01-10 17:59:32:029
-0.002692,-0.264108,9.68465,-0.011558,-0.269838,9.802931,0.001858,0.00162,-0.006921,-2.66E-4,-6.66E-4,7.99E-4,33.0,8.55,-9.15,-32.775,222.1296,1.5828,0.0656,1.97,65.7567,48.843857,2.3533845,307.0968,NaN,,37.648388,,0 / 18,470,2022-01-10 17:59:32:034
-0.002692,-0.264108,9.68465,-0.011558,-0.269838,9.802931,0.001858,0.00162,-0.006921,-2.66E-4,-6.66E-4,7.99E-4,33.0,8.55,-9.15,-32.775,222.1296,1.5828,0.0656,1.97,65.7567,48.843857,2.3533845,307.0968,NaN,,37.648388,,0 / 18,474,2022-01-10 17:59:32:038
-0.002692,-0.264108,9.68465,-0.011558,-0.269838,9.802931,0.001858,0.00162,-0.006921,-2.66E-4,-6.66E-4,7.99E-4,33.0,8.55,-9.15,-32.775,222.1296,1.5828,0.0656,1.97,65.7567,48.843857,2.3533845,307.0968,NaN,,37.648388,,0 / 18,480,2022-01-10 17:59:32:044
-0.002692,-0.264108,9.68465,-0.011558,-0.269838,9.802931,0.001858,0.00162,-0.006921,-2.66E-4,-6.66E-4,7.99E-4,33.0,8.55,-9.15,-32.775,222.1296,1.5828,0.0656,1.97,65.7567,48.843857,2.3533845,307.0968,NaN,,37.648388,,0 / 18,484,2022-01-10 17:59:32:048
-0.002692,-0.264108,9.68465,-0.011558,-0.269838,9.802931,0.001858,0.00162,-0.006921,1.33E-4,-1.33E-4,3.99E-4,33.0,8.55,-9.15,-32.775,222.1296,1.5828,0.0656,1.97,65.7567,48.843857,2.3533845,307.0968,NaN,,37.648388,,0 / 18,490,2022-01-10 17:59:32:054
-0.002692,-0.264108,9.68465,-0.011558,-0.269838,9.802931,0.001858,0.00162,-0.006921,1.33E-4,-1.33E-4,3.99E-4,33.0,8.55,-9.15,-32.775,222.1296,1.5828,0.0656,1.97,65.7567,48.843857,2.3533845,307.0968,NaN,,37.648388,,0 / 18,494,2022-01-10 17:59:32:058
-0.002692,-0.264108,9.68465,-0.011558,-0.269838,9.802931,0.001858,0.00162,-0.006921,1.33E-4,-1.33E-4,3.99E-4,33.0,8.55,-9.15,-32.775,222.1296,1.5828,0.0656,1.97,65.7567,48.843857,2.3533845,307.0968,NaN,,37.648388,,0 / 18,502,2022-01-10 17:59:32:066
-0.002692,-0.264108,9.68465,-0.011558,-0.269838,9.802931,0.001858,0.00162,-0.006921,1.33E-4,-1.33E-4,3.99E-4,33.0,8.55,-9.15,-32.775,222.1296,1.5828,0.0656,1.97,65.7567,48.843857,2.3533845,307.0968,NaN,,37.648388,,0 / 18,504,2022-01-10 17:59:32:068
-0.015852,-0.249751,9.681062,-0.011558,-0.269838,9.802931,-0.001388,0.003437,0.002339,1.33E-4,-1.33E-4,3.99E-4,33.0,8.55,-9.15,-32.775,222.1296,1.5828,0.0656,1.97,65.7567,48.843857,2.3533845,307.0968,NaN,,37.648388,,0 / 18,561,2022-01-10 17:59:32:125
-0.015852,-0.249751,9.681062,-0.011558,-0.269838,9.802931,-0.001388,0.003437,0.002339,1.33E-4,-1.33E-4,3.99E-4,33.0,8.55,-9.15,-32.775,222.1296,1.5828,0.0656,1.97,65.7567,48.843857,2.3533845,307.0968,NaN,,37.648388,,0 / 18,562,2022-01-10 17:59:32:126
-0.015852,-0.249751,9.681062,-0.011558,-0.269838,9.802931,-0.001388,0.003437,0.002339,1.33E-4,-1.33E-4,3.99E-4,33.0,8.55,-9.15,-32.775,222.1296,1.5828,0.0656,1.97,65.7567,48.843857,2.3533845,307.0968,NaN,,37.648388,,0 / 18,562,2022-01-10 17:59:32:126
-0.015852,-0.249751,9.681062,-0.011558,-0.269838,9.802931,-0.001388,0.003437,0.002339,1.33E-4,-1.33E-4,3.99E-4,33.0,8.55,-9.15,-32.775,222.1296,1.5828,0.0656,1.97,65.7567,48.843857,2.3533845,307.0968,NaN,,37.648388,,0 / 18,562,2022-01-10 17:59:32:126
-0.015852,-0.249751,9.681062,-0.011558,-0.269838,9.802931,-0.001388,0.003437,0.002339,1.33E-4,-1.33E-4,3.99E-4,33.0,8.55,-9.15,-32.775,222.1296,1.5828,0.0656,1.97,65.7567,48.843857,2.3533845,307.0968,NaN,,37.648388,,0 / 18,562,2022-01-10 17:59:32:126
-0.015852,-0.249751,9.681062,-0.011558,-0.269838,9.802931,-0.001388,0.003437,0.002339,1.33E-4,-1.33E-4,3.99E-4,33.0,8.55,-9.15,-32.775,222.1296,1.5828,0.0656,1.97,65.7567,48.843857,2.3533845,307.0968,NaN,,37.648388,,0 / 18,562,2022-01-10 17:59:32:126
-0.015852,-0.249751,9.681062,-0.011558,-0.269838,9.802931,-0.001388,0.003437,0.002339,1.33E-4,-1.33E-4,3.99E-4,33.0,8.55,-9.15,-32.775,222.1296,1.5828,0.0656,1.97,65.7567,48.843857,2.3533845,307.0968,NaN,,37.648388,,0 / 18,562,2022-01-10 17:59:32:126
-0.015852,-0.249751,9.681062,-0.011558,-0.269838,9.802931,-0.001388,0.003437,0.002339,1.33E-4,-1.33E-4,3.99E-4,33.0,8.55,-9.15,-32.775,222.1296,1.5828,0.0656,1.97,65.7567,48.843857,2.3533845,307.0968,NaN,,37.648388,,0 / 18,563,2022-01-10 17:59:32:127
-0.015852,-0.249751,9.681062,-0.011558,-0.269838,9.802931,-0.001388,0.003437,0.002339,1.33E-4,-1.33E-4,3.99E-4,33.0,8.55,-9.15,-32.775,222.1296,1.5828,0.0656,1.97,65.7567,48.843857,2.3533845,307.0968,NaN,,37.648388,,0 / 18,563,2022-01-10 17:59:32:127
-0.015852,-0.249751,9.681062,-0.011558,-0.269838,9.802931,-0.001388,0.003437,0.002339,1.33E-4,-1.33E-4,3.99E-4,33.0,8.55,-9.15,-32.775,222.1296,1.5828,0.0656,1.97,65.7567,48.843857,2.3533845,307.0968,NaN,,37.648388,,0 / 18,563,2022-01-10 17:59:32:127
-0.015852,-0.249751,9.681062,-0.011558,-0.269838,9.802931,-0.001388,0.003437,0.002339,1.33E-4,-1.33E-4,3.99E-4,33.0,8.55,-9.15,-32.775,222.1296,1.5828,0.0656,1.97,65.7567,48.843857,2.3533845,307.0968,NaN,,37.648388,,0 / 18,563,2022-01-10 17:59:32:127
-0.015852,-0.249751,9.681062,-0.011558,-0.269838,9.802931,-0.001388,0.003437,0.002339,1.33E-4,-1.33E-4,3.99E-4,33.0,8.55,-9.15,-32.775,222.1296,1.5828,0.0656,1.97,65.7567,48.843857,2.3533845,307.0968,NaN,,37.648388,,0 / 18,565,2022-01-10 17:59:32:129
-0.015852,-0.249751,9.681062,-0.011558,-0.269838,9.802931,-0.001388,0.003437,0.002339,1.33E-4,-1.33E-4,3.99E-4,33.0,8.55,-9.15,-32.775,222.1296,1.5828,0.0656,1.97,65.7567,48.843857,2.3533845,307.0968,NaN,,37.648388,,0 / 18,570,2022-01-10 17:59:32:134
-0.015852,-0.249751,9.681062,-0.011558,-0.269838,9.802931,-0.001388,0.003437,0.002339,1.33E-4,-1.33E-4,3.99E-4,33.0,8.55,-9.15,-32.775,222.1296,1.5828,0.0656,1.97,65.7567,48.843857,2.3533845,307.0968,NaN,,37.648388,,0 / 18,575,2022-01-10 17:59:32:139
-0.015852,-0.249751,9.681062,-0.011558,-0.269838,9.802931,-0.001388,0.003437,0.002339,1.33E-4,-1.33E-4,3.99E-4,33.0,8.55,-9.15,-32.775,222.1296,1.5828,0.0656,1.97,65.7567,48.843857,2.3533845,307.0968,NaN,,37.648388,,0 / 18,580,2022-01-10 17:59:32:144
-0.015852,-0.249751,9.681062,-0.011558,-0.269838,9.802931,-0.001388,0.003437,0.002339,1.33E-4,-1.33E-4,3.99E-4,33.0,8.55,-9.15,-32.775,222.1296,1.5828,0.0656,1.97,43.57285,48.843857,2.3533845,307.0968,NaN,,37.648388,,0 / 18,585,2022-01-10 17:59:32:149
-0.015852,-0.249751,9.681062,-0.011558,-0.269838,9.802931,-0.001388,0.003437,0.002339,1.33E-4,-1.33E-4,3.99E-4,33.0,8.55,-9.15,-32.775,222.1296,1.5828,0.0656,1.97,43.57285,48.843857,2.3533845,307.0968,NaN,,37.648388,,0 / 18,590,2022-01-10 17:59:32:154
-0.015852,-0.249751,9.681062,-0.011558,-0.269838,9.802931,-0.001388,0.003437,0.002339,1.33E-4,-1.33E-4,3.99E-4,33.0,8.55,-9.15,-32.775,222.1296,1.5828,0.0656,1.97,43.57285,48.843857,2.3533845,307.0968,NaN,,37.648388,,0 / 18,595,2022-01-10 17:59:32:159
-0.014656,-0.258126,9.699007,-0.011318,-0.268959,9.802955,-0.001388,0.003437,0.002339,1.33E-4,-1.33E-4,3.99E-4,33.0,8.55,-9.15,-32.775,222.1296,1.5828,0.0656,1.97,43.57285,48.843857,2.3533845,307.0968,NaN,,37.648388,,0 / 18,599,2022-01-10 17:59:32:163
-0.014656,-0.258126,9.699007,-0.011318,-0.268959,9.802955,-0.001388,0.003437,0.002339,1.33E-4,-1.33E-4,3.99E-4,33.0,8.55,-9.15,-32.775,222.1296,1.5828,0.0656,1.97,43.57285,48.843857,2.3533845,307.0968,NaN,,37.648388,,0 / 18,605,2022-01-10 17:59:32:169
-0.014656,-0.258126,9.699007,-0.011318,-0.268959,9.802955,-0.001388,0.003437,0.002339,1.33E-4,-1.33E-4,3.99E-4,33.0,8.55,-9.15,-32.775,222.1296,1.5828,0.0656,1.97,43.57285,48.843857,2.3533845,307.0968,NaN,,37.648388,,0 / 18,609,2022-01-10 17:59:32:173
-0.014656,-0.258126,9.699007,-0.011318,-0.268959,9.802955,-0.001388,0.003437,0.002339,1.33E-4,-1.33E-4,3.99E-4,33.0,8.55,-9.15,-32.775,222.1296,1.5828,0.0656,1.97,43.57285,48.843857,2.3533845,307.0968,NaN,,37.648388,,0 / 18,616,2022-01-10 17:59:32:180
-0.014656,-0.258126,9.699007,-0.011318,-0.268959,9.802955,-0.001388,0.003437,0.002339,1.33E-4,-1.33E-4,3.99E-4,33.0,8.55,-9.15,-32.775,222.1296,1.5828,0.0656,1.97,43.57285,48.843857,2.3533845,307.0968,NaN,,37.648388,,0 / 18,620,2022-01-10 17:59:32:184
-0.014656,-0.258126,9.699007,-0.011318,-0.268959,9.802955,-0.001388,0.003437,0.002339,-7.99E-4,0.0,3.99E-4,33.0,8.55,-9.075,-33.225,222.1471,1.5716,0.0662,1.97,43.57285,48.843857,2.3533845,307.0968,NaN,,37.648388,,0 / 18,625,2022-01-10 17:59:32:189
-0.014656,-0.258126,9.699007,-0.011318,-0.268959,9.802955,-0.001388,0.003437,0.002339,-7.99E-4,0.0,3.99E-4,33.0,8.55,-9.075,-33.225,222.1471,1.5716,0.0662,1.97,43.57285,48.843857,2.3533845,307.0968,NaN,,37.648388,,0 / 18,630,2022-01-10 17:59:32:194
-0.014656,-0.258126,9.699007,-0.011318,-0.268959,9.802955,-0.001388,0.003437,0.002339,-7.99E-4,0.0,3.99E-4,33.0,8.55,-9.075,-33.225,222.1471,1.5716,0.0662,1.97,43.57285,48.843857,2.3533845,307.0968,NaN,,37.648388,,0 / 18,635,2022-01-10 17:59:32:199
-0.014656,-0.258126,9.699007,-0.011318,-0.268959,9.802955,-0.001388,0.003437,0.002339,-7.99E-4,0.0,3.99E-4,33.0,8.55,-9.075,-33.225,222.1471,1.5716,0.0662,1.97,43.57285,48.843857,2.3533845,307.0968,NaN,,37.648388,,0 / 18,640,2022-01-10 17:59:32:204
-0.014656,-0.258126,9.699007,-0.011318,-0.268959,9.802955,-0.001388,0.003437,0.002339,-7.99E-4,0.0,3.99E-4,33.0,8.55,-9.075,-33.225,222.1471,1.5716,0.0662,1.97,43.57285,48.843857,2.3533845,307.0968,NaN,,37.648388,,0 / 18,645,2022-01-10 17:59:32:209
-0.014656,-0.258126,9.699007,-0.011318,-0.268959,9.802955,-0.001388,0.003437,0.002339,-7.99E-4,0.0,3.99E-4,33.0,8.55,-9.075,-33.225,222.1471,1.5716,0.0662,1.97,43.57285,48.843857,2.3533845,307.0968,NaN,,37.648388,,0 / 18,649,2022-01-10 17:59:32:213
-0.014656,-0.258126,9.699007,-0.011318,-0.268959,9.802955,-0.001388,0.003437,0.002339,-7.99E-4,0.0,3.99E-4,33.0,8.55,-9.075,-33.225,222.1471,1.5716,0.0662,1.97,43.57285,48.843857,2.3533845,307.0968,NaN,,37.648388,,0 / 18,655,2022-01-10 17:59:32:219
-0.014656,-0.258126,9.699007,-0.011318,-0.268959,9.802955,0.002406,0.005057,0.001199,-7.99E-4,0.0,3.99E-4,33.0,8.55,-9.075,-33.225,222.1471,1.5716,0.0662,1.97,43.57285,48.843857,2.3533845,307.0968,NaN,,37.648388,,0 / 18,660,2022-01-10 17:59:32:224
-0.014656,-0.258126,9.699007,-0.011318,-0.268959,9.802955,0.002406,0.005057,0.001199,-7.99E-4,0.0,3.99E-4,33.0,8.55,-9.075,-33.225,222.1471,1.5716,0.0662,1.97,43.57285,48.843857,2.3533845,307.0968,NaN,,37.648388,,0 / 18,664,2022-01-10 17:59:32:228
-0.014656,-0.258126,9.699007,-0.011318,-0.268959,9.802955,0.002406,0.005057,0.001199,-7.99E-4,0.0,3.99E-4,33.0,8.55,-9.075,-33.225,222.1471,1.5716,0.0662,1.97,43.57285,48.843857,2.3533845,307.0968,NaN,,37.648388,,0 / 18,670,2022-01-10 17:59:32:234
-0.014656,-0.258126,9.699007,-0.011318,-0.268959,9.802955,0.002406,0.005057,0.001199,-7.99E-4,0.0,3.99E-4,33.0,8.55,-9.075,-33.225,222.1471,1.5716,0.0662,1.97,43.57285,48.843857,2.3533845,307.0968,NaN,,37.648388,,0 / 18,675,2022-01-10 17:59:32:239
-0.014656,-0.258126,9.699007,-0.011318,-0.268959,9.802955,0.002406,0.005057,0.001199,-7.99E-4,0.0,3.99E-4,33.0,8.55,-9.075,-33.225,222.1471,1.5716,0.0662,1.97,43.57285,48.843857,2.3533845,307.0968,NaN,,37.648388,,0 / 18,679,2022-01-10 17:59:32:243
-0.014656,-0.258126,9.699007,-0.011318,-0.268959,9.802955,0.002406,0.005057,0.001199,-7.99E-4,0.0,3.99E-4,33.0,8.55,-9.075,-33.225,222.1471,1.5716,0.0662,1.97,43.57285,48.843857,2.3533845,307.0968,NaN,,37.648388,,0 / 18,685,2022-01-10 17:59:32:249
-0.014656,-0.258126,9.699007,-0.011318,-0.268959,9.802955,0.002406,0.005057,0.001199,-7.99E-4,0.0,3.99E-4,33.0,8.55,-9.075,-33.225,222.1471,1.5716,0.0662,1.97,43.57285,48.843857,2.3533845,307.0968,NaN,,37.648388,,0 / 18,690,2022-01-10 17:59:32:254
-0.014656,-0.258126,9.699007,-0.011318,-0.268959,9.802955,0.002406,0.005057,0.001199,-7.99E-4,0.0,3.99E-4,33.0,8.55,-9.075,-33.225,222.1471,1.5716,0.0662,1.97,43.57285,48.843857,2.3533845,307.0968,NaN,,37.648388,,0 / 18,694,2022-01-10 17:59:32:258
-0.014656,-0.258126,9.699007,-0.011318,-0.268959,9.802955,0.002406,0.005057,0.001199,-7.99E-4,0.0,3.99E-4,33.0,8.55,-9.075,-33.225,222.1471,1.5716,0.0662,1.97,43.57285,48.843857,2.3533845,307.0968,NaN,,37.648388,,0 / 18,700,2022-01-10 17:59:32:264
-0.014656,-0.258126,9.699007,-0.011318,-0.268959,9.802955,0.002406,0.005057,0.001199,-7.99E-4,0.0,3.99E-4,33.0,8.55,-9.075,-33.225,222.1471,1.5716,0.0662,1.97,43.57285,48.843857,2.3533845,307.0968,NaN,,37.648388,,0 / 18,705,2022-01-10 17:59:32:269
-0.020638,-0.264108,9.695418,-0.01096,-0.268198,9.802977,0.002406,0.005057,0.001199,-7.99E-4,0.0,3.99E-4,33.0,8.55,-9.075,-33.225,222.1471,1.5716,0.0662,1.97,43.57285,48.843857,2.3533845,307.0968,NaN,,37.648388,,0 / 18,709,2022-01-10 17:59:32:273
-0.020638,-0.264108,9.695418,-0.01096,-0.268198,9.802977,0.002406,0.005057,0.001199,-7.99E-4,0.0,3.99E-4,33.0,8.55,-9.075,-33.225,222.1471,1.5716,0.0662,1.97,43.57285,48.843857,2.3533845,307.0968,NaN,,37.648388,,0 / 18,714,2022-01-10 17:59:32:278
-0.020638,-0.264108,9.695418,-0.01096,-0.268198,9.802977,0.002406,0.005057,0.001199,-7.99E-4,0.0,3.99E-4,33.0,8.55,-9.075,-33.225,222.1471,1.5716,0.0662,1.97,43.57285,48.843857,2.3533845,307.0968,NaN,,37.648388,,0 / 18,720,2022-01-10 17:59:32:284
-0.020638,-0.264108,9.695418,-0.01096,-0.268198,9.802977,0.002406,0.005057,0.001199,-7.99E-4,0.0,3.99E-4,33.0,8.475,-9.15,-33.45,222.1471,1.5716,0.0662,1.97,43.57285,48.843857,2.3533845,307.0968,NaN,,37.648388,,0 / 18,725,2022-01-10 17:59:32:289
-0.020638,-0.264108,9.695418,-0.01096,-0.268198,9.802977,0.002406,0.005057,0.001199,-7.99E-4,0.0,3.99E-4,33.0,8.475,-9.15,-33.45,222.1471,1.5716,0.0662,1.97,43.57285,48.843857,2.3533845,307.0968,NaN,,37.648388,,0 / 18,730,2022-01-10 17:59:32:294
-0.020638,-0.264108,9.695418,-0.01096,-0.268198,9.802977,0.002406,0.005057,0.001199,-7.99E-4,0.0,3.99E-4,33.0,8.475,-9.15,-33.45,222.1471,1.5716,0.0662,1.97,43.57285,48.843857,2.3533845,307.0968,NaN,,37.648388,,0 / 18,735,2022-01-10 17:59:32:299
-0.020638,-0.264108,9.695418,-0.01096,-0.268198,9.802977,0.002406,0.005057,0.001199,-7.99E-4,0.0,3.99E-4,33.0,8.475,-9.15,-33.45,222.1471,1.5716,0.0662,1.97,43.57285,48.843857,2.3533845,307.0968,NaN,,37.648388,,0 / 18,741,2022-01-10 17:59:32:305
-0.020638,-0.264108,9.695418,-0.01096,-0.268198,9.802977,0.002406,0.005057,0.001199,-7.99E-4,0.0,3.99E-4,33.0,8.475,-9.15,-33.45,222.1471,1.5716,0.0662,1.97,43.57285,48.843857,2.3533845,307.0968,NaN,,37.648388,,0 / 18,744,2022-01-10 17:59:32:308
-0.020638,-0.264108,9.695418,-0.01096,-0.268198,9.802977,0.002406,0.005057,0.001199,-7.99E-4,0.0,3.99E-4,33.0,8.475,-9.15,-33.45,222.1471,1.5716,0.0662,1.97,43.57285,48.843857,2.3533845,307.0968,NaN,,37.648388,,0 / 18,750,2022-01-10 17:59:32:314
-0.020638,-0.264108,9.695418,-0.01096,-0.268198,9.802977,0.002406,0.005057,0.001199,0.0,1.33E-4,-3.99E-4,33.0,8.475,-9.15,-33.45,222.1471,1.5716,0.0662,1.97,43.57285,48.843857,2.3533845,307.0968,NaN,,37.648388,,0 / 18,755,2022-01-10 17:59:32:319
-0.020638,-0.264108,9.695418,-0.01096,-0.268198,9.802977,0.002406,0.005057,0.001199,0.0,1.33E-4,-3.99E-4,33.0,8.475,-9.15,-33.45,222.1471,1.5716,0.0662,1.97,43.57285,48.843857,2.3533845,307.0968,NaN,,37.648388,,0 / 18,760,2022-01-10 17:59:32:324
-0.020638,-0.264108,9.695418,-0.01096,-0.268198,9.802977,0.002406,0.005057,0.001199,0.0,1.33E-4,-3.99E-4,33.0,8.475,-9.15,-33.45,222.1471,1.5716,0.0662,1.97,43.57285,48.843857,2.3533845,307.0968,NaN,,37.648388,,0 / 18,767,2022-01-10 17:59:32:331
-0.020638,-0.264108,9.695418,-0.01096,-0.268198,9.802977,-7.68E-4,6.49E-4,-0.002242,0.0,1.33E-4,-3.99E-4,33.0,8.475,-9.15,-33.45,222.1471,1.5716,0.0662,1.97,43.57285,48.843857,2.3533845,307.0968,NaN,,37.648388,,0 / 18,770,2022-01-10 17:59:32:334
-0.020638,-0.264108,9.695418,-0.01096,-0.268198,9.802977,-7.68E-4,6.49E-4,-0.002242,0.0,1.33E-4,-3.99E-4,33.0,8.475,-9.15,-33.45,222.1471,1.5716,0.0662,1.97,43.57285,48.843857,2.3533845,307.0968,NaN,,37.648388,,0 / 18,775,2022-01-10 17:59:32:339
-0.020638,-0.264108,9.695418,-0.01096,-0.268198,9.802977,-7.68E-4,6.49E-4,-0.002242,0.0,1.33E-4,-3.99E-4,33.0,8.475,-9.15,-33.45,222.1471,1.5716,0.0662,1.97,43.57285,48.843857,2.3533845,307.0968,NaN,,37.648388,,0 / 18,780,2022-01-10 17:59:32:344
-0.020638,-0.264108,9.695418,-0.01096,-0.268198,9.802977,-7.68E-4,6.49E-4,-0.002242,0.0,1.33E-4,-3.99E-4,33.0,8.475,-9.15,-33.45,222.1471,1.5716,0.0662,1.97,43.57285,48.843857,2.3533845,307.0968,NaN,,37.648388,,0 / 18,785,2022-01-10 17:59:32:349
-0.020638,-0.264108,9.695418,-0.01096,-0.268198,9.802977,-7.68E-4,6.49E-4,-0.002242,0.0,1.33E-4,-3.99E-4,33.0,8.475,-9.15,-33.45,222.1471,1.5716,0.0662,1.97,43.57285,48.843857,2.3533845,307.0968,NaN,,37.648388,,0 / 18,790,2022-01-10 17:59:32:354
0.004487,-0.258126,9.681062,-0.01096,-0.268198,9.802977,-7.68E-4,6.49E-4,-0.002242,0.0,1.33E-4,-3.99E-4,33.0,8.475,-9.15,-33.45,222.1471,1.5716,0.0662,1.97,43.57285,48.843857,2.3533845,307.0968,NaN,,37.648388,,0 / 18,794,2022-01-10 17:59:32:358
0.004487,-0.258126,9.681062,-0.01096,-0.268198,9.802977,-7.68E-4,6.49E-4,-0.002242,0.0,1.33E-4,-3.99E-4,33.0,8.475,-9.15,-33.45,222.1471,1.5716,0.0662,1.97,43.57285,48.843857,2.3533845,307.0968,NaN,,37.648388,,0 / 18,800,2022-01-10 17:59:32:364
0.004487,-0.258126,9.681062,-0.01096,-0.268198,9.802977,-7.68E-4,6.49E-4,-0.002242,0.0,1.33E-4,-3.99E-4,33.0,8.475,-9.15,-33.45,222.1471,1.5716,0.0662,1.97,43.57285,48.843857,2.3533845,307.0968,NaN,,37.648388,,0 / 18,806,2022-01-10 17:59:32:370
0.004487,-0.258126,9.681062,-0.01096,-0.268198,9.802977,-7.68E-4,6.49E-4,-0.002242,0.0,1.33E-4,-3.99E-4,33.0,8.475,-9.15,-33.45,222.1471,1.5716,0.0662,1.97,43.57285,48.843857,2.3533845,307.0968,NaN,,37.648388,,0 / 18,811,2022-01-10 17:59:32:375
0.004487,-0.258126,9.681062,-0.01096,-0.268198,9.802977,-7.68E-4,6.49E-4,-0.002242,0.0,1.33E-4,-3.99E-4,33.0,8.475,-9.15,-33.45,222.1471,1.5716,0.0662,1.97,43.57285,48.843857,2.3533845,307.0968,NaN,,37.648388,,0 / 18,815,2022-01-10 17:59:32:379
0.004487,-0.258126,9.681062,-0.01096,-0.268198,9.802977,-7.68E-4,6.49E-4,-0.002242,0.0,1.33E-4,-3.99E-4,33.0,8.475,-9.15,-33.45,222.1471,1.5716,0.0662,1.97,43.57285,48.843857,2.3533845,307.0968,NaN,,37.648388,,0 / 18,821,2022-01-10 17:59:32:385
0.004487,-0.258126,9.681062,-0.01096,-0.268198,9.802977,-7.68E-4,6.49E-4,-0.002242,0.0,1.33E-4,-3.99E-4,33.0,8.475,-9.15,-33.45,222.1471,1.5716,0.0662,1.97,43.57285,48.843857,2.3533845,307.0968,NaN,,37.648388,,0 / 18,825,2022-01-10 17:59:32:389
0.004487,-0.258126,9.681062,-0.01096,-0.268198,9.802977,-7.68E-4,6.49E-4,-0.002242,0.0,1.33E-4,-3.99E-4,33.0,8.475,-9.15,-33.45,222.1471,1.5716,0.0662,1.97,43.57285,48.843857,2.3533845,307.0968,NaN,,37.648388,,0 / 18,831,2022-01-10 17:59:32:395
0.004487,-0.258126,9.681062,-0.009036,-0.267351,9.803001,-7.68E-4,6.49E-4,-0.002242,0.0,1.33E-4,-3.99E-4,33.0,8.475,-9.15,-33.45,222.1471,1.5716,0.0662,1.97,43.57285,48.843857,2.3533845,307.0968,NaN,,37.648388,,0 / 18,834,2022-01-10 17:59:32:398
0.004487,-0.258126,9.681062,-0.009036,-0.267351,9.803001,-7.68E-4,6.49E-4,-0.002242,0.0,1.33E-4,-3.99E-4,33.0,8.475,-9.15,-33.45,222.1471,1.5716,0.0662,1.97,43.57285,48.843857,2.3533845,307.0968,NaN,,37.648388,,0 / 18,840,2022-01-10 17:59:32:404
0.004487,-0.258126,9.681062,-0.009036,-0.267351,9.803001,-7.68E-4,6.49E-4,-0.002242,0.0,1.33E-4,-3.99E-4,33.0,8.475,-9.15,-33.45,222.1471,1.5716,0.0662,1.97,43.57285,48.843857,2.3533845,307.0968,NaN,,37.648388,,0 / 18,846,2022-01-10 17:59:32:410
0.004487,-0.258126,9.681062,-0.009036,-0.267351,9.803001,-7.68E-4,6.49E-4,-0.002242,0.0,1.33E-4,-3.99E-4,33.0,8.475,-9.15,-33.45,222.1471,1.5716,0.0662,1.97,43.57285,48.843857,2.3533845,307.0968,NaN,,37.648388,,0 / 18,850,2022-01-10 17:59:32:414
0.004487,-0.258126,9.681062,-0.009036,-0.267351,9.803001,-7.68E-4,6.49E-4,-0.002242,0.0,1.33E-4,-3.99E-4,33.0,8.475,-9.15,-33.45,222.1471,1.5716,0.0662,1.97,43.57285,48.843857,2.3533845,307.0968,NaN,,37.648388,,0 / 18,854,2022-01-10 17:59:32:418
0.004487,-0.258126,9.681062,-0.009036,-0.267351,9.803001,-7.68E-4,6.49E-4,-0.002242,0.0,1.33E-4,-3.99E-4,33.0,8.475,-9.15,-33.45,222.1471,1.5716,0.0662,1.97,43.57285,48.843857,2.3533845,307.0968,NaN,,37.648388,,0 / 18,861,2022-01-10 17:59:32:425
0.004487,-0.258126,9.681062,-0.009036,-0.267351,9.803001,-7.68E-4,6.49E-4,-0.002242,0.0,1.33E-4,-3.99E-4,33.0,8.475,-9.15,-33.45,222.1471,1.5716,0.0662,1.97,43.57285,48.843857,2.3533845,307.0968,NaN,,37.648388,,0 / 18,865,2022-01-10 17:59:32:429
0.004487,-0.258126,9.681062,-0.009036,-0.267351,9.803001,-7.68E-4,6.49E-4,-0.002242,0.0,1.33E-4,-3.99E-4,33.0,8.475,-9.15,-33.45,222.1471,1.5716,0.0662,1.97,43.57285,48.843857,2.3533845,307.0968,NaN,,37.648388,,0 / 18,871,2022-01-10 17:59:32:435
0.009272,-0.254537,9.712168,-0.009036,-0.267351,9.803001,-7.68E-4,6.49E-4,-0.002242,0.0,1.33E-4,-3.99E-4,33.0,8.55,-9.075,-33.375,222.1871,1.5622,0.0528,1.97,43.57285,48.843857,2.3533845,307.0968,NaN,,37.648388,,0 / 18,875,2022-01-10 17:59:32:439
0.009272,-0.254537,9.712168,-0.009036,-0.267351,9.803001,-7.68E-4,6.49E-4,-0.002242,0.0,1.33E-4,-3.99E-4,33.0,8.55,-9.075,-33.375,222.1871,1.5622,0.0528,1.97,43.57285,48.843857,2.3533845,307.0968,NaN,,37.648388,,0 / 18,880,2022-01-10 17:59:32:444
0.009272,-0.254537,9.712168,-0.009036,-0.267351,9.803001,-7.68E-4,6.49E-4,-0.002242,0.0,1.33E-4,-3.99E-4,33.0,8.55,-9.075,-33.375,222.1871,1.5622,0.0528,1.97,43.57285,48.843857,2.3533845,307.0968,NaN,,37.648388,,0 / 18,885,2022-01-10 17:59:32:449
0.009272,-0.254537,9.712168,-0.009036,-0.267351,9.803001,-7.68E-4,6.49E-4,-0.002242,0.001065,0.001198,1.33E-4,33.0,8.55,-9.075,-33.375,222.1871,1.5622,0.0528,1.97,43.57285,48.843857,2.3533845,307.0968,NaN,,37.648388,,0 / 18,890,2022-01-10 17:59:32:454
0.009272,-0.254537,9.712168,-0.009036,-0.267351,9.803001,-7.68E-4,6.49E-4,-0.002242,0.001065,0.001198,1.33E-4,33.0,8.55,-9.075,-33.375,222.1871,1.5622,0.0528,1.97,43.57285,48.843857,2.3533845,307.0968,NaN,,37.648388,,0 / 18,895,2022-01-10 17:59:32:459
0.009272,-0.254537,9.712168,-0.009036,-0.267351,9.803001,-7.68E-4,6.49E-4,-0.002242,0.001065,0.001198,1.33E-4,33.0,8.55,-9.075,-33.375,222.1871,1.5622,0.0528,1.97,43.57285,48.843857,2.3533845,307.0968,NaN,,37.648388,,0 / 18,900,2022-01-10 17:59:32:464
0.009272,-0.254537,9.712168,-0.009036,-0.267351,9.803001,0.010461,0.005416,-2.64E-4,0.001065,0.001198,1.33E-4,33.0,8.55,-9.075,-33.375,222.1871,1.5622,0.0528,1.97,43.57285,48.843857,2.3533845,307.0968,NaN,,37.648388,,0 / 18,905,2022-01-10 17:59:32:469
0.009272,-0.254537,9.712168,-0.009036,-0.267351,9.803001,0.010461,0.005416,-2.64E-4,0.001065,0.001198,1.33E-4,33.0,8.55,-9.075,-33.375,222.1871,1.5622,0.0528,1.97,43.57285,48.843857,2.3533845,307.0968,NaN,,37.648388,,0 / 18,911,2022-01-10 17:59:32:475
0.009272,-0.254537,9.712168,-0.009036,-0.267351,9.803001,0.010461,0.005416,-2.64E-4,0.001065,0.001198,1.33E-4,33.0,8.55,-9.075,-33.375,222.1871,1.5622,0.0528,1.97,43.57285,48.843857,2.3533845,307.0968,NaN,,37.648388,,0 / 18,915,2022-01-10 17:59:32:479
0.009272,-0.254537,9.712168,-0.009036,-0.267351,9.803001,0.010461,0.005416,-2.64E-4,0.001065,0.001198,1.33E-4,33.0,8.55,-9.075,-33.375,222.1871,1.5622,0.0528,1.97,26.76552,48.843857,2.3533845,307.0968,NaN,,37.648388,,0 / 18,920,2022-01-10 17:59:32:484
0.009272,-0.254537,9.712168,-0.009036,-0.267351,9.803001,0.010461,0.005416,-2.64E-4,0.001065,0.001198,1.33E-4,33.0,8.55,-9.075,-33.375,222.1871,1.5622,0.0528,1.97,26.76552,48.843857,2.3533845,307.0968,NaN,,37.648388,,0 / 18,925,2022-01-10 17:59:32:489
0.009272,-0.254537,9.712168,-0.009036,-0.267351,9.803001,0.010461,0.005416,-2.64E-4,0.001065,0.001198,1.33E-4,33.0,8.55,-9.075,-33.375,222.1871,1.5622,0.0528,1.97,26.76552,48.843857,2.3533845,307.0968,NaN,,37.648388,,0 / 18,931,2022-01-10 17:59:32:495
0.009272,-0.254537,9.712168,-0.009036,-0.267351,9.803001,0.010461,0.005416,-2.64E-4,0.001065,0.001198,1.33E-4,33.0,8.55,-9.075,-33.375,222.1871,1.5622,0.0528,1.97,26.76552,48.843857,2.3533845,307.0968,NaN,,37.648388,,0 / 18,935,2022-01-10 17:59:32:499
0.009272,-0.254537,9.712168,-0.009036,-0.267351,9.803001,0.010461,0.005416,-2.64E-4,0.001065,0.001198,1.33E-4,33.0,8.55,-9.075,-33.375,222.1871,1.5622,0.0528,1.97,26.76552,48.843857,2.3533845,307.0968,NaN,,37.648388,,0 / 18,939,2022-01-10 17:59:32:503
0.009272,-0.254537,9.712168,-0.009036,-0.267351,9.803001,0.010461,0.005416,-2.64E-4,0.001065,0.001198,1.33E-4,33.0,8.55,-9.075,-33.375,222.1871,1.5622,0.0528,1.97,26.76552,48.843857,2.3533845,307.0968,NaN,,37.648388,,0 / 18,945,2022-01-10 17:59:32:509
0.009272,-0.254537,9.712168,-0.009036,-0.267351,9.803001,0.010461,0.005416,-2.64E-4,0.001065,0.001198,1.33E-4,33.0,8.55,-9.075,-33.375,222.1871,1.5622,0.0528,1.97,26.76552,48.843857,2.3533845,307.0968,NaN,,37.648388,,0 / 18,949,2022-01-10 17:59:32:513
0.009272,-0.254537,9.712168,-0.009036,-0.267351,9.803001,0.010461,0.005416,-2.64E-4,0.001065,0.001198,1.33E-4,33.0,8.55,-9.075,-33.375,222.1871,1.5622,0.0528,1.97,26.76552,48.843857,2.3533845,307.0968,NaN,,37.648388,,0 / 18,955,2022-01-10 17:59:32:519
0.009272,-0.254537,9.712168,-0.009036,-0.267351,9.803001,0.010461,0.005416,-2.64E-4,0.001065,0.001198,1.33E-4,33.0,8.55,-9.075,-33.375,222.1871,1.5622,0.0528,1.97,26.76552,48.843857,2.3533845,307.0968,NaN,,37.648388,,0 / 18,960,2022-01-10 17:59:32:524
-0.012263,-0.261715,9.690633,-0.010991,-0.265069,9.803061,0.010461,0.005416,-2.64E-4,0.001065,0.001198,1.33E-4,33.0,8.55,-9.075,-33.375,222.1871,1.5622,0.0528,1.97,26.76552,48.843857,2.3533845,307.0968,NaN,,37.648388,,0 / 18,965,2022-01-10 17:59:32:529
-0.012263,-0.261715,9.690633,-0.010991,-0.265069,9.803061,0.010461,0.005416,-2.64E-4,0.001065,0.001198,1.33E-4,33.0,8.55,-9.075,-33.375,222.1871,1.5622,0.0528,1.97,26.76552,48.843857,2.3533845,307.0968,NaN,,37.648388,,0 / 18,970,2022-01-10 17:59:32:534
-0.012263,-0.261715,9.690633,-0.010991,-0.265069,9.803061,0.010461,0.005416,-2.64E-4,0.001065,0.001198,1.33E-4,33.0,8.55,-9.075,-33.375,222.1871,1.5622,0.0528,1.97,26.76552,48.843857,2.3533845,307.0968,NaN,,37.648388,,0 / 18,974,2022-01-10 17:59:32:538
-0.012263,-0.261715,9.690633,-0.010991,-0.265069,9.803061,0.010461,0.005416,-2.64E-4,0.001065,0.001198,1.33E-4,33.0,8.55,-9.075,-33.375,222.1871,1.5622,0.0528,1.97,26.76552,48.843857,2.3533845,307.0968,NaN,,37.648388,,0 / 18,980,2022-01-10 17:59:32:544
-0.012263,-0.261715,9.690633,-0.010991,-0.265069,9.803061,0.010461,0.005416,-2.64E-4,0.001065,0.001198,1.33E-4,33.0,8.55,-9.075,-33.375,222.1871,1.5622,0.0528,1.97,26.76552,48.843857,2.3533845,307.0968,NaN,,37.648388,,0 / 18,984,2022-01-10 17:59:32:548
-0.012263,-0.261715,9.690633,-0.010991,-0.265069,9.803061,0.010461,0.005416,-2.64E-4,0.001065,0.001198,1.33E-4,33.0,8.55,-9.075,-33.375,222.1871,1.5622,0.0528,1.97,26.76552,48.843857,2.3533845,307.0968,NaN,,37.648388,,0 / 18,990,2022-01-10 17:59:32:554
-0.012263,-0.261715,9.690633,-0.010991,-0.265069,9.803061,0.010461,0.005416,-2.64E-4,0.001065,0.001198,1.33E-4,33.0,8.55,-9.075,-33.375,222.1871,1.5622,0.0528,1.97,26.76552,48.843857,2.3533845,307.0968,NaN,,37.648388,,0 / 18,995,2022-01-10 17:59:32:559
-0.012263,-0.261715,9.690633,-0.010991,-0.265069,9.803061,0.010461,0.005416,-2.64E-4,0.001065,0.001198,1.33E-4,33.0,8.55,-9.075,-33.375,222.1871,1.5622,0.0528,1.97,26.76552,48.843857,2.3533845,307.0968,NaN,,37.648388,,0 / 18,1000,2022-01-10 17:59:32:564
-0.012263,-0.261715,9.690633,-0.010991,-0.265069,9.803061,0.010461,0.005416,-2.64E-4,0.001065,0.001198,1.33E-4,33.0,8.55,-9.075,-33.375,222.1871,1.5622,0.0528,1.97,26.76552,48.843857,2.3533845,307.0968,NaN,,37.648388,,0 / 18,1004,2022-01-10 17:59:32:568
-0.012263,-0.261715,9.690633,-0.010991,-0.265069,9.803061,0.010461,0.005416,-2.64E-4,0.001065,0.001198,1.33E-4,33.0,8.55,-9.075,-33.375,222.1871,1.5622,0.0528,1.97,26.76552,48.843857,2.3533845,307.0968,NaN,,37.648388,,0 / 18,1010,2022-01-10 17:59:32:574
-0.012263,-0.261715,9.690633,-0.010991,-0.265069,9.803061,0.010461,0.005416,-2.64E-4,0.001065,0.001198,1.33E-4,33.0,8.55,-9.075,-33.375,222.1871,1.5622,0.0528,1.97,26.76552,48.843857,2.3533845,307.0968,NaN,,37.648388,,0 / 18,1015,2022-01-10 17:59:32:579
-0.012263,-0.261715,9.690633,-0.010991,-0.265069,9.803061,-0.001426,1.1E-4,-0.007381,0.002796,0.00719,3.99E-4,33.0,8.55,-9.075,-33.375,222.1871,1.5622,0.0528,1.97,26.76552,48.843857,2.3533845,307.0968,NaN,,37.648388,,0 / 18,1019,2022-01-10 17:59:32:583
-0.012263,-0.261715,9.690633,-0.010991,-0.265069,9.803061,-0.001426,1.1E-4,-0.007381,0.002796,0.00719,3.99E-4,33.0,8.25,-9.075,-33.45,218.8425,1.5489,0.0642,1.97,26.76552,48.843857,2.3533845,307.0968,NaN,,37.648388,,0 / 18,1025,2022-01-10 17:59:32:589
-0.012263,-0.261715,9.690633,-0.010991,-0.265069,9.803061,-0.001426,1.1E-4,-0.007381,0.002796,0.00719,3.99E-4,33.0,8.25,-9.075,-33.45,218.8425,1.5489,0.0642,1.97,26.76552,48.843857,2.3533845,307.0968,NaN,,37.648388,,0 / 18,1030,2022-01-10 17:59:32:594
-0.012263,-0.261715,9.690633,-0.010991,-0.265069,9.803061,-0.001426,1.1E-4,-0.007381,0.002796,0.00719,3.99E-4,33.0,8.25,-9.075,-33.45,218.8425,1.5489,0.0642,1.97,26.76552,48.843857,2.3533845,307.0968,NaN,,37.648388,,0 / 18,1035,2022-01-10 17:59:32:599
-0.012263,-0.261715,9.690633,-0.010991,-0.265069,9.803061,-0.001426,1.1E-4,-0.007381,0.002796,0.00719,3.99E-4,33.0,8.25,-9.075,-33.45,218.8425,1.5489,0.0642,1.97,26.76552,48.843857,2.3533845,307.0968,NaN,,37.648388,,0 / 18,1039,2022-01-10 17:59:32:603
-0.012263,-0.261715,9.690633,-0.010991,-0.265069,9.803061,-0.001426,1.1E-4,-0.007381,0.002796,0.00719,3.99E-4,33.0,8.25,-9.075,-33.45,218.8425,1.5489,0.0642,1.97,26.76552,48.843857,2.3533845,307.0968,NaN,,37.648388,,0 / 18,1045,2022-01-10 17:59:32:609
-0.012263,-0.261715,9.690633,-0.010991,-0.265069,9.803061,-0.001426,1.1E-4,-0.007381,0.002796,0.00719,3.99E-4,33.0,8.25,-9.075,-33.45,218.8425,1.5489,0.0642,1.97,26.76552,48.843857,2.3533845,307.0968,NaN,,37.648388,,0 / 18,1049,2022-01-10 17:59:32:613
-0.012263,-0.261715,9.690633,-0.010991,-0.265069,9.803061,-0.001426,1.1E-4,-0.007381,0.002796,0.00719,3.99E-4,33.0,8.25,-9.075,-33.45,218.8425,1.5489,0.0642,1.97,26.76552,48.843857,2.3533845,307.0968,NaN,,37.648388,,0 / 18,1054,2022-01-10 17:59:32:618
-0.012263,-0.261715,9.690633,-0.010991,-0.265069,9.803061,-0.001426,1.1E-4,-0.007381,0.002796,0.00719,3.99E-4,33.0,8.25,-9.075,-33.45,218.8425,1.5489,0.0642,1.97,26.76552,48.843857,2.3533845,307.0968,NaN,,37.648388,,0 / 18,1060,2022-01-10 17:59:32:624
-0.012263,-0.261715,9.690633,-0.010991,-0.265069,9.803061,-0.001426,1.1E-4,-0.007381,0.002796,0.00719,3.99E-4,33.0,8.25,-9.075,-33.45,218.8425,1.5489,0.0642,1.97,26.76552,48.843857,2.3533845,307.0968,NaN,,37.648388,,0 / 18,1065,2022-01-10 17:59:32:629
-0.012263,-0.261715,9.690633,-0.010991,-0.265069,9.803061,-0.001426,1.1E-4,-0.007381,0.002796,0.00719,3.99E-4,33.0,8.25,-9.075,-33.45,218.8425,1.5489,0.0642,1.97,26.76552,48.843857,2.3533845,307.0968,NaN,,37.648388,,0 / 18,1069,2022-01-10 17:59:32:633
-0.018245,-0.250947,9.7349,-0.010991,-0.265069,9.803061,-0.001426,1.1E-4,-0.007381,0.002796,0.00719,3.99E-4,33.0,8.25,-9.075,-33.45,218.8425,1.5489,0.0642,1.97,26.76552,48.843857,2.3533845,307.0968,NaN,,37.648388,,0 / 18,1074,2022-01-10 17:59:32:638
-0.018245,-0.250947,9.7349,-0.010991,-0.265069,9.803061,-0.001426,1.1E-4,-0.007381,0.002796,0.00719,3.99E-4,33.0,8.25,-9.075,-33.45,218.8425,1.5489,0.0642,1.97,26.76552,48.843857,2.3533845,307.0968,NaN,,37.648388,,0 / 18,1080,2022-01-10 17:59:32:644
-0.018245,-0.250947,9.7349,-0.010991,-0.265069,9.803061,-0.001426,1.1E-4,-0.007381,0.002796,0.00719,3.99E-4,33.0,8.25,-9.075,-33.45,218.8425,1.5489,0.0642,1.97,26.76552,48.843857,2.3533845,307.0968,NaN,,37.648388,,0 / 18,1085,2022-01-10 17:59:32:649
-0.018245,-0.250947,9.7349,-0.01728,-0.262086,9.803132,-0.001426,1.1E-4,-0.007381,0.002796,0.00719,3.99E-4,33.0,8.25,-9.075,-33.45,218.8425,1.5489,0.0642,1.97,26.76552,48.843857,2.3533845,307.0968,NaN,,37.648388,,0 / 18,1092,2022-01-10 17:59:32:656
-0.018245,-0.250947,9.7349,-0.01728,-0.262086,9.803132,-0.001426,1.1E-4,-0.007381,0.002796,0.00719,3.99E-4,33.0,8.25,-9.075,-33.45,218.8425,1.5489,0.0642,1.97,26.76552,48.843857,2.3533845,307.0968,NaN,,37.648388,,0 / 18,1095,2022-01-10 17:59:32:659
-0.018245,-0.250947,9.7349,-0.01728,-0.262086,9.803132,-0.001426,1.1E-4,-0.007381,0.002796,0.00719,3.99E-4,33.0,8.25,-9.075,-33.45,218.8425,1.5489,0.0642,1.97,26.76552,48.843857,2.3533845,307.0968,NaN,,37.648388,,0 / 18,1100,2022-01-10 17:59:32:664
-0.018245,-0.250947,9.7349,-0.01728,-0.262086,9.803132,-0.001426,1.1E-4,-0.007381,0.002796,0.00719,3.99E-4,33.0,8.25,-9.075,-33.45,218.8425,1.5489,0.0642,1.97,26.76552,48.843857,2.3533845,307.0968,NaN,,37.648388,,0 / 18,1105,2022-01-10 17:59:32:669
-0.018245,-0.250947,9.7349,-0.01728,-0.262086,9.803132,-0.001426,1.1E-4,-0.007381,0.002796,0.00719,3.99E-4,33.0,8.25,-9.075,-33.45,218.8425,1.5489,0.0642,1.97,26.76552,48.843857,2.3533845,307.0968,NaN,,37.648388,,0 / 18,1110,2022-01-10 17:59:32:674
-0.018245,-0.250947,9.7349,-0.01728,-0.262086,9.803132,-0.001426,1.1E-4,-0.007381,0.002796,0.00719,3.99E-4,33.0,8.25,-9.075,-33.45,218.8425,1.5489,0.0642,1.97,26.76552,48.843857,2.3533845,307.0968,NaN,,37.648388,,0 / 18,1115,2022-01-10 17:59:32:679
-0.018245,-0.250947,9.7349,-0.01728,-0.262086,9.803132,-0.001426,1.1E-4,-0.007381,0.002796,0.00719,3.99E-4,33.0,8.25,-9.075,-33.45,218.8425,1.5489,0.0642,1.97,26.76552,48.843857,2.3533845,307.0968,NaN,,37.648388,,0 / 18,1121,2022-01-10 17:59:32:685
-0.018245,-0.250947,9.7349,-0.01728,-0.262086,9.803132,-0.001426,1.1E-4,-0.007381,0.002796,0.00719,3.99E-4,33.0,8.25,-9.075,-33.45,218.8425,1.5489,0.0642,1.97,26.76552,48.843857,2.3533845,307.0968,NaN,,37.648388,,0 / 18,1126,2022-01-10 17:59:32:690
-0.018245,-0.250947,9.7349,-0.01728,-0.262086,9.803132,-0.001426,1.1E-4,-0.007381,0.002796,0.00719,3.99E-4,33.0,8.25,-9.075,-33.45,218.8425,1.5489,0.0642,1.97,26.76552,48.843857,2.3533845,307.0968,NaN,,37.648388,,0 / 18,1130,2022-01-10 17:59:32:694
-0.018245,-0.250947,9.7349,-0.01728,-0.262086,9.803132,-0.001426,1.1E-4,-0.007381,0.002796,0.00719,3.99E-4,33.0,8.25,-9.075,-33.45,218.8425,1.5489,0.0642,1.97,26.76552,48.843857,2.3533845,307.0968,NaN,,37.648388,,0 / 18,1135,2022-01-10 17:59:32:699
-0.018245,-0.250947,9.7349,-0.01728,-0.262086,9.803132,-0.001426,1.1E-4,-0.007381,0.002796,0.00719,3.99E-4,33.0,8.25,-9.075,-33.45,218.8425,1.5489,0.0642,1.97,26.76552,48.843857,2.3533845,307.0968,NaN,,37.648388,,0 / 18,1140,2022-01-10 17:59:32:704
-0.018245,-0.250947,9.7349,-0.01728,-0.262086,9.803132,-0.001426,1.1E-4,-0.007381,0.002796,0.00719,3.99E-4,33.0,8.25,-9.075,-33.45,218.8425,1.5489,0.0642,1.97,26.76552,48.843857,2.3533845,307.0968,NaN,,37.648388,,0 / 18,1146,2022-01-10 17:59:32:710
-0.018245,-0.250947,9.7349,-0.01728,-0.262086,9.803132,0.008603,-0.001449,-0.011759,0.002796,0.00719,3.99E-4,33.0,8.25,-9.075,-33.45,218.8425,1.5489,0.0642,1.97,26.76552,48.843857,2.3533845,307.0968,NaN,,37.648388,,0 / 18,1150,2022-01-10 17:59:32:714
-0.018245,-0.250947,9.7349,-0.01728,-0.262086,9.803132,0.008603,-0.001449,-0.011759,0.004128,0.002397,1.33E-4,33.0,8.25,-9.075,-33.45,218.8425,1.5489,0.0642,1.97,26.76552,48.843857,2.3533845,307.0968,NaN,,37.648388,,0 / 18,1156,2022-01-10 17:59:32:720
-0.018245,-0.250947,9.7349,-0.01728,-0.262086,9.803132,0.008603,-0.001449,-0.011759,0.004128,0.002397,1.33E-4,33.0,8.25,-9.075,-33.45,218.8425,1.5489,0.0642,1.97,26.76552,48.843857,2.3533845,307.0968,NaN,,37.648388,,0 / 18,1160,2022-01-10 17:59:32:724
-0.018245,-0.250947,9.7349,-0.01728,-0.262086,9.803132,0.008603,-0.001449,-0.011759,0.004128,0.002397,1.33E-4,33.0,8.25,-9.075,-33.45,218.8425,1.5489,0.0642,1.97,26.76552,48.843857,2.3533845,307.0968,NaN,,37.648388,,0 / 18,1165,2022-01-10 17:59:32:729
-0.018245,-0.250947,9.7349,-0.01728,-0.262086,9.803132,0.008603,-0.001449,-0.011759,0.004128,0.002397,1.33E-4,33.0,8.25,-9.075,-33.45,218.8425,1.5489,0.0642,1.97,26.76552,48.843857,2.3533845,307.0968,NaN,,37.648388,,0 / 18,1170,2022-01-10 17:59:32:734
-0.018245,-0.250947,9.7349,-0.01728,-0.262086,9.803132,0.008603,-0.001449,-0.011759,0.004128,0.002397,1.33E-4,33.0,8.25,-9.075,-33.45,218.8425,1.5489,0.0642,1.97,26.76552,48.843857,2.3533845,307.0968,NaN,,37.648388,,0 / 18,1175,2022-01-10 17:59:32:739
-0.003888,-0.260519,9.697811,-0.01728,-0.262086,9.803132,0.008603,-0.001449,-0.011759,0.004128,0.002397,1.33E-4,33.0,8.25,-9.075,-33.45,218.8425,1.5489,0.0642,1.97,26.76552,48.843857,2.3533845,307.0968,NaN,,37.648388,,0 / 18,1181,2022-01-10 17:59:32:745
-0.003888,-0.260519,9.697811,-0.01728,-0.262086,9.803132,0.008603,-0.001449,-0.011759,0.004128,0.002397,1.33E-4,33.0,8.25,-9.075,-33.45,218.8425,1.5489,0.0642,1.97,26.76552,48.843857,2.3533845,307.0968,NaN,,37.648388,,0 / 18,1185,2022-01-10 17:59:32:749
-0.003888,-0.260519,9.697811,-0.01728,-0.262086,9.803132,0.008603,-0.001449,-0.011759,0.004128,0.002397,1.33E-4,33.0,8.25,-9.075,-33.45,218.8425,1.5489,0.0642,1.97,26.76552,48.843857,2.3533845,307.0968,NaN,,37.648388,,0 / 18,1190,2022-01-10 17:59:32:754
-0.003888,-0.260519,9.697811,-0.01728,-0.262086,9.803132,0.008603,-0.001449,-0.011759,0.004128,0.002397,1.33E-4,33.0,8.25,-9.075,-33.45,218.8425,1.5489,0.0642,1.97,26.76552,48.843857,2.3533845,307.0968,NaN,,37.648388,,0 / 18,1195,2022-01-10 17:59:32:759
-0.003888,-0.260519,9.697811,-0.022742,-0.257924,9.803231,0.008603,-0.001449,-0.011759,0.004128,0.002397,1.33E-4,33.0,8.25,-9.075,-33.45,218.8425,1.5489,0.0642,1.97,26.76552,48.843857,2.3533845,307.0968,NaN,,37.648388,,0 / 18,1199,2022-01-10 17:59:32:763
-0.003888,-0.260519,9.697811,-0.022742,-0.257924,9.803231,0.008603,-0.001449,-0.011759,0.004128,0.002397,1.33E-4,33.0,8.25,-9.075,-33.45,218.8425,1.5489,0.0642,1.97,26.76552,48.843857,2.3533845,307.0968,NaN,,37.648388,,0 / 18,1204,2022-01-10 17:59:32:768
-0.003888,-0.260519,9.697811,-0.022742,-0.257924,9.803231,0.008603,-0.001449,-0.011759,0.004128,0.002397,1.33E-4,33.0,8.25,-9.075,-33.45,218.8425,1.5489,0.0642,1.97,26.76552,48.843857,2.3533845,307.0968,NaN,,37.648388,,0 / 18,1209,2022-01-10 17:59:32:773
-0.003888,-0.260519,9.697811,-0.022742,-0.257924,9.803231,0.008603,-0.001449,-0.011759,0.004128,0.002397,1.33E-4,33.0,8.25,-9.075,-33.45,218.8425,1.5489,0.0642,1.97,26.76552,48.843857,2.3533845,307.0968,NaN,,37.648388,,0 / 18,1214,2022-01-10 17:59:32:778
-0.003888,-0.260519,9.697811,-0.022742,-0.257924,9.803231,0.008603,-0.001449,-0.011759,0.004128,0.002397,1.33E-4,33.0,8.25,-9.075,-33.45,218.8425,1.5489,0.0642,1.97,26.76552,48.843857,2.3533845,307.0968,NaN,,37.648388,,0 / 18,1219,2022-01-10 17:59:32:783
-0.003888,-0.260519,9.697811,-0.022742,-0.257924,9.803231,0.008603,-0.001449,-0.011759,0.004128,0.002397,1.33E-4,33.0,8.1,-9.075,-33.3,218.7701,1.5071,0.1329,1.97,26.76552,48.843857,2.3533845,307.0968,NaN,,37.648388,,0 / 18,1227,2022-01-10 17:59:32:791
-0.003888,-0.260519,9.697811,-0.022742,-0.257924,9.803231,0.008603,-0.001449,-0.011759,0.004128,0.002397,1.33E-4,33.0,8.1,-9.075,-33.3,218.7701,1.5071,0.1329,1.97,26.76552,48.843857,2.3533845,307.0968,NaN,,37.648388,,0 / 18,1231,2022-01-10 17:59:32:795
-0.003888,-0.260519,9.697811,-0.022742,-0.257924,9.803231,0.008603,-0.001449,-0.011759,0.004128,0.002397,1.33E-4,33.0,8.1,-9.075,-33.3,218.7701,1.5071,0.1329,1.97,26.76552,48.843857,2.3533845,307.0968,NaN,,37.648388,,0 / 18,1235,2022-01-10 17:59:32:799
-0.003888,-0.260519,9.697811,-0.022742,-0.257924,9.803231,0.008603,-0.001449,-0.011759,0.004128,0.002397,1.33E-4,33.0,8.1,-9.075,-33.3,218.7701,1.5071,0.1329,1.97,24.51854,48.843857,2.3533845,307.0968,NaN,,37.648388,,0 / 18,1239,2022-01-10 17:59:32:803
-0.003888,-0.260519,9.697811,-0.022742,-0.257924,9.803231,0.008603,-0.001449,-0.011759,0.004128,0.002397,1.33E-4,33.0,8.1,-9.075,-33.3,218.7701,1.5071,0.1329,1.97,24.51854,48.843857,2.3533845,307.0968,NaN,,37.648388,,0 / 18,1245,2022-01-10 17:59:32:809
-0.003888,-0.260519,9.697811,-0.022742,-0.257924,9.803231,0.008603,-0.001449,-0.011759,0.004128,0.002397,1.33E-4,33.0,8.1,-9.075,-33.3,218.7701,1.5071,0.1329,1.97,24.51854,48.843857,2.3533845,307.0968,NaN,,37.648388,,0 / 18,1250,2022-01-10 17:59:32:814
-0.003888,-0.260519,9.697811,-0.022742,-0.257924,9.803231,0.008603,-0.001449,-0.011759,0.004128,0.002397,1.33E-4,33.0,8.1,-9.075,-33.3,218.7701,1.5071,0.1329,1.97,24.51854,48.843857,2.3533845,307.0968,NaN,,37.648388,,0 / 18,1254,2022-01-10 17:59:32:818
-0.003888,-0.260519,9.697811,-0.022742,-0.257924,9.803231,0.008603,-0.001449,-0.011759,0.004128,0.002397,1.33E-4,33.0,8.1,-9.075,-33.3,218.7701,1.5071,0.1329,1.97,24.51854,48.843857,2.3533845,307.0968,NaN,,37.648388,,0 / 18,1260,2022-01-10 17:59:32:824
-0.01346,-0.241376,9.68465,-0.022742,-0.257924,9.803231,0.009495,0.004019,-2.63E-4,0.004128,0.002397,1.33E-4,33.0,8.1,-9.075,-33.3,218.7701,1.5071,0.1329,1.97,24.51854,48.843857,2.3533845,307.0968,NaN,,37.648388,,0 / 18,1264,2022-01-10 17:59:32:828
-0.01346,-0.241376,9.68465,-0.022742,-0.257924,9.803231,0.009495,0.004019,-2.63E-4,0.004128,0.002397,1.33E-4,33.0,8.1,-9.075,-33.3,218.7701,1.5071,0.1329,1.97,24.51854,48.843857,2.3533845,307.0968,NaN,,37.648388,,0 / 18,1270,2022-01-10 17:59:32:834
-0.01346,-0.241376,9.68465,-0.022742,-0.257924,9.803231,0.009495,0.004019,-2.63E-4,0.002663,9.32E-4,-3.99E-4,33.0,8.1,-9.075,-33.3,218.7701,1.5071,0.1329,1.97,24.51854,48.843857,2.3533845,307.0968,NaN,,37.648388,,0 / 18,1277,2022-01-10 17:59:32:841
-0.01346,-0.241376,9.68465,-0.022742,-0.257924,9.803231,0.009495,0.004019,-2.63E-4,0.002663,9.32E-4,-3.99E-4,33.0,8.1,-9.075,-33.3,218.7701,1.5071,0.1329,1.97,24.51854,48.843857,2.3533845,307.0968,NaN,,37.648388,,0 / 18,1280,2022-01-10 17:59:32:844
-0.01346,-0.241376,9.68465,-0.022742,-0.257924,9.803231,0.009495,0.004019,-2.63E-4,0.002663,9.32E-4,-3.99E-4,33.0,8.1,-9.075,-33.3,218.7701,1.5071,0.1329,1.97,24.51854,48.843857,2.3533845,307.0968,NaN,,37.648388,,0 / 18,1285,2022-01-10 17:59:32:849
-0.01346,-0.241376,9.68465,-0.022742,-0.257924,9.803231,0.009495,0.004019,-2.63E-4,0.002663,9.32E-4,-3.99E-4,33.0,8.1,-9.075,-33.3,218.7701,1.5071,0.1329,1.97,24.51854,48.843857,2.3533845,307.0968,NaN,,37.648388,,0 / 18,1289,2022-01-10 17:59:32:853
-0.01346,-0.241376,9.68465,-0.022742,-0.257924,9.803231,0.009495,0.004019,-2.63E-4,0.002663,9.32E-4,-3.99E-4,33.0,8.1,-9.075,-33.3,218.7701,1.5071,0.1329,1.97,24.51854,48.843857,2.3533845,307.0968,NaN,,37.648388,,0 / 18,1295,2022-01-10 17:59:32:859
-0.01346,-0.241376,9.68465,-0.022742,-0.257924,9.803231,0.009495,0.004019,-2.63E-4,0.002663,9.32E-4,-3.99E-4,33.0,8.1,-9.075,-33.3,218.7701,1.5071,0.1329,1.97,24.51854,48.843857,2.3533845,307.0968,NaN,,37.648388,,0 / 18,1299,2022-01-10 17:59:32:863
-0.01346,-0.241376,9.68465,-0.022742,-0.257924,9.803231,0.009495,0.004019,-2.63E-4,0.002663,9.32E-4,-3.99E-4,33.0,8.1,-9.075,-33.3,218.7701,1.5071,0.1329,1.97,24.51854,48.843857,2.3533845,307.0968,NaN,,37.648388,,0 / 18,1305,2022-01-10 17:59:32:869
-0.01346,-0.241376,9.68465,-0.022742,-0.257924,9.803231,0.009495,0.004019,-2.63E-4,0.002663,9.32E-4,-3.99E-4,33.0,8.1,-9.075,-33.3,218.7701,1.5071,0.1329,1.97,24.51854,48.843857,2.3533845,307.0968,NaN,,37.648388,,0 / 18,1310,2022-01-10 17:59:32:874
-0.01346,-0.241376,9.68465,-0.022742,-0.257924,9.803231,0.009495,0.004019,-2.63E-4,0.002663,9.32E-4,-3.99E-4,33.0,8.1,-9.075,-33.3,218.7701,1.5071,0.1329,1.97,24.51854,48.843857,2.3533845,307.0968,NaN,,37.648388,,0 / 18,1315,2022-01-10 17:59:32:879
-0.01346,-0.241376,9.68465,-0.022742,-0.257924,9.803231,0.009495,0.004019,-2.63E-4,0.002663,9.32E-4,-3.99E-4,33.0,8.1,-9.075,-33.3,218.7701,1.5071,0.1329,1.97,24.51854,48.843857,2.3533845,307.0968,NaN,,37.648388,,0 / 18,1319,2022-01-10 17:59:32:883
-0.01346,-0.241376,9.68465,-0.027894,-0.253335,9.803338,0.009495,0.004019,-2.63E-4,0.002663,9.32E-4,-3.99E-4,33.0,8.1,-9.075,-33.3,218.7701,1.5071,0.1329,1.97,24.51854,48.843857,2.3533845,307.0968,NaN,,37.648388,,0 / 18,1325,2022-01-10 17:59:32:889
-0.01346,-0.241376,9.68465,-0.027894,-0.253335,9.803338,0.009495,0.004019,-2.63E-4,0.002663,9.32E-4,-3.99E-4,33.0,8.1,-9.075,-33.3,218.7701,1.5071,0.1329,1.97,24.51854,48.843857,2.3533845,307.0968,NaN,,37.648388,,0 / 18,1329,2022-01-10 17:59:32:893
-0.01346,-0.241376,9.68465,-0.027894,-0.253335,9.803338,0.009495,0.004019,-2.63E-4,0.002663,9.32E-4,-3.99E-4,33.0,8.1,-9.075,-33.3,218.7701,1.5071,0.1329,1.97,24.51854,48.843857,2.3533845,307.0968,NaN,,37.648388,,0 / 18,1335,2022-01-10 17:59:32:899
-0.01346,-0.241376,9.68465,-0.027894,-0.253335,9.803338,0.009495,0.004019,-2.63E-4,0.002663,9.32E-4,-3.99E-4,33.0,8.1,-9.075,-33.3,218.7701,1.5071,0.1329,1.97,24.51854,48.843857,2.3533845,307.0968,NaN,,37.648388,,0 / 18,1340,2022-01-10 17:59:32:904
-0.01346,-0.241376,9.68465,-0.027894,-0.253335,9.803338,0.009495,0.004019,-2.63E-4,0.002663,9.32E-4,-3.99E-4,33.0,8.1,-9.075,-33.3,218.7701,1.5071,0.1329,1.97,24.51854,48.843857,2.3533845,307.0968,NaN,,37.648388,,0 / 18,1345,2022-01-10 17:59:32:909
-0.01346,-0.241376,9.68465,-0.027894,-0.253335,9.803338,0.009495,0.004019,-2.63E-4,0.002663,9.32E-4,-3.99E-4,33.0,8.1,-9.075,-33.3,218.7701,1.5071,0.1329,1.97,24.51854,48.843857,2.3533845,307.0968,NaN,,37.648388,,0 / 18,1349,2022-01-10 17:59:32:913
-0.050548,-0.248554,9.7349,-0.027894,-0.253335,9.803338,0.009495,0.004019,-2.63E-4,0.002663,9.32E-4,-3.99E-4,33.0,8.1,-9.075,-33.3,218.7701,1.5071,0.1329,1.97,24.51854,48.843857,2.3533845,307.0968,NaN,,37.648388,,0 / 18,1355,2022-01-10 17:59:32:919
-0.050548,-0.248554,9.7349,-0.027894,-0.253335,9.803338,0.009495,0.004019,-2.63E-4,0.002663,9.32E-4,-3.99E-4,33.0,8.1,-9.075,-33.3,218.7701,1.5071,0.1329,1.97,24.51854,48.843857,2.3533845,307.0968,NaN,,37.648388,,0 / 18,1360,2022-01-10 17:59:32:924
-0.050548,-0.248554,9.7349,-0.027894,-0.253335,9.803338,0.009495,0.004019,-2.63E-4,0.002663,9.32E-4,-3.99E-4,33.0,8.1,-9.075,-33.3,218.7701,1.5071,0.1329,1.97,24.51854,48.843857,2.3533845,307.0968,NaN,,37.648388,,0 / 18,1365,2022-01-10 17:59:32:929
-0.050548,-0.248554,9.7349,-0.027894,-0.253335,9.803338,0.009495,0.004019,-2.63E-4,0.002663,9.32E-4,-3.99E-4,33.0,8.1,-9.075,-33.3,218.7701,1.5071,0.1329,1.97,24.51854,48.843857,2.3533845,307.0968,NaN,,37.648388,,0 / 18,1369,2022-01-10 17:59:32:933
-0.050548,-0.248554,9.7349,-0.027894,-0.253335,9.803338,0.009495,0.004019,-2.63E-4,0.002663,9.32E-4,-3.99E-4,33.0,8.1,-9.075,-33.3,218.7701,1.5071,0.1329,1.97,24.51854,48.843857,2.3533845,307.0968,NaN,,37.648388,,0 / 18,1375,2022-01-10 17:59:32:939
-0.050548,-0.248554,9.7349,-0.027894,-0.253335,9.803338,0.009495,0.004019,-2.63E-4,0.002663,9.32E-4,-3.99E-4,33.0,8.1,-9.075,-33.3,218.7701,1.5071,0.1329,1.97,24.51854,48.843857,2.3533845,307.0968,NaN,,37.648388,,0 / 18,1379,2022-01-10 17:59:32:943
-0.050548,-0.248554,9.7349,-0.027894,-0.253335,9.803338,0.009495,0.004019,-2.63E-4,0.002663,9.32E-4,-3.99E-4,33.0,8.1,-9.075,-33.3,218.7701,1.5071,0.1329,1.97,24.51854,48.843857,2.3533845,307.0968,NaN,,37.648388,,0 / 18,1385,2022-01-10 17:59:32:949
-0.050548,-0.248554,9.7349,-0.027894,-0.253335,9.803338,0.009495,0.004019,-2.63E-4,0.002663,9.32E-4,-3.99E-4,33.0,8.1,-9.075,-33.3,218.7701,1.5071,0.1329,1.97,24.51854,48.843857,2.3533845,307.0968,NaN,,37.648388,,0 / 18,1390,2022-01-10 17:59:32:954
-0.050548,-0.248554,9.7349,-0.027894,-0.253335,9.803338,0.012622,-9.44E-4,-0.016453,0.002663,9.32E-4,-3.99E-4,33.0,8.1,-9.075,-33.3,218.7701,1.5071,0.1329,1.97,24.51854,48.843857,2.3533845,307.0968,NaN,,37.648388,,0 / 18,1395,2022-01-10 17:59:32:959
-0.050548,-0.248554,9.7349,-0.027894,-0.253335,9.803338,0.012622,-9.44E-4,-0.016453,0.002663,9.32E-4,-3.99E-4,33.0,8.1,-9.075,-33.3,218.7701,1.5071,0.1329,1.97,24.51854,48.843857,2.3533845,307.0968,NaN,,37.648388,,0 / 18,1399,2022-01-10 17:59:32:963
-0.050548,-0.248554,9.7349,-0.027894,-0.253335,9.803338,0.012622,-9.44E-4,-0.016453,0.002663,9.32E-4,-3.99E-4,33.0,8.1,-9.075,-33.3,218.7701,1.5071,0.1329,1.97,24.51854,48.843857,2.3533845,307.0968,NaN,,37.648388,,0 / 18,1405,2022-01-10 17:59:32:969
-0.050548,-0.248554,9.7349,-0.027894,-0.253335,9.803338,0.012622,-9.44E-4,-0.016453,0.002663,9.32E-4,-3.99E-4,33.0,8.1,-9.075,-33.3,218.7701,1.5071,0.1329,1.97,24.51854,48.843857,2.3533845,307.0968,NaN,,37.648388,,0 / 18,1409,2022-01-10 17:59:32:973
-0.050548,-0.248554,9.7349,-0.027894,-0.253335,9.803338,0.012622,-9.44E-4,-0.016453,0.003063,0.008522,7.99E-4,33.0,8.1,-9.075,-33.3,218.7701,1.5071,0.1329,1.97,24.51854,48.843857,2.3533845,307.0968,NaN,,37.648388,,0 / 18,1415,2022-01-10 17:59:32:979
-0.050548,-0.248554,9.7349,-0.027894,-0.253335,9.803338,0.012622,-9.44E-4,-0.016453,0.003063,0.008522,7.99E-4,33.0,8.1,-9.075,-33.3,218.7701,1.5071,0.1329,1.97,24.51854,48.843857,2.3533845,307.0968,NaN,,37.648388,,0 / 18,1419,2022-01-10 17:59:32:983
-0.050548,-0.248554,9.7349,-0.027894,-0.253335,9.803338,0.012622,-9.44E-4,-0.016453,0.003063,0.008522,7.99E-4,33.0,8.025,-8.7,-32.925,218.752,1.4803,0.163,1.97,24.51854,48.843857,2.3533845,307.0968,NaN,,37.648388,,0 / 18,1424,2022-01-10 17:59:32:988
-0.050548,-0.248554,9.7349,-0.027894,-0.253335,9.803338,0.012622,-9.44E-4,-0.016453,0.003063,0.008522,7.99E-4,33.0,8.025,-8.7,-32.925,218.752,1.4803,0.163,1.97,24.51854,48.843857,2.3533845,307.0968,NaN,,37.648388,,0 / 18,1430,2022-01-10 17:59:32:994
-0.050548,-0.248554,9.7349,-0.027894,-0.253335,9.803338,0.012622,-9.44E-4,-0.016453,0.003063,0.008522,7.99E-4,33.0,8.025,-8.7,-32.925,218.752,1.4803,0.163,1.97,24.51854,48.843857,2.3533845,307.0968,NaN,,37.648388,,0 / 18,1435,2022-01-10 17:59:32:999
-0.050548,-0.248554,9.7349,-0.027894,-0.253335,9.803338,0.012622,-9.44E-4,-0.016453,0.003063,0.008522,7.99E-4,33.0,8.025,-8.7,-32.925,218.752,1.4803,0.163,1.97,24.51854,48.843857,2.3533845,307.0968,NaN,,37.648388,,0 / 18,1440,2022-01-10 17:59:33:004
-0.064905,-0.242572,9.829416,-0.031432,-0.248887,9.803441,0.012622,-9.44E-4,-0.016453,0.003063,0.008522,7.99E-4,33.0,8.025,-8.7,-32.925,218.752,1.4803,0.163,1.97,24.51854,48.843857,2.3533845,307.0968,NaN,,37.648388,,0 / 18,1445,2022-01-10 17:59:33:009
-0.064905,-0.242572,9.829416,-0.031432,-0.248887,9.803441,0.012622,-9.44E-4,-0.016453,0.003063,0.008522,7.99E-4,33.0,8.025,-8.7,-32.925,218.752,1.4803,0.163,1.97,24.51854,48.843857,2.3533845,307.0968,NaN,,37.648388,,0 / 18,1449,2022-01-10 17:59:33:013
-0.064905,-0.242572,9.829416,-0.031432,-0.248887,9.803441,0.012622,-9.44E-4,-0.016453,0.003063,0.008522,7.99E-4,33.0,8.025,-8.7,-32.925,218.752,1.4803,0.163,1.97,24.51854,48.843857,2.3533845,307.0968,NaN,,37.648388,,0 / 18,1455,2022-01-10 17:59:33:019
-0.064905,-0.242572,9.829416,-0.031432,-0.248887,9.803441,0.012622,-9.44E-4,-0.016453,0.003063,0.008522,7.99E-4,33.0,8.025,-8.7,-32.925,218.752,1.4803,0.163,1.97,24.51854,48.843857,2.3533845,307.0968,NaN,,37.648388,,0 / 18,1460,2022-01-10 17:59:33:024
-0.064905,-0.242572,9.829416,-0.031432,-0.248887,9.803441,0.012622,-9.44E-4,-0.016453,0.003063,0.008522,7.99E-4,33.0,8.025,-8.7,-32.925,218.752,1.4803,0.163,1.97,24.51854,48.843857,2.3533845,307.0968,NaN,,37.648388,,0 / 18,1465,2022-01-10 17:59:33:029
-0.064905,-0.242572,9.829416,-0.031432,-0.248887,9.803441,0.012622,-9.44E-4,-0.016453,0.003063,0.008522,7.99E-4,33.0,8.025,-8.7,-32.925,218.752,1.4803,0.163,1.97,24.51854,48.843857,2.3533845,307.0968,NaN,,37.648388,,0 / 18,1469,2022-01-10 17:59:33:033
-0.064905,-0.242572,9.829416,-0.031432,-0.248887,9.803441,0.012622,-9.44E-4,-0.016453,0.003063,0.008522,7.99E-4,33.0,8.025,-8.7,-32.925,218.752,1.4803,0.163,1.97,24.51854,48.843857,2.3533845,307.0968,NaN,,37.648388,,0 / 18,1475,2022-01-10 17:59:33:039
-0.064905,-0.242572,9.829416,-0.031432,-0.248887,9.803441,0.012622,-9.44E-4,-0.016453,0.003063,0.008522,7.99E-4,33.0,8.025,-8.7,-32.925,218.752,1.4803,0.163,1.97,24.51854,48.843857,2.3533845,307.0968,NaN,,37.648388,,0 / 18,1479,2022-01-10 17:59:33:043
-0.064905,-0.242572,9.829416,-0.031432,-0.248887,9.803441,0.012622,-9.44E-4,-0.016453,0.003063,0.008522,7.99E-4,33.0,8.025,-8.7,-32.925,218.752,1.4803,0.163,1.97,24.51854,48.843857,2.3533845,307.0968,NaN,,37.648388,,0 / 18,1485,2022-01-10 17:59:33:049
-0.064905,-0.242572,9.829416,-0.031432,-0.248887,9.803441,0.012622,-9.44E-4,-0.016453,0.003063,0.008522,7.99E-4,33.0,8.025,-8.7,-32.925,218.752,1.4803,0.163,1.97,24.51854,48.843857,2.3533845,307.0968,NaN,,37.648388,,0 / 18,1490,2022-01-10 17:59:33:054
-0.064905,-0.242572,9.829416,-0.031432,-0.248887,9.803441,0.012622,-9.44E-4,-0.016453,0.003063,0.008522,7.99E-4,33.0,8.025,-8.7,-32.925,218.752,1.4803,0.163,1.97,24.51854,48.843857,2.3533845,307.0968,NaN,,37.648388,,0 / 18,1495,2022-01-10 17:59:33:059
-0.064905,-0.242572,9.829416,-0.031432,-0.248887,9.803441,0.012622,-9.44E-4,-0.016453,0.003063,0.008522,7.99E-4,33.0,8.025,-8.7,-32.925,218.752,1.4803,0.163,1.97,24.51854,48.843857,2.3533845,307.0968,NaN,,37.648388,,0 / 18,1499,2022-01-10 17:59:33:063
-0.064905,-0.242572,9.829416,-0.031432,-0.248887,9.803441,-0.007121,-0.002813,-0.004045,0.003063,0.008522,7.99E-4,33.0,8.025,-8.7,-32.925,218.752,1.4803,0.163,1.97,24.51854,48.843857,2.3533845,307.0968,NaN,,37.648388,,0 / 18,1505,2022-01-10 17:59:33:069
-0.064905,-0.242572,9.829416,-0.031432,-0.248887,9.803441,-0.007121,-0.002813,-0.004045,0.003063,0.008522,7.99E-4,33.0,8.025,-8.7,-32.925,218.752,1.4803,0.163,1.97,24.51854,48.843857,2.3533845,307.0968,NaN,,37.648388,,0 / 18,1511,2022-01-10 17:59:33:075
-0.064905,-0.242572,9.829416,-0.031432,-0.248887,9.803441,-0.007121,-0.002813,-0.004045,0.003063,0.008522,7.99E-4,33.0,8.025,-8.7,-32.925,218.752,1.4803,0.163,1.97,24.51854,48.843857,2.3533845,307.0968,NaN,,37.648388,,0 / 18,1515,2022-01-10 17:59:33:079
-0.064905,-0.242572,9.829416,-0.031432,-0.248887,9.803441,-0.007121,-0.002813,-0.004045,0.003063,0.008522,7.99E-4,33.0,8.025,-8.7,-32.925,218.752,1.4803,0.163,1.97,24.51854,48.843857,2.3533845,307.0968,NaN,,37.648388,,0 / 18,1520,2022-01-10 17:59:33:084
-0.064905,-0.242572,9.829416,-0.031432,-0.248887,9.803441,-0.007121,-0.002813,-0.004045,0.003063,0.008522,7.99E-4,33.0,8.025,-8.7,-32.925,218.752,1.4803,0.163,1.97,24.51854,48.843857,2.3533845,307.0968,NaN,,37.648388,,0 / 18,1524,2022-01-10 17:59:33:088
-0.064905,-0.242572,9.829416,-0.031432,-0.248887,9.803441,-0.007121,-0.002813,-0.004045,0.003063,0.008522,7.99E-4,33.0,8.025,-8.7,-32.925,218.752,1.4803,0.163,1.97,24.51854,48.843857,2.3533845,307.0968,NaN,,37.648388,,0 / 18,1530,2022-01-10 17:59:33:094
-0.064905,-0.242572,9.829416,-0.031432,-0.248887,9.803441,-0.007121,-0.002813,-0.004045,0.003063,0.008522,7.99E-4,33.0,8.025,-8.7,-32.925,218.752,1.4803,0.163,1.97,24.51854,48.843857,2.3533845,307.0968,NaN,,37.648388,,0 / 18,1535,2022-01-10 17:59:33:099
-0.064905,-0.242572,9.829416,-0.031432,-0.248887,9.803441,-0.007121,-0.002813,-0.004045,0.003063,0.008522,7.99E-4,33.0,8.025,-8.7,-32.925,218.752,1.4803,0.163,1.97,24.51854,48.843857,2.3533845,307.0968,NaN,,37.648388,,0 / 18,1540,2022-01-10 17:59:33:104
-0.039781,-0.23659,9.687043,-0.031432,-0.248887,9.803441,-0.007121,-0.002813,-0.004045,7.99E-4,-0.004261,-5.33E-4,33.0,8.025,-8.7,-32.925,218.752,1.4803,0.163,1.97,24.51854,48.843857,2.3533845,307.0968,NaN,,37.648388,,0 / 18,1545,2022-01-10 17:59:33:109
-0.039781,-0.23659,9.687043,-0.031432,-0.248887,9.803441,-0.007121,-0.002813,-0.004045,7.99E-4,-0.004261,-5.33E-4,33.0,8.025,-8.7,-32.925,218.752,1.4803,0.163,1.97,24.51854,48.843857,2.3533845,307.0968,NaN,,37.648388,,0 / 18,1549,2022-01-10 17:59:33:113
-0.039781,-0.23659,9.687043,-0.031432,-0.248887,9.803441,-0.007121,-0.002813,-0.004045,7.99E-4,-0.004261,-5.33E-4,33.0,8.025,-8.7,-32.925,218.752,1.4803,0.163,1.97,24.51854,48.843857,2.3533845,307.0968,NaN,,37.648388,,0 / 18,1555,2022-01-10 17:59:33:119
-0.039781,-0.23659,9.687043,-0.031432,-0.248887,9.803441,-0.007121,-0.002813,-0.004045,7.99E-4,-0.004261,-5.33E-4,33.0,8.025,-8.7,-32.925,218.752,1.4803,0.163,1.97,27.25119,48.843857,2.3533845,307.0968,NaN,,37.648388,,0 / 18,1560,2022-01-10 17:59:33:124
-0.039781,-0.23659,9.687043,-0.031432,-0.248887,9.803441,-0.007121,-0.002813,-0.004045,7.99E-4,-0.004261,-5.33E-4,33.0,8.025,-8.7,-32.925,218.752,1.4803,0.163,1.97,27.25119,48.843857,2.3533845,307.0968,NaN,,37.648388,,0 / 18,1565,2022-01-10 17:59:33:129
-0.039781,-0.23659,9.687043,-0.035335,-0.246828,9.803479,-0.007121,-0.002813,-0.004045,7.99E-4,-0.004261,-5.33E-4,33.0,8.025,-8.7,-32.925,218.752,1.4803,0.163,1.97,27.25119,48.843857,2.3533845,307.0968,NaN,,37.648388,,0 / 18,1571,2022-01-10 17:59:33:135
-0.039781,-0.23659,9.687043,-0.035335,-0.246828,9.803479,-0.007121,-0.002813,-0.004045,7.99E-4,-0.004261,-5.33E-4,33.0,8.025,-8.7,-32.925,218.752,1.4803,0.163,1.97,27.25119,48.843857,2.3533845,307.0968,NaN,,37.648388,,0 / 18,1574,2022-01-10 17:59:33:138
-0.039781,-0.23659,9.687043,-0.035335,-0.246828,9.803479,-0.007121,-0.002813,-0.004045,7.99E-4,-0.004261,-5.33E-4,33.0,8.025,-8.7,-32.925,218.752,1.4803,0.163,1.97,27.25119,48.843857,2.3533845,307.0968,NaN,,37.648388,,0 / 18,1580,2022-01-10 17:59:33:144
-0.039781,-0.23659,9.687043,-0.035335,-0.246828,9.803479,-0.007121,-0.002813,-0.004045,7.99E-4,-0.004261,-5.33E-4,33.0,8.025,-8.7,-32.925,218.752,1.4803,0.163,1.97,27.25119,48.843857,2.3533845,307.0968,NaN,,37.648388,,0 / 18,1585,2022-01-10 17:59:33:149
-0.039781,-0.23659,9.687043,-0.035335,-0.246828,9.803479,-0.007121,-0.002813,-0.004045,7.99E-4,-0.004261,-5.33E-4,33.0,8.025,-8.7,-32.925,218.752,1.4803,0.163,1.97,27.25119,48.843857,2.3533845,307.0968,NaN,,37.648388,,0 / 18,1589,2022-01-10 17:59:33:153
-0.039781,-0.23659,9.687043,-0.035335,-0.246828,9.803479,-0.007121,-0.002813,-0.004045,7.99E-4,-0.004261,-5.33E-4,33.0,8.025,-8.7,-32.925,218.752,1.4803,0.163,1.97,27.25119,48.843857,2.3533845,307.0968,NaN,,37.648388,,0 / 18,1595,2022-01-10 17:59:33:159
-0.039781,-0.23659,9.687043,-0.035335,-0.246828,9.803479,-0.007121,-0.002813,-0.004045,7.99E-4,-0.004261,-5.33E-4,33.0,8.025,-8.7,-32.925,218.752,1.4803,0.163,1.97,27.25119,48.843857,2.3533845,307.0968,NaN,,37.648388,,0 / 18,1599,2022-01-10 17:59:33:163
-0.039781,-0.23659,9.687043,-0.035335,-0.246828,9.803479,-0.007121,-0.002813,-0.004045,7.99E-4,-0.004261,-5.33E-4,33.0,8.025,-8.7,-32.925,218.752,1.4803,0.163,1.97,27.25119,48.843857,2.3533845,307.0968,NaN,,37.648388,,0 / 18,1605,2022-01-10 17:59:33:169
-0.039781,-0.23659,9.687043,-0.035335,-0.246828,9.803479,-0.007121,-0.002813,-0.004045,7.99E-4,-0.004261,-5.33E-4,33.0,8.025,-8.7,-32.925,218.752,1.4803,0.163,1.97,27.25119,48.843857,2.3533845,307.0968,NaN,,37.648388,,0 / 18,1609,2022-01-10 17:59:33:173
-0.039781,-0.23659,9.687043,-0.035335,-0.246828,9.803479,-0.007121,-0.002813,-0.004045,7.99E-4,-0.004261,-5.33E-4,33.0,8.025,-8.7,-32.925,218.752,1.4803,0.163,1.97,27.25119,48.843857,2.3533845,307.0968,NaN,,37.648388,,0 / 18,1615,2022-01-10 17:59:33:179
-0.039781,-0.23659,9.687043,-0.035335,-0.246828,9.803479,-0.007121,-0.002813,-0.004045,7.99E-4,-0.004261,-5.33E-4,33.0,8.025,-8.7,-32.925,218.752,1.4803,0.163,1.97,27.25119,48.843857,2.3533845,307.0968,NaN,,37.648388,,0 / 18,1619,2022-01-10 17:59:33:183
-0.039781,-0.23659,9.687043,-0.035335,-0.246828,9.803479,-0.007121,-0.002813,-0.004045,7.99E-4,-0.004261,-5.33E-4,33.0,7.95,-9.0,-32.775,218.7246,1.4423,0.2065,1.97,27.25119,48.843857,2.3533845,307.0968,NaN,,37.648388,,0 / 18,1625,2022-01-10 17:59:33:189
-0.039781,-0.23659,9.687043,-0.035335,-0.246828,9.803479,-0.007121,-0.002813,-0.004045,7.99E-4,-0.004261,-5.33E-4,33.0,7.95,-9.0,-32.775,218.7246,1.4423,0.2065,1.97,27.25119,48.843857,2.3533845,307.0968,NaN,,37.648388,,0 / 18,1630,2022-01-10 17:59:33:194
-0.039781,-0.23659,9.687043,-0.035335,-0.246828,9.803479,-0.007121,-0.002813,-0.004045,7.99E-4,-0.004261,-5.33E-4,33.0,7.95,-9.0,-32.775,218.7246,1.4423,0.2065,1.97,27.25119,48.843857,2.3533845,307.0968,NaN,,37.648388,,0 / 18,1635,2022-01-10 17:59:33:199
-0.042173,-0.249751,9.665508,-0.035335,-0.246828,9.803479,-0.007167,-3.24E-4,0.002635,7.99E-4,-0.004261,-5.33E-4,33.0,7.95,-9.0,-32.775,218.7246,1.4423,0.2065,1.97,27.25119,48.843857,2.3533845,307.0968,NaN,,37.648388,,0 / 18,1640,2022-01-10 17:59:33:204
-0.042173,-0.249751,9.665508,-0.035335,-0.246828,9.803479,-0.007167,-3.24E-4,0.002635,7.99E-4,-0.004261,-5.33E-4,33.0,7.95,-9.0,-32.775,218.7246,1.4423,0.2065,1.97,27.25119,48.843857,2.3533845,307.0968,NaN,,37.648388,,0 / 18,1645,2022-01-10 17:59:33:209
-0.042173,-0.249751,9.665508,-0.035335,-0.246828,9.803479,-0.007167,-3.24E-4,0.002635,7.99E-4,-0.004261,-5.33E-4,33.0,7.95,-9.0,-32.775,218.7246,1.4423,0.2065,1.97,27.25119,48.843857,2.3533845,307.0968,NaN,,37.648388,,0 / 18,1650,2022-01-10 17:59:33:214
-0.042173,-0.249751,9.665508,-0.035335,-0.246828,9.803479,-0.007167,-3.24E-4,0.002635,7.99E-4,-0.004261,-5.33E-4,33.0,7.95,-9.0,-32.775,218.7246,1.4423,0.2065,1.97,27.25119,48.843857,2.3533845,307.0968,NaN,,37.648388,,0 / 18,1655,2022-01-10 17:59:33:219
-0.042173,-0.249751,9.665508,-0.035335,-0.246828,9.803479,-0.007167,-3.24E-4,0.002635,7.99E-4,-0.004261,-5.33E-4,33.0,7.95,-9.0,-32.775,218.7246,1.4423,0.2065,1.97,27.25119,48.843857,2.3533845,307.0968,NaN,,37.648388,,0 / 18,1659,2022-01-10 17:59:33:223
-0.042173,-0.249751,9.665508,-0.035335,-0.246828,9.803479,-0.007167,-3.24E-4,0.002635,7.99E-4,-0.004261,-5.33E-4,33.0,7.95,-9.0,-32.775,218.7246,1.4423,0.2065,1.97,27.25119,48.843857,2.3533845,307.0968,NaN,,37.648388,,0 / 18,1664,2022-01-10 17:59:33:228
-0.042173,-0.249751,9.665508,-0.035335,-0.246828,9.803479,-0.007167,-3.24E-4,0.002635,7.99E-4,-0.004261,-5.33E-4,33.0,7.95,-9.0,-32.775,218.7246,1.4423,0.2065,1.97,27.25119,48.843857,2.3533845,307.0968,NaN,,37.648388,,0 / 18,1670,2022-01-10 17:59:33:234
-0.042173,-0.249751,9.665508,-0.035335,-0.246828,9.803479,-0.007167,-3.24E-4,0.002635,7.99E-4,-0.004261,-5.33E-4,33.0,7.95,-9.0,-32.775,218.7246,1.4423,0.2065,1.97,27.25119,48.843857,2.3533845,307.0968,NaN,,37.648388,,0 / 18,1674,2022-01-10 17:59:33:238
-0.042173,-0.249751,9.665508,-0.035335,-0.246828,9.803479,-0.007167,-3.24E-4,0.002635,7.99E-4,-0.004261,-5.33E-4,33.0,7.95,-9.0,-32.775,218.7246,1.4423,0.2065,1.97,27.25119,48.843857,2.3533845,307.0968,NaN,,37.648388,,0 / 18,1680,2022-01-10 17:59:33:244
-0.042173,-0.249751,9.665508,-0.035335,-0.246828,9.803479,-0.007167,-3.24E-4,0.002635,7.99E-4,-0.004261,-5.33E-4,33.0,7.95,-9.0,-32.775,218.7246,1.4423,0.2065,1.97,27.25119,48.843857,2.3533845,307.0968,NaN,,37.648388,,0 / 18,1684,2022-01-10 17:59:33:248
-0.042173,-0.249751,9.665508,-0.016688,-0.246148,9.803546,-0.007167,-3.24E-4,0.002635,0.002397,-0.029028,3.99E-4,33.0,7.95,-9.0,-32.775,218.7246,1.4423,0.2065,1.97,27.25119,48.843857,2.3533845,307.0968,NaN,,37.648388,,0 / 18,1690,2022-01-10 17:59:33:254
-0.042173,-0.249751,9.665508,-0.016688,-0.246148,9.803546,-0.007167,-3.24E-4,0.002635,0.002397,-0.029028,3.99E-4,33.0,7.95,-9.0,-32.775,218.7246,1.4423,0.2065,1.97,27.25119,48.843857,2.3533845,307.0968,NaN,,37.648388,,0 / 18,1695,2022-01-10 17:59:33:259
-0.042173,-0.249751,9.665508,-0.016688,-0.246148,9.803546,-0.007167,-3.24E-4,0.002635,0.002397,-0.029028,3.99E-4,33.0,7.95,-9.0,-32.775,218.7246,1.4423,0.2065,1.97,27.25119,48.843857,2.3533845,307.0968,NaN,,37.648388,,0 / 18,1700,2022-01-10 17:59:33:264
-0.042173,-0.249751,9.665508,-0.016688,-0.246148,9.803546,-0.007167,-3.24E-4,0.002635,0.002397,-0.029028,3.99E-4,33.0,7.95,-9.0,-32.775,218.7246,1.4423,0.2065,1.97,27.25119,48.843857,2.3533845,307.0968,NaN,,37.648388,,0 / 18,1705,2022-01-10 17:59:33:269
-0.042173,-0.249751,9.665508,-0.016688,-0.246148,9.803546,-0.007167,-3.24E-4,0.002635,0.002397,-0.029028,3.99E-4,33.0,7.95,-9.0,-32.775,218.7246,1.4423,0.2065,1.97,27.25119,48.843857,2.3533845,307.0968,NaN,,37.648388,,0 / 18,1709,2022-01-10 17:59:33:273
-0.042173,-0.249751,9.665508,-0.016688,-0.246148,9.803546,-0.007167,-3.24E-4,0.002635,0.002397,-0.029028,3.99E-4,33.0,7.95,-9.0,-32.775,218.7246,1.4423,0.2065,1.97,27.25119,48.843857,2.3533845,307.0968,NaN,,37.648388,,0 / 18,1715,2022-01-10 17:59:33:279
-0.042173,-0.249751,9.665508,-0.016688,-0.246148,9.803546,-0.007167,-3.24E-4,0.002635,0.002397,-0.029028,3.99E-4,33.0,7.95,-9.0,-32.775,218.7246,1.4423,0.2065,1.97,27.25119,48.843857,2.3533845,307.0968,NaN,,37.648388,,0 / 18,1720,2022-01-10 17:59:33:284
-0.042173,-0.249751,9.665508,-0.016688,-0.246148,9.803546,-0.007167,-3.24E-4,0.002635,0.002397,-0.029028,3.99E-4,33.0,7.95,-9.0,-32.775,218.7246,1.4423,0.2065,1.97,27.25119,48.843857,2.3533845,307.0968,NaN,,37.648388,,0 / 18,1725,2022-01-10 17:59:33:289
-0.042173,-0.249751,9.665508,-0.016688,-0.246148,9.803546,-0.007167,-3.24E-4,0.002635,0.002397,-0.029028,3.99E-4,33.0,7.95,-9.0,-32.775,218.7246,1.4423,0.2065,1.97,27.25119,48.843857,2.3533845,307.0968,NaN,,37.648388,,0 / 18,1730,2022-01-10 17:59:33:294
-0.042173,-0.249751,9.665508,-0.016688,-0.246148,9.803546,-0.007167,-3.24E-4,0.002635,0.002397,-0.029028,3.99E-4,33.0,7.95,-9.0,-32.775,218.7246,1.4423,0.2065,1.97,27.25119,48.843857,2.3533845,307.0968,NaN,,37.648388,,0 / 18,1735,2022-01-10 17:59:33:299
-0.042173,-0.249751,9.665508,-0.016688,-0.246148,9.803546,-0.007167,-3.24E-4,0.002635,0.002397,-0.029028,3.99E-4,33.0,7.95,-9.0,-32.775,218.7246,1.4423,0.2065,1.97,27.25119,48.843857,2.3533845,307.0968,NaN,,37.648388,,0 / 18,1739,2022-01-10 17:59:33:303
-0.042173,-0.249751,9.665508,-0.016688,-0.246148,9.803546,-0.007167,-3.24E-4,0.002635,0.002397,-0.029028,3.99E-4,33.0,7.95,-9.0,-32.775,218.7246,1.4423,0.2065,1.97,27.25119,48.843857,2.3533845,307.0968,NaN,,37.648388,,0 / 18,1745,2022-01-10 17:59:33:309
-0.005085,-0.238983,9.727721,-0.016688,-0.246148,9.803546,-0.025058,0.00191,-0.009745,0.002397,-0.029028,3.99E-4,33.0,7.95,-9.0,-32.775,218.7246,1.4423,0.2065,1.97,27.25119,48.843857,2.3533845,307.0968,NaN,,37.648388,,0 / 18,1750,2022-01-10 17:59:33:314
-0.005085,-0.238983,9.727721,-0.016688,-0.246148,9.803546,-0.025058,0.00191,-0.009745,0.002397,-0.029028,3.99E-4,33.0,7.95,-9.0,-32.775,218.7246,1.4423,0.2065,1.97,27.25119,48.843857,2.3533845,307.0968,NaN,,37.648388,,0 / 18,1754,2022-01-10 17:59:33:318
-0.005085,-0.238983,9.727721,-0.016688,-0.246148,9.803546,-0.025058,0.00191,-0.009745,0.002397,-0.029028,3.99E-4,33.0,7.95,-9.0,-32.775,218.7246,1.4423,0.2065,1.97,27.25119,48.843857,2.3533845,307.0968,NaN,,37.648388,,0 / 18,1760,2022-01-10 17:59:33:324
-0.005085,-0.238983,9.727721,-0.016688,-0.246148,9.803546,-0.025058,0.00191,-0.009745,0.002397,-0.029028,3.99E-4,33.0,7.95,-9.0,-32.775,218.7246,1.4423,0.2065,1.97,27.25119,48.843857,2.3533845,307.0968,NaN,,37.648388,,0 / 18,1764,2022-01-10 17:59:33:328
-0.005085,-0.238983,9.727721,-0.016688,-0.246148,9.803546,-0.025058,0.00191,-0.009745,0.002397,-0.029028,3.99E-4,33.0,7.95,-9.0,-32.775,218.7246,1.4423,0.2065,1.97,27.25119,48.843857,2.3533845,307.0968,NaN,,37.648388,,0 / 18,1770,2022-01-10 17:59:33:334
-0.005085,-0.238983,9.727721,-0.016688,-0.246148,9.803546,-0.025058,0.00191,-0.009745,0.002397,-0.029028,3.99E-4,33.0,7.95,-9.0,-32.775,218.7246,1.4423,0.2065,1.97,27.25119,48.843857,2.3533845,307.0968,NaN,,37.648388,,0 / 18,1774,2022-01-10 17:59:33:338
-0.005085,-0.238983,9.727721,-0.016688,-0.246148,9.803546,-0.025058,0.00191,-0.009745,0.002397,-0.029028,3.99E-4,33.0,7.95,-9.0,-32.775,218.7246,1.4423,0.2065,1.97,27.25119,48.843857,2.3533845,307.0968,NaN,,37.648388,,0 / 18,1780,2022-01-10 17:59:33:344
-0.005085,-0.238983,9.727721,-0.016688,-0.246148,9.803546,-0.025058,0.00191,-0.009745,0.002397,-0.029028,3.99E-4,33.0,7.95,-9.0,-32.775,218.7246,1.4423,0.2065,1.97,27.25119,48.843857,2.3533845,307.0968,NaN,,37.648388,,0 / 18,1785,2022-01-10 17:59:33:349
-0.005085,-0.238983,9.727721,-0.016688,-0.246148,9.803546,-0.025058,0.00191,-0.009745,0.002397,-0.029028,3.99E-4,33.0,7.95,-9.0,-32.775,218.7246,1.4423,0.2065,1.97,27.25119,48.843857,2.3533845,307.0968,NaN,,37.648388,,0 / 18,1789,2022-01-10 17:59:33:353
-0.005085,-0.238983,9.727721,-0.016688,-0.246148,9.803546,-0.025058,0.00191,-0.009745,0.002397,-0.029028,3.99E-4,33.0,7.95,-9.0,-32.775,218.7246,1.4423,0.2065,1.97,27.25119,48.843857,2.3533845,307.0968,NaN,,37.648388,,0 / 18,1795,2022-01-10 17:59:33:359
-0.005085,-0.238983,9.727721,-0.016688,-0.246148,9.803546,-0.025058,0.00191,-0.009745,0.002397,-0.029028,3.99E-4,33.0,7.95,-9.0,-32.775,218.7246,1.4423,0.2065,1.97,27.25119,48.843857,2.3533845,307.0968,NaN,,37.648388,,0 / 18,1806,2022-01-10 17:59:33:370
-0.005085,-0.238983,9.727721,-0.016688,-0.246148,9.803546,-0.025058,0.00191,-0.009745,0.002397,-0.029028,3.99E-4,33.0,7.95,-9.0,-32.775,218.7246,1.4423,0.2065,1.97,27.25119,48.843857,2.3533845,307.0968,NaN,,37.648388,,0 / 18,1807,2022-01-10 17:59:33:371
-0.005085,-0.238983,9.727721,0.038907,-0.24114,9.803608,-0.025058,0.00191,-0.009745,0.002397,-0.029028,3.99E-4,33.0,7.95,-9.0,-32.775,218.7246,1.4423,0.2065,1.97,27.25119,48.843857,2.3533845,307.0968,NaN,,37.648388,,0 / 18,1811,2022-01-10 17:59:33:375
-0.005085,-0.238983,9.727721,0.038907,-0.24114,9.803608,-0.025058,0.00191,-0.009745,0.002397,-0.029028,3.99E-4,33.0,7.95,-9.0,-32.775,218.7246,1.4423,0.2065,1.97,27.25119,48.843857,2.3533845,307.0968,NaN,,37.648388,,0 / 18,1815,2022-01-10 17:59:33:379
-0.005085,-0.238983,9.727721,0.038907,-0.24114,9.803608,-0.025058,0.00191,-0.009745,0.002397,-0.029028,3.99E-4,33.0,7.95,-9.0,-32.775,218.7246,1.4423,0.2065,1.97,27.25119,48.843857,2.3533845,307.0968,NaN,,37.648388,,0 / 18,1820,2022-01-10 17:59:33:384
-0.005085,-0.238983,9.727721,0.038907,-0.24114,9.803608,-0.025058,0.00191,-0.009745,1.33E-4,-0.053262,-2.66E-4,33.0,7.875,-9.225,-32.625,219.6591,1.409,-0.2274,1.97,27.25119,48.843857,2.3533845,307.0968,NaN,,37.648388,,0 / 18,1824,2022-01-10 17:59:33:388
-0.005085,-0.238983,9.727721,0.038907,-0.24114,9.803608,-0.025058,0.00191,-0.009745,1.33E-4,-0.053262,-2.66E-4,33.0,7.875,-9.225,-32.625,219.6591,1.409,-0.2274,1.97,27.25119,48.843857,2.3533845,307.0968,NaN,,37.648388,,0 / 18,1830,2022-01-10 17:59:33:394
-0.005085,-0.238983,9.727721,0.038907,-0.24114,9.803608,-0.025058,0.00191,-0.009745,1.33E-4,-0.053262,-2.66E-4,33.0,7.875,-9.225,-32.625,219.6591,1.409,-0.2274,1.97,27.25119,48.843857,2.3533845,307.0968,NaN,,37.648388,,0 / 18,1835,2022-01-10 17:59:33:399
-0.005085,-0.238983,9.727721,0.038907,-0.24114,9.803608,-0.025058,0.00191,-0.009745,1.33E-4,-0.053262,-2.66E-4,33.0,7.875,-9.225,-32.625,219.6591,1.409,-0.2274,1.97,27.25119,48.843857,2.3533845,307.0968,NaN,,37.648388,,0 / 18,1840,2022-01-10 17:59:33:404
0.018843,-0.252144,9.786345,0.038907,-0.24114,9.803608,-0.025058,0.00191,-0.009745,1.33E-4,-0.053262,-2.66E-4,33.0,7.875,-9.225,-32.625,219.6591,1.409,-0.2274,1.97,27.25119,48.843857,2.3533845,307.0968,NaN,,37.648388,,0 / 18,1845,2022-01-10 17:59:33:409
0.018843,-0.252144,9.786345,0.038907,-0.24114,9.803608,-0.025058,0.00191,-0.009745,1.33E-4,-0.053262,-2.66E-4,33.0,7.875,-9.225,-32.625,219.6591,1.409,-0.2274,1.97,27.25119,48.843857,2.3533845,307.0968,NaN,,37.648388,,0 / 18,1852,2022-01-10 17:59:33:416
0.018843,-0.252144,9.786345,0.038907,-0.24114,9.803608,-0.025058,0.00191,-0.009745,1.33E-4,-0.053262,-2.66E-4,33.0,7.875,-9.225,-32.625,219.6591,1.409,-0.2274,1.97,27.25119,48.843857,2.3533845,307.0968,NaN,,37.648388,,0 / 18,1855,2022-01-10 17:59:33:419
0.018843,-0.252144,9.786345,0.038907,-0.24114,9.803608,-0.025058,0.00191,-0.009745,1.33E-4,-0.053262,-2.66E-4,33.0,7.875,-9.225,-32.625,219.6591,1.409,-0.2274,1.97,27.25119,48.843857,2.3533845,307.0968,NaN,,37.648388,,0 / 18,1859,2022-01-10 17:59:33:423
0.018843,-0.252144,9.786345,0.038907,-0.24114,9.803608,-0.025058,0.00191,-0.009745,1.33E-4,-0.053262,-2.66E-4,33.0,7.875,-9.225,-32.625,219.6591,1.409,-0.2274,1.97,27.25119,48.843857,2.3533845,307.0968,NaN,,37.648388,,0 / 18,1866,2022-01-10 17:59:33:430
0.018843,-0.252144,9.786345,0.038907,-0.24114,9.803608,-0.025058,0.00191,-0.009745,1.33E-4,-0.053262,-2.66E-4,33.0,7.875,-9.225,-32.625,219.6591,1.409,-0.2274,1.97,27.25119,48.843857,2.3533845,307.0968,NaN,,37.648388,,0 / 18,1871,2022-01-10 17:59:33:435
0.018843,-0.252144,9.786345,0.038907,-0.24114,9.803608,-0.084922,0.004888,-3.47E-4,1.33E-4,-0.053262,-2.66E-4,33.0,7.875,-9.225,-32.625,219.6591,1.409,-0.2274,1.97,27.25119,48.843857,2.3533845,307.0968,NaN,,37.648388,,0 / 18,1874,2022-01-10 17:59:33:438
0.018843,-0.252144,9.786345,0.038907,-0.24114,9.803608,-0.084922,0.004888,-3.47E-4,1.33E-4,-0.053262,-2.66E-4,33.0,7.875,-9.225,-32.625,219.6591,1.409,-0.2274,1.97,27.25119,48.843857,2.3533845,307.0968,NaN,,37.648388,,0 / 18,1881,2022-01-10 17:59:33:445
0.018843,-0.252144,9.786345,0.038907,-0.24114,9.803608,-0.084922,0.004888,-3.47E-4,1.33E-4,-0.053262,-2.66E-4,33.0,7.875,-9.225,-32.625,219.6591,1.409,-0.2274,1.97,27.25119,48.843857,2.3533845,307.0968,NaN,,37.648388,,0 / 18,1884,2022-01-10 17:59:33:448
0.018843,-0.252144,9.786345,0.038907,-0.24114,9.803608,-0.084922,0.004888,-3.47E-4,1.33E-4,-0.053262,-2.66E-4,33.0,7.875,-9.225,-32.625,219.6591,1.409,-0.2274,1.97,31.7746,48.843857,2.3533845,307.0968,NaN,,37.648388,,0 / 18,1890,2022-01-10 17:59:33:454
0.018843,-0.252144,9.786345,0.038907,-0.24114,9.803608,-0.084922,0.004888,-3.47E-4,1.33E-4,-0.053262,-2.66E-4,33.0,7.875,-9.225,-32.625,219.6591,1.409,-0.2274,1.97,31.7746,48.843857,2.3533845,307.0968,NaN,,37.648388,,0 / 18,1894,2022-01-10 17:59:33:458
0.018843,-0.252144,9.786345,0.038907,-0.24114,9.803608,-0.084922,0.004888,-3.47E-4,1.33E-4,-0.053262,-2.66E-4,33.0,7.875,-9.225,-32.625,219.6591,1.409,-0.2274,1.97,31.7746,48.843857,2.3533845,307.0968,NaN,,37.648388,,0 / 18,1900,2022-01-10 17:59:33:464
0.018843,-0.252144,9.786345,0.038907,-0.24114,9.803608,-0.084922,0.004888,-3.47E-4,1.33E-4,-0.053262,-2.66E-4,33.0,7.875,-9.225,-32.625,219.6591,1.409,-0.2274,1.97,31.7746,48.843857,2.3533845,307.0968,NaN,,37.648388,,0 / 18,1905,2022-01-10 17:59:33:469
0.018843,-0.252144,9.786345,0.038907,-0.24114,9.803608,-0.084922,0.004888,-3.47E-4,1.33E-4,-0.053262,-2.66E-4,33.0,7.875,-9.225,-32.625,219.6591,1.409,-0.2274,1.97,31.7746,48.843857,2.3533845,307.0968,NaN,,37.648388,,0 / 18,1910,2022-01-10 17:59:33:474
0.018843,-0.252144,9.786345,0.038907,-0.24114,9.803608,-0.084922,0.004888,-3.47E-4,1.33E-4,-0.053262,-2.66E-4,33.0,7.875,-9.225,-32.625,219.6591,1.409,-0.2274,1.97,31.7746,48.843857,2.3533845,307.0968,NaN,,37.648388,,0 / 18,1915,2022-01-10 17:59:33:479
0.018843,-0.252144,9.786345,0.038907,-0.24114,9.803608,-0.084922,0.004888,-3.47E-4,1.33E-4,-0.053262,-2.66E-4,33.0,7.875,-9.225,-32.625,219.6591,1.409,-0.2274,1.97,31.7746,48.843857,2.3533845,307.0968,NaN,,37.648388,,0 / 18,1919,2022-01-10 17:59:33:483
0.186341,-0.22343,9.669097,0.1458,-0.245777,9.802486,-0.084922,0.004888,-3.47E-4,1.33E-4,-0.053262,-2.66E-4,33.0,7.875,-9.225,-32.625,219.6591,1.409,-0.2274,1.97,31.7746,48.843857,2.3533845,307.0968,NaN,,37.648388,,0 / 18,1925,2022-01-10 17:59:33:489
0.186341,-0.22343,9.669097,0.1458,-0.245777,9.802486,-0.084922,0.004888,-3.47E-4,1.33E-4,-0.053262,-2.66E-4,33.0,7.875,-9.225,-32.625,219.6591,1.409,-0.2274,1.97,31.7746,48.843857,2.3533845,307.0968,NaN,,37.648388,,0 / 18,1930,2022-01-10 17:59:33:494
0.186341,-0.22343,9.669097,0.1458,-0.245777,9.802486,-0.084922,0.004888,-3.47E-4,1.33E-4,-0.053262,-2.66E-4,33.0,7.875,-9.225,-32.625,219.6591,1.409,-0.2274,1.97,31.7746,48.843857,2.3533845,307.0968,NaN,,37.648388,,0 / 18,1935,2022-01-10 17:59:33:499
0.186341,-0.22343,9.669097,0.1458,-0.245777,9.802486,-0.084922,0.004888,-3.47E-4,1.33E-4,-0.053262,-2.66E-4,33.0,7.875,-9.225,-32.625,219.6591,1.409,-0.2274,1.97,31.7746,48.843857,2.3533845,307.0968,NaN,,37.648388,,0 / 18,1940,2022-01-10 17:59:33:504
0.186341,-0.22343,9.669097,0.1458,-0.245777,9.802486,-0.084922,0.004888,-3.47E-4,1.33E-4,-0.053262,-2.66E-4,33.0,7.875,-9.225,-32.625,219.6591,1.409,-0.2274,1.97,31.7746,48.843857,2.3533845,307.0968,NaN,,37.648388,,0 / 18,1945,2022-01-10 17:59:33:509
0.186341,-0.22343,9.669097,0.1458,-0.245777,9.802486,-0.084922,0.004888,-3.47E-4,1.33E-4,-0.053262,-2.66E-4,33.0,7.875,-9.225,-32.625,219.6591,1.409,-0.2274,1.97,31.7746,48.843857,2.3533845,307.0968,NaN,,37.648388,,0 / 18,1950,2022-01-10 17:59:33:514
0.186341,-0.22343,9.669097,0.1458,-0.245777,9.802486,-0.084922,0.004888,-3.47E-4,2.66E-4,-0.058055,-0.005326,33.0,7.875,-9.225,-32.625,219.6591,1.409,-0.2274,1.97,31.7746,48.843857,2.3533845,307.0968,NaN,,37.648388,,0 / 18,1955,2022-01-10 17:59:33:519
0.186341,-0.22343,9.669097,0.1458,-0.245777,9.802486,-0.084922,0.004888,-3.47E-4,2.66E-4,-0.058055,-0.005326,33.0,7.875,-9.225,-32.625,219.6591,1.409,-0.2274,1.97,31.7746,48.843857,2.3533845,307.0968,NaN,,37.648388,,0 / 18,1960,2022-01-10 17:59:33:524
0.186341,-0.22343,9.669097,0.1458,-0.245777,9.802486,-0.084922,0.004888,-3.47E-4,2.66E-4,-0.058055,-0.005326,33.0,7.875,-9.225,-32.625,219.6591,1.409,-0.2274,1.97,31.7746,48.843857,2.3533845,307.0968,NaN,,37.648388,,0 / 18,1965,2022-01-10 17:59:33:529
0.186341,-0.22343,9.669097,0.1458,-0.245777,9.802486,-0.084922,0.004888,-3.47E-4,2.66E-4,-0.058055,-0.005326,33.0,7.875,-9.225,-32.625,219.6591,1.409,-0.2274,1.97,31.7746,48.843857,2.3533845,307.0968,NaN,,37.648388,,0 / 18,1970,2022-01-10 17:59:33:534
0.186341,-0.22343,9.669097,0.1458,-0.245777,9.802486,-0.084922,0.004888,-3.47E-4,2.66E-4,-0.058055,-0.005326,33.0,7.875,-9.225,-32.625,219.6591,1.409,-0.2274,1.97,31.7746,48.843857,2.3533845,307.0968,NaN,,37.648388,,0 / 18,1974,2022-01-10 17:59:33:538
0.186341,-0.22343,9.669097,0.1458,-0.245777,9.802486,-0.084922,0.004888,-3.47E-4,2.66E-4,-0.058055,-0.005326,33.0,7.875,-9.225,-32.625,219.6591,1.409,-0.2274,1.97,31.7746,48.843857,2.3533845,307.0968,NaN,,37.648388,,0 / 18,1980,2022-01-10 17:59:33:544
0.186341,-0.22343,9.669097,0.1458,-0.245777,9.802486,-0.084922,0.004888,-3.47E-4,2.66E-4,-0.058055,-0.005326,33.0,7.875,-9.225,-32.625,219.6591,1.409,-0.2274,1.97,31.7746,48.843857,2.3533845,307.0968,NaN,,37.648388,,0 / 18,1986,2022-01-10 17:59:33:550
0.186341,-0.22343,9.669097,0.1458,-0.245777,9.802486,-0.084922,0.004888,-3.47E-4,2.66E-4,-0.058055,-0.005326,33.0,7.875,-9.225,-32.625,219.6591,1.409,-0.2274,1.97,31.7746,48.843857,2.3533845,307.0968,NaN,,37.648388,,0 / 18,1991,2022-01-10 17:59:33:555
0.186341,-0.22343,9.669097,0.1458,-0.245777,9.802486,-0.084922,0.004888,-3.47E-4,2.66E-4,-0.058055,-0.005326,33.0,7.875,-9.225,-32.625,219.6591,1.409,-0.2274,1.97,31.7746,48.843857,2.3533845,307.0968,NaN,,37.648388,,0 / 18,1995,2022-01-10 17:59:33:559
0.186341,-0.22343,9.669097,0.1458,-0.245777,9.802486,-0.084922,0.004888,-3.47E-4,2.66E-4,-0.058055,-0.005326,33.0,7.875,-9.225,-32.625,219.6591,1.409,-0.2274,1.97,31.7746,48.843857,2.3533845,307.0968,NaN,,37.648388,,0 / 18,2000,2022-01-10 17:59:33:564
0.186341,-0.22343,9.669097,0.1458,-0.245777,9.802486,-0.006322,7.92E-4,-0.001156,2.66E-4,-0.058055,-0.005326,33.0,7.875,-9.225,-32.625,219.6591,1.409,-0.2274,1.97,31.7746,48.843857,2.3533845,307.0968,NaN,,37.648388,,0 / 18,2005,2022-01-10 17:59:33:569
0.186341,-0.22343,9.669097,0.1458,-0.245777,9.802486,-0.006322,7.92E-4,-0.001156,2.66E-4,-0.058055,-0.005326,33.0,7.875,-9.225,-32.625,219.6591,1.409,-0.2274,1.97,31.7746,48.843857,2.3533845,307.0968,NaN,,37.648388,,0 / 18,2012,2022-01-10 17:59:33:576
0.186341,-0.22343,9.669097,0.1458,-0.245777,9.802486,-0.006322,7.92E-4,-0.001156,2.66E-4,-0.058055,-0.005326,33.0,7.875,-9.225,-32.625,219.6591,1.409,-0.2274,1.97,31.7746,48.843857,2.3533845,307.0968,NaN,,37.648388,,0 / 18,2014,2022-01-10 17:59:33:578
0.186341,-0.22343,9.669097,0.1458,-0.245777,9.802486,-0.006322,7.92E-4,-0.001156,2.66E-4,-0.058055,-0.005326,33.0,7.875,-9.225,-32.625,219.6591,1.409,-0.2274,1.97,31.7746,48.843857,2.3533845,307.0968,NaN,,37.648388,,0 / 18,2020,2022-01-10 17:59:33:584
0.150449,-0.237787,9.68824,0.1458,-0.245777,9.802486,-0.006322,7.92E-4,-0.001156,2.66E-4,-0.058055,-0.005326,33.0,7.425,-9.225,-33.375,217.3295,1.4361,-0.8521,1.97,31.7746,48.843857,2.3533845,307.0968,NaN,,37.648388,,0 / 18,2025,2022-01-10 17:59:33:589
0.150449,-0.237787,9.68824,0.1458,-0.245777,9.802486,-0.006322,7.92E-4,-0.001156,2.66E-4,-0.058055,-0.005326,33.0,7.425,-9.225,-33.375,217.3295,1.4361,-0.8521,1.97,31.7746,48.843857,2.3533845,307.0968,NaN,,37.648388,,0 / 18,2030,2022-01-10 17:59:33:594
0.150449,-0.237787,9.68824,0.1458,-0.245777,9.802486,-0.006322,7.92E-4,-0.001156,2.66E-4,-0.058055,-0.005326,33.0,7.425,-9.225,-33.375,217.3295,1.4361,-0.8521,1.97,31.7746,48.843857,2.3533845,307.0968,NaN,,37.648388,,0 / 18,2035,2022-01-10 17:59:33:599
0.150449,-0.237787,9.68824,0.1458,-0.245777,9.802486,-0.006322,7.92E-4,-0.001156,2.66E-4,-0.058055,-0.005326,33.0,7.425,-9.225,-33.375,217.3295,1.4361,-0.8521,1.97,31.7746,48.843857,2.3533845,307.0968,NaN,,37.648388,,0 / 18,2040,2022-01-10 17:59:33:604
0.150449,-0.237787,9.68824,0.1458,-0.245777,9.802486,-0.006322,7.92E-4,-0.001156,2.66E-4,-0.058055,-0.005326,33.0,7.425,-9.225,-33.375,217.3295,1.4361,-0.8521,1.97,31.7746,48.843857,2.3533845,307.0968,NaN,,37.648388,,0 / 18,2045,2022-01-10 17:59:33:609
0.150449,-0.237787,9.68824,0.1458,-0.245777,9.802486,-0.006322,7.92E-4,-0.001156,2.66E-4,-0.058055,-0.005326,33.0,7.425,-9.225,-33.375,217.3295,1.4361,-0.8521,1.97,31.7746,48.843857,2.3533845,307.0968,NaN,,37.648388,,0 / 18,2050,2022-01-10 17:59:33:614
0.150449,-0.237787,9.68824,0.1458,-0.245777,9.802486,-0.006322,7.92E-4,-0.001156,2.66E-4,-0.058055,-0.005326,33.0,7.425,-9.225,-33.375,217.3295,1.4361,-0.8521,1.97,31.7746,48.843857,2.3533845,307.0968,NaN,,37.648388,,0 / 18,2055,2022-01-10 17:59:33:619
0.150449,-0.237787,9.68824,0.1458,-0.245777,9.802486,-0.006322,7.92E-4,-0.001156,2.66E-4,-0.058055,-0.005326,33.0,7.425,-9.225,-33.375,217.3295,1.4361,-0.8521,1.97,31.7746,48.843857,2.3533845,307.0968,NaN,,37.648388,,0 / 18,2061,2022-01-10 17:59:33:625
0.150449,-0.237787,9.68824,0.278293,-0.253358,9.799426,-0.006322,7.92E-4,-0.001156,2.66E-4,-0.058055,-0.005326,33.0,7.425,-9.225,-33.375,217.3295,1.4361,-0.8521,1.97,31.7746,48.843857,2.3533845,307.0968,NaN,,37.648388,,0 / 18,2065,2022-01-10 17:59:33:629
0.150449,-0.237787,9.68824,0.278293,-0.253358,9.799426,-0.006322,7.92E-4,-0.001156,2.66E-4,-0.058055,-0.005326,33.0,7.425,-9.225,-33.375,217.3295,1.4361,-0.8521,1.97,31.7746,48.843857,2.3533845,307.0968,NaN,,37.648388,,0 / 18,2071,2022-01-10 17:59:33:635
0.150449,-0.237787,9.68824,0.278293,-0.253358,9.799426,-0.006322,7.92E-4,-0.001156,2.66E-4,-0.058055,-0.005326,33.0,7.425,-9.225,-33.375,217.3295,1.4361,-0.8521,1.97,31.7746,48.843857,2.3533845,307.0968,NaN,,37.648388,,0 / 18,2075,2022-01-10 17:59:33:639
0.150449,-0.237787,9.68824,0.278293,-0.253358,9.799426,-0.006322,7.92E-4,-0.001156,-0.052596,-0.599327,-0.013182,33.0,7.425,-9.225,-33.375,217.3295,1.4361,-0.8521,1.97,31.7746,48.843857,2.3533845,307.0968,NaN,,37.648388,,0 / 18,2081,2022-01-10 17:59:33:645
0.150449,-0.237787,9.68824,0.278293,-0.253358,9.799426,-0.006322,7.92E-4,-0.001156,-0.052596,-0.599327,-0.013182,33.0,7.425,-9.225,-33.375,217.3295,1.4361,-0.8521,1.97,31.7746,48.843857,2.3533845,307.0968,NaN,,37.648388,,0 / 18,2087,2022-01-10 17:59:33:651
0.150449,-0.237787,9.68824,0.278293,-0.253358,9.799426,-0.006322,7.92E-4,-0.001156,-0.052596,-0.599327,-0.013182,33.0,7.425,-9.225,-33.375,217.3295,1.4361,-0.8521,1.97,31.7746,48.843857,2.3533845,307.0968,NaN,,37.648388,,0 / 18,2090,2022-01-10 17:59:33:654
0.150449,-0.237787,9.68824,0.278293,-0.253358,9.799426,-0.006322,7.92E-4,-0.001156,-0.052596,-0.599327,-0.013182,33.0,7.425,-9.225,-33.375,217.3295,1.4361,-0.8521,1.97,31.7746,48.843857,2.3533845,307.0968,NaN,,37.648388,,0 / 18,2096,2022-01-10 17:59:33:660
0.150449,-0.237787,9.68824,0.278293,-0.253358,9.799426,-0.006322,7.92E-4,-0.001156,-0.052596,-0.599327,-0.013182,33.0,7.425,-9.225,-33.375,217.3295,1.4361,-0.8521,1.97,31.7746,48.843857,2.3533845,307.0968,NaN,,37.648388,,0 / 18,2100,2022-01-10 17:59:33:664
0.150449,-0.237787,9.68824,0.278293,-0.253358,9.799426,-0.006322,7.92E-4,-0.001156,-0.052596,-0.599327,-0.013182,33.0,7.425,-9.225,-33.375,217.3295,1.4361,-0.8521,1.97,31.7746,48.843857,2.3533845,307.0968,NaN,,37.648388,,0 / 18,2105,2022-01-10 17:59:33:669
0.945763,-0.279661,9.792328,0.278293,-0.253358,9.799426,-0.591017,0.046397,0.092754,-0.052596,-0.599327,-0.013182,30.0,7.425,-9.225,-33.375,217.3295,1.4361,-0.8521,1.97,31.7746,48.843857,2.3533845,307.0968,NaN,,37.648388,,0 / 18,2109,2022-01-10 17:59:33:673
0.945763,-0.279661,9.792328,0.278293,-0.253358,9.799426,-0.591017,0.046397,0.092754,-0.052596,-0.599327,-0.013182,30.0,7.425,-9.225,-33.375,217.3295,1.4361,-0.8521,1.97,31.7746,48.843857,2.3533845,307.0968,NaN,,37.648388,,0 / 18,2114,2022-01-10 17:59:33:678
0.945763,-0.279661,9.792328,0.278293,-0.253358,9.799426,-0.591017,0.046397,0.092754,-0.052596,-0.599327,-0.013182,30.0,7.425,-9.225,-33.375,217.3295,1.4361,-0.8521,1.97,31.7746,48.843857,2.3533845,307.0968,NaN,,37.648388,,0 / 18,2120,2022-01-10 17:59:33:684
0.945763,-0.279661,9.792328,0.278293,-0.253358,9.799426,-0.591017,0.046397,0.092754,-0.052596,-0.599327,-0.013182,30.0,7.425,-9.225,-33.375,217.3295,1.4361,-0.8521,1.97,31.7746,48.843857,2.3533845,307.0968,NaN,,37.648388,,0 / 18,2125,2022-01-10 17:59:33:689
0.945763,-0.279661,9.792328,0.278293,-0.253358,9.799426,-0.591017,0.046397,0.092754,-0.052596,-0.599327,-0.013182,30.0,7.425,-9.225,-33.375,217.3295,1.4361,-0.8521,1.97,31.7746,48.843857,2.3533845,307.0968,NaN,,37.648388,,0 / 18,2130,2022-01-10 17:59:33:694
0.945763,-0.279661,9.792328,0.278293,-0.253358,9.799426,-0.591017,0.046397,0.092754,-0.052596,-0.599327,-0.013182,30.0,7.425,-9.225,-33.375,217.3295,1.4361,-0.8521,1.97,31.7746,48.843857,2.3533845,307.0968,NaN,,37.648388,,0 / 18,2134,2022-01-10 17:59:33:698
0.945763,-0.279661,9.792328,0.278293,-0.253358,9.799426,-0.591017,0.046397,0.092754,-0.052596,-0.599327,-0.013182,30.0,7.425,-9.225,-33.375,217.3295,1.4361,-0.8521,1.97,31.7746,48.843857,2.3533845,307.0968,NaN,,37.648388,,0 / 18,2140,2022-01-10 17:59:33:704
0.945763,-0.279661,9.792328,0.278293,-0.253358,9.799426,-0.591017,0.046397,0.092754,-0.052596,-0.599327,-0.013182,30.0,7.425,-9.225,-33.375,217.3295,1.4361,-0.8521,1.97,31.7746,48.843857,2.3533845,307.0968,NaN,,37.648388,,0 / 18,2144,2022-01-10 17:59:33:708
0.945763,-0.279661,9.792328,0.278293,-0.253358,9.799426,-0.591017,0.046397,0.092754,-0.052596,-0.599327,-0.013182,30.0,7.425,-9.225,-33.375,217.3295,1.4361,-0.8521,1.97,31.7746,48.843857,2.3533845,307.0968,NaN,,37.648388,,0 / 18,2150,2022-01-10 17:59:33:714
0.945763,-0.279661,9.792328,0.278293,-0.253358,9.799426,-0.591017,0.046397,0.092754,-0.052596,-0.599327,-0.013182,30.0,7.425,-9.225,-33.375,217.3295,1.4361,-0.8521,1.97,31.7746,48.843857,2.3533845,307.0968,NaN,,37.648388,,0 / 18,2155,2022-01-10 17:59:33:719
0.945763,-0.279661,9.792328,0.278293,-0.253358,9.799426,-0.591017,0.046397,0.092754,-0.052596,-0.599327,-0.013182,30.0,7.425,-9.225,-33.375,217.3295,1.4361,-0.8521,1.97,31.7746,48.843857,2.3533845,307.0968,NaN,,37.648388,,0 / 18,2159,2022-01-10 17:59:33:723
0.945763,-0.279661,9.792328,0.278293,-0.253358,9.799426,-0.591017,0.046397,0.092754,-0.052596,-0.599327,-0.013182,30.0,7.425,-9.225,-33.375,217.3295,1.4361,-0.8521,1.97,31.7746,48.843857,2.3533845,307.0968,NaN,,37.648388,,0 / 18,2165,2022-01-10 17:59:33:729
0.945763,-0.279661,9.792328,0.278293,-0.253358,9.799426,-0.591017,0.046397,0.092754,-0.052596,-0.599327,-0.013182,30.0,7.425,-9.225,-33.375,217.3295,1.4361,-0.8521,1.97,31.7746,48.843857,2.3533845,307.0968,NaN,,37.648388,,0 / 18,2169,2022-01-10 17:59:33:733
0.945763,-0.279661,9.792328,1.380977,-0.310005,9.703978,-0.591017,0.046397,0.092754,-0.052596,-0.599327,-0.013182,30.0,7.425,-9.225,-33.375,217.3295,1.4361,-0.8521,1.97,31.7746,48.843857,2.3533845,307.0968,NaN,,37.648388,,0 / 18,2175,2022-01-10 17:59:33:739
0.945763,-0.279661,9.792328,1.380977,-0.310005,9.703978,-0.591017,0.046397,0.092754,-0.052596,-0.599327,-0.013182,30.0,7.425,-9.225,-33.375,217.3295,1.4361,-0.8521,1.97,31.7746,48.843857,2.3533845,307.0968,NaN,,37.648388,,0 / 18,2180,2022-01-10 17:59:33:744
0.945763,-0.279661,9.792328,1.380977,-0.310005,9.703978,-0.591017,0.046397,0.092754,-0.052596,-0.599327,-0.013182,30.0,7.425,-9.225,-33.375,217.3295,1.4361,-0.8521,1.97,31.7746,48.843857,2.3533845,307.0968,NaN,,37.648388,,0 / 18,2185,2022-01-10 17:59:33:749
0.945763,-0.279661,9.792328,1.380977,-0.310005,9.703978,-0.591017,0.046397,0.092754,-0.052596,-0.599327,-0.013182,30.0,7.425,-9.225,-33.375,217.3295,1.4361,-0.8521,1.97,31.7746,48.843857,2.3533845,307.0968,NaN,,37.648388,,0 / 18,2190,2022-01-10 17:59:33:754
0.945763,-0.279661,9.792328,1.380977,-0.310005,9.703978,-0.591017,0.046397,0.092754,-0.052596,-0.599327,-0.013182,30.0,7.425,-9.225,-33.375,217.3295,1.4361,-0.8521,1.97,31.7746,48.843857,2.3533845,307.0968,NaN,,37.648388,,0 / 18,2195,2022-01-10 17:59:33:759
0.945763,-0.279661,9.792328,1.380977,-0.310005,9.703978,-0.591017,0.046397,0.092754,-0.052596,-0.599327,-0.013182,30.0,7.425,-9.225,-33.375,217.3295,1.4361,-0.8521,1.97,31.7746,48.843857,2.3533845,307.0968,NaN,,37.648388,,0 / 18,2199,2022-01-10 17:59:33:763
0.945763,-0.279661,9.792328,1.380977,-0.310005,9.703978,-0.591017,0.046397,0.092754,-0.052596,-0.599327,-0.013182,30.0,7.425,-9.225,-33.375,217.3295,1.4361,-0.8521,1.97,31.7746,48.843857,2.3533845,307.0968,NaN,,37.648388,,0 / 18,2206,2022-01-10 17:59:33:770
0.945763,-0.279661,9.792328,1.380977,-0.310005,9.703978,-0.591017,0.046397,0.092754,-0.052596,-0.599327,-0.013182,30.0,7.425,-9.225,-33.375,217.3295,1.4361,-0.8521,1.97,24.36255,48.843857,2.3533845,307.0968,NaN,,37.648388,,0 / 18,2210,2022-01-10 17:59:33:774
1.893321,-0.344267,9.847363,1.380977,-0.310005,9.703978,-0.591017,0.046397,0.092754,-0.04434,-1.672416,-0.013715,30.0,7.425,-9.225,-33.375,217.3295,1.4361,-0.8521,1.97,24.36255,48.843857,2.3533845,307.0968,NaN,,37.648388,,0 / 18,2215,2022-01-10 17:59:33:779
1.893321,-0.344267,9.847363,1.380977,-0.310005,9.703978,-0.591017,0.046397,0.092754,-0.04434,-1.672416,-0.013715,30.0,7.425,-9.225,-33.375,217.3295,1.4361,-0.8521,1.97,24.36255,48.843857,2.3533845,307.0968,NaN,,37.648388,,0 / 18,2220,2022-01-10 17:59:33:784
1.893321,-0.344267,9.847363,1.380977,-0.310005,9.703978,-0.591017,0.046397,0.092754,-0.04434,-1.672416,-0.013715,30.0,5.475,-9.6,-36.45,222.0805,1.8115,-8.0994,1.97,24.36255,48.843857,2.3533845,307.0968,NaN,,37.648388,,0 / 18,2225,2022-01-10 17:59:33:789
1.893321,-0.344267,9.847363,1.380977,-0.310005,9.703978,-0.591017,0.046397,0.092754,-0.04434,-1.672416,-0.013715,30.0,5.475,-9.6,-36.45,222.0805,1.8115,-8.0994,1.97,24.36255,48.843857,2.3533845,307.0968,NaN,,37.648388,,0 / 18,2229,2022-01-10 17:59:33:793
1.893321,-0.344267,9.847363,1.380977,-0.310005,9.703978,-1.056664,0.027989,0.34087,-0.04434,-1.672416,-0.013715,30.0,5.475,-9.6,-36.45,222.0805,1.8115,-8.0994,1.97,24.36255,48.843857,2.3533845,307.0968,NaN,,37.648388,,0 / 18,2235,2022-01-10 17:59:33:799
1.893321,-0.344267,9.847363,1.380977,-0.310005,9.703978,-1.056664,0.027989,0.34087,-0.04434,-1.672416,-0.013715,30.0,5.475,-9.6,-36.45,222.0805,1.8115,-8.0994,1.97,24.36255,48.843857,2.3533845,307.0968,NaN,,37.648388,,0 / 18,2239,2022-01-10 17:59:33:803
1.893321,-0.344267,9.847363,1.380977,-0.310005,9.703978,-1.056664,0.027989,0.34087,-0.04434,-1.672416,-0.013715,30.0,5.475,-9.6,-36.45,222.0805,1.8115,-8.0994,1.97,24.36255,48.843857,2.3533845,307.0968,NaN,,37.648388,,0 / 18,2245,2022-01-10 17:59:33:809
1.893321,-0.344267,9.847363,1.380977,-0.310005,9.703978,-1.056664,0.027989,0.34087,-0.04434,-1.672416,-0.013715,30.0,5.475,-9.6,-36.45,222.0805,1.8115,-8.0994,1.97,24.36255,48.843857,2.3533845,307.0968,NaN,,37.648388,,0 / 18,2249,2022-01-10 17:59:33:813
1.893321,-0.344267,9.847363,1.380977,-0.310005,9.703978,-1.056664,0.027989,0.34087,-0.04434,-1.672416,-0.013715,30.0,5.475,-9.6,-36.45,222.0805,1.8115,-8.0994,1.97,24.36255,48.843857,2.3533845,307.0968,NaN,,37.648388,,0 / 18,2255,2022-01-10 17:59:33:819
1.893321,-0.344267,9.847363,1.380977,-0.310005,9.703978,-1.056664,0.027989,0.34087,-0.04434,-1.672416,-0.013715,30.0,5.475,-9.6,-36.45,222.0805,1.8115,-8.0994,1.97,24.36255,48.843857,2.3533845,307.0968,NaN,,37.648388,,0 / 18,2260,2022-01-10 17:59:33:824
1.893321,-0.344267,9.847363,1.380977,-0.310005,9.703978,-1.056664,0.027989,0.34087,-0.04434,-1.672416,-0.013715,30.0,5.475,-9.6,-36.45,222.0805,1.8115,-8.0994,1.97,24.36255,48.843857,2.3533845,307.0968,NaN,,37.648388,,0 / 18,2264,2022-01-10 17:59:33:828
1.893321,-0.344267,9.847363,1.380977,-0.310005,9.703978,-1.056664,0.027989,0.34087,-0.04434,-1.672416,-0.013715,30.0,5.475,-9.6,-36.45,222.0805,1.8115,-8.0994,1.97,24.36255,48.843857,2.3533845,307.0968,NaN,,37.648388,,0 / 18,2270,2022-01-10 17:59:33:834
1.893321,-0.344267,9.847363,1.380977,-0.310005,9.703978,-1.056664,0.027989,0.34087,-0.04434,-1.672416,-0.013715,30.0,5.475,-9.6,-36.45,222.0805,1.8115,-8.0994,1.97,24.36255,48.843857,2.3533845,307.0968,NaN,,37.648388,,0 / 18,2274,2022-01-10 17:59:33:838
1.893321,-0.344267,9.847363,1.380977,-0.310005,9.703978,-1.056664,0.027989,0.34087,-0.04434,-1.672416,-0.013715,30.0,5.475,-9.6,-36.45,222.0805,1.8115,-8.0994,1.97,24.36255,48.843857,2.3533845,307.0968,NaN,,37.648388,,0 / 18,2280,2022-01-10 17:59:33:844
1.893321,-0.344267,9.847363,1.380977,-0.310005,9.703978,-1.056664,0.027989,0.34087,-0.04434,-1.672416,-0.013715,30.0,5.475,-9.6,-36.45,222.0805,1.8115,-8.0994,1.97,24.36255,48.843857,2.3533845,307.0968,NaN,,37.648388,,0 / 18,2284,2022-01-10 17:59:33:848
1.893321,-0.344267,9.847363,1.380977,-0.310005,9.703978,-1.056664,0.027989,0.34087,-0.04434,-1.672416,-0.013715,30.0,5.475,-9.6,-36.45,222.0805,1.8115,-8.0994,1.97,24.36255,48.843857,2.3533845,307.0968,NaN,,37.648388,,0 / 18,2290,2022-01-10 17:59:33:854
1.893321,-0.344267,9.847363,3.502236,-0.301911,9.154975,-1.056664,0.027989,0.34087,-0.04434,-1.672416,-0.013715,30.0,5.475,-9.6,-36.45,222.0805,1.8115,-8.0994,1.97,24.36255,48.843857,2.3533845,307.0968,NaN,,37.648388,,0 / 18,2295,2022-01-10 17:59:33:859
1.893321,-0.344267,9.847363,3.502236,-0.301911,9.154975,-1.056664,0.027989,0.34087,-0.04434,-1.672416,-0.013715,30.0,5.475,-9.6,-36.45,222.0805,1.8115,-8.0994,1.97,24.36255,48.843857,2.3533845,307.0968,NaN,,37.648388,,0 / 18,2299,2022-01-10 17:59:33:863
1.893321,-0.344267,9.847363,3.502236,-0.301911,9.154975,-1.056664,0.027989,0.34087,-0.04434,-1.672416,-0.013715,30.0,5.475,-9.6,-36.45,222.0805,1.8115,-8.0994,1.97,24.36255,48.843857,2.3533845,307.0968,NaN,,37.648388,,0 / 18,2305,2022-01-10 17:59:33:869
1.893321,-0.344267,9.847363,3.502236,-0.301911,9.154975,-1.056664,0.027989,0.34087,-0.04434,-1.672416,-0.013715,30.0,5.475,-9.6,-36.45,222.0805,1.8115,-8.0994,1.97,24.36255,48.843857,2.3533845,307.0968,NaN,,37.648388,,0 / 18,2309,2022-01-10 17:59:33:873
1.893321,-0.344267,9.847363,3.502236,-0.301911,9.154975,-1.056664,0.027989,0.34087,-0.04434,-1.672416,-0.013715,30.0,5.475,-9.6,-36.45,222.0805,1.8115,-8.0994,1.97,24.36255,48.843857,2.3533845,307.0968,NaN,,37.648388,,0 / 18,2315,2022-01-10 17:59:33:879
1.893321,-0.344267,9.847363,3.502236,-0.301911,9.154975,-1.056664,0.027989,0.34087,-0.04434,-1.672416,-0.013715,30.0,5.475,-9.6,-36.45,222.0805,1.8115,-8.0994,1.97,24.36255,48.843857,2.3533845,307.0968,NaN,,37.648388,,0 / 18,2320,2022-01-10 17:59:33:884
4.229913,-0.291625,8.839984,3.502236,-0.301911,9.154975,-1.056664,0.027989,0.34087,-0.04434,-1.672416,-0.013715,30.0,5.475,-9.6,-36.45,222.0805,1.8115,-8.0994,1.97,24.36255,48.843857,2.3533845,307.0968,NaN,,37.648388,,0 / 18,2325,2022-01-10 17:59:33:889
4.229913,-0.291625,8.839984,3.502236,-0.301911,9.154975,-1.056664,0.027989,0.34087,-0.04434,-1.672416,-0.013715,30.0,5.475,-9.6,-36.45,222.0805,1.8115,-8.0994,1.97,24.36255,48.843857,2.3533845,307.0968,NaN,,37.648388,,0 / 18,2329,2022-01-10 17:59:33:893
4.229913,-0.291625,8.839984,3.502236,-0.301911,9.154975,-1.056664,0.027989,0.34087,-0.04434,-1.672416,-0.013715,30.0,5.475,-9.6,-36.45,222.0805,1.8115,-8.0994,1.97,24.36255,48.843857,2.3533845,307.0968,NaN,,37.648388,,0 / 18,2335,2022-01-10 17:59:33:899
4.229913,-0.291625,8.839984,3.502236,-0.301911,9.154975,-1.056664,0.027989,0.34087,-0.04434,-1.672416,-0.013715,14.0,5.475,-9.6,-36.45,222.0805,1.8115,-8.0994,1.97,24.36255,48.843857,2.3533845,307.0968,NaN,,37.648388,,0 / 18,2340,2022-01-10 17:59:33:904
4.229913,-0.291625,8.839984,3.502236,-0.301911,9.154975,-1.056664,0.027989,0.34087,-6.66E-4,-2.406095,-0.019441,14.0,5.475,-9.6,-36.45,222.0805,1.8115,-8.0994,1.97,24.36255,48.843857,2.3533845,307.0968,NaN,,37.648388,,0 / 18,2345,2022-01-10 17:59:33:909
4.229913,-0.291625,8.839984,3.502236,-0.301911,9.154975,-1.056664,0.027989,0.34087,-6.66E-4,-2.406095,-0.019441,14.0,5.475,-9.6,-36.45,222.0805,1.8115,-8.0994,1.97,24.36255,48.843857,2.3533845,307.0968,NaN,,37.648388,,0 / 18,2350,2022-01-10 17:59:33:914
4.229913,-0.291625,8.839984,3.502236,-0.301911,9.154975,-1.056664,0.027989,0.34087,-6.66E-4,-2.406095,-0.019441,14.0,5.475,-9.6,-36.45,222.0805,1.8115,-8.0994,1.97,24.36255,48.843857,2.3533845,307.0968,NaN,,37.648388,,0 / 18,2354,2022-01-10 17:59:33:918
4.229913,-0.291625,8.839984,3.502236,-0.301911,9.154975,-1.056664,0.027989,0.34087,-6.66E-4,-2.406095,-0.019441,14.0,5.475,-9.6,-36.45,222.0805,1.8115,-8.0994,1.97,24.36255,48.843857,2.3533845,307.0968,NaN,,37.648388,,0 / 18,2360,2022-01-10 17:59:33:924
4.229913,-0.291625,8.839984,3.502236,-0.301911,9.154975,-1.056664,0.027989,0.34087,-6.66E-4,-2.406095,-0.019441,14.0,5.475,-9.6,-36.45,222.0805,1.8115,-8.0994,1.97,24.36255,48.843857,2.3533845,307.0968,NaN,,37.648388,,0 / 18,2364,2022-01-10 17:59:33:928
4.229913,-0.291625,8.839984,3.502236,-0.301911,9.154975,-1.390791,0.010762,0.581297,-6.66E-4,-2.406095,-0.019441,14.0,5.475,-9.6,-36.45,222.0805,1.8115,-8.0994,1.97,24.36255,48.843857,2.3533845,307.0968,NaN,,37.648388,,0 / 18,2369,2022-01-10 17:59:33:933
4.229913,-0.291625,8.839984,3.502236,-0.301911,9.154975,-1.390791,0.010762,0.581297,-6.66E-4,-2.406095,-0.019441,14.0,5.475,-9.6,-36.45,222.0805,1.8115,-8.0994,1.97,24.36255,48.843857,2.3533845,307.0968,NaN,,37.648388,,0 / 18,2375,2022-01-10 17:59:33:939
