ACCELEROMETER X (m/s²),ACCELEROMETER Y (m/s²),ACCELEROMETER Z (m/s²),GRAVITY X (m/s²),GRAVITY Y (m/s²),GRAVITY Z (m/s²),LINEAR ACCELERATION X (m/s²),LINEAR ACCELERATION Y (m/s²),LINEAR ACCELERATION Z (m/s²),GYROSCOPE X (rad/s),GYROSCOPE Y (rad/s),GYROSCOPE Z (rad/s),LIGHT (lux),MAGNETIC FIELD X (μT),MAGNETIC FIELD Y (μT),MAGNETIC FIELD Z (μT),ORIENTATION Z (azimuth °),ORIENTATION X (pitch °),ORIENTATION Y (roll °),PROXIMITY (i),SOUND LEVEL (dB),LOCATION Latitude : ,LOCATION Longitude : ,LOCATION Altitude ( m),LOCATION Altitude-google ( m),LOCATION Speed ( Kmh),LOCATION Accuracy ( m),LOCATION ORIENTATION (°),Satellites in range,Time since start in ms ,YYYY-MO-DD HH-MI-SS_SSS
-0.459123,1.732703,9.010174,-0.590378,1.464731,9.678658,0.073928,-0.048011,-0.665926,-0.142874,-0.003595,-0.17816,35.0,10.65,-25.8,-31.275,204.7755,-8.3049,2.2387,1.97,20.4763,48.843895,2.3533502,307.0968,NaN,,42.170967,,0 / 17,12,2022-01-10 17:26:47:836
-0.459123,1.732703,9.010174,-0.590378,1.464731,9.678658,0.073928,-0.048011,-0.665926,-0.142874,-0.003595,-0.17816,35.0,10.65,-25.8,-31.275,204.7755,-8.3049,2.2387,1.97,20.4763,48.843895,2.3533502,307.0968,NaN,,42.170967,,0 / 17,17,2022-01-10 17:26:47:841
-0.459123,1.732703,9.010174,-0.590378,1.464731,9.678658,0.073928,-0.048011,-0.665926,-0.142874,-0.003595,-0.17816,35.0,10.65,-25.8,-31.275,204.7755,-8.3049,2.2387,1.97,20.4763,48.843895,2.3533502,307.0968,NaN,,42.170967,,0 / 17,22,2022-01-10 17:26:47:846
-0.459123,1.732703,9.010174,-0.590378,1.464731,9.678658,0.073928,-0.048011,-0.665926,-0.142874,-0.003595,-0.17816,35.0,10.65,-25.8,-31.275,204.7755,-8.3049,2.2387,1.97,20.4763,48.843895,2.3533502,307.0968,NaN,,42.170967,,0 / 17,26,2022-01-10 17:26:47:850
-0.80997,1.361217,8.559725,-0.590378,1.464731,9.678658,0.073928,-0.048011,-0.665926,-0.142874,-0.003595,-0.17816,35.0,11.85,-25.875,-31.2,205.6877,-8.5899,3.4906,1.97,20.4763,48.843895,2.3533502,307.0968,NaN,,42.170967,,0 / 17,31,2022-01-10 17:26:47:855
-0.80997,1.361217,8.559725,-0.590378,1.464731,9.678658,0.073928,-0.048011,-0.665926,-0.142874,-0.003595,-0.17816,35.0,11.85,-25.875,-31.2,205.6877,-8.5899,3.4906,1.97,20.4763,48.843895,2.3533502,307.0968,NaN,,42.170967,,0 / 17,37,2022-01-10 17:26:47:861
-0.80997,1.361217,8.559725,-0.590378,1.464731,9.678658,0.073928,-0.048011,-0.665926,-0.142874,-0.003595,-0.17816,35.0,11.85,-25.875,-31.2,205.6877,-8.5899,3.4906,1.97,20.4763,48.843895,2.3533502,307.0968,NaN,,42.170967,,0 / 17,41,2022-01-10 17:26:47:865
-0.80997,1.361217,8.559725,-0.590378,1.464731,9.678658,0.073928,-0.048011,-0.665926,-0.142874,-0.003595,-0.17816,35.0,11.85,-25.875,-31.2,205.6877,-8.5899,3.4906,1.97,20.4763,48.843895,2.3533502,307.0968,NaN,,42.170967,,0 / 17,47,2022-01-10 17:26:47:871
-0.80997,1.361217,8.559725,-0.590378,1.464731,9.678658,0.073928,-0.048011,-0.665926,-0.142874,-0.003595,-0.17816,35.0,11.85,-25.875,-31.2,205.6877,-8.5899,3.4906,1.97,20.4763,48.843895,2.3533502,307.0968,NaN,,42.170967,,0 / 17,52,2022-01-10 17:26:47:876
-0.80997,1.361217,8.559725,-0.590378,1.464731,9.678658,0.073928,-0.048011,-0.665926,-0.142874,-0.003595,-0.17816,35.0,11.85,-25.875,-31.2,205.6877,-8.5899,3.4906,1.97,20.4763,48.843895,2.3533502,307.0968,NaN,,42.170967,,0 / 17,57,2022-01-10 17:26:47:881
-0.80997,1.361217,8.559725,-0.590378,1.464731,9.678658,0.073928,-0.048011,-0.665926,-0.142874,-0.003595,-0.17816,35.0,11.85,-25.875,-31.2,205.6877,-8.5899,3.4906,1.97,20.4763,48.843895,2.3533502,307.0968,NaN,,42.170967,,0 / 17,62,2022-01-10 17:26:47:886
-0.80997,1.361217,8.559725,-0.590378,1.464731,9.678658,0.073928,-0.048011,-0.665926,-0.142874,-0.003595,-0.17816,35.0,11.85,-25.875,-31.2,205.6877,-8.5899,3.4906,1.97,20.4763,48.843895,2.3533502,307.0968,NaN,,42.170967,,0 / 17,68,2022-01-10 17:26:47:892
-0.80997,1.361217,8.559725,-0.590378,1.464731,9.678658,0.073928,-0.048011,-0.665926,-0.142874,-0.003595,-0.17816,35.0,11.85,-25.875,-31.2,205.6877,-8.5899,3.4906,1.97,20.4763,48.843895,2.3533502,307.0968,NaN,,42.170967,,0 / 17,72,2022-01-10 17:26:47:896
-0.80997,1.361217,8.559725,-0.590378,1.464731,9.678658,0.073928,-0.048011,-0.665926,-0.142874,-0.003595,-0.17816,35.0,11.85,-25.875,-31.2,205.6877,-8.5899,3.4906,1.97,20.4763,48.843895,2.3533502,307.0968,NaN,,42.170967,,0 / 17,77,2022-01-10 17:26:47:901
-0.80997,1.361217,8.559725,-0.590378,1.464731,9.678658,0.073928,-0.048011,-0.665926,-0.142874,-0.003595,-0.17816,35.0,11.85,-25.875,-31.2,205.6877,-8.5899,3.4906,1.97,20.4763,48.843895,2.3533502,307.0968,NaN,,42.170967,,0 / 17,83,2022-01-10 17:26:47:907
-0.80997,1.361217,8.559725,-0.590378,1.464731,9.678658,0.073928,-0.048011,-0.665926,-0.142874,-0.003595,-0.17816,35.0,11.85,-25.875,-31.2,205.6877,-8.5899,3.4906,1.97,20.4763,48.843895,2.3533502,307.0968,NaN,,42.170967,,0 / 17,87,2022-01-10 17:26:47:911
-0.80997,1.361217,8.559725,-0.590378,1.464731,9.678658,0.073928,-0.048011,-0.665926,-0.142874,-0.003595,-0.17816,35.0,11.85,-25.875,-31.2,205.6877,-8.5899,3.4906,1.97,20.4763,48.843895,2.3533502,307.0968,NaN,,42.170967,,0 / 17,92,2022-01-10 17:26:47:916
-0.80997,1.361217,8.559725,-0.590378,1.464731,9.678658,0.073928,-0.048011,-0.665926,-0.142874,-0.003595,-0.17816,35.0,11.85,-25.875,-31.2,205.6877,-8.5899,3.4906,1.97,20.4763,48.843895,2.3533502,307.0968,NaN,,42.170967,,0 / 17,97,2022-01-10 17:26:47:921
-0.80997,1.361217,8.559725,-0.590378,1.464731,9.678658,0.073928,-0.048011,-0.665926,-0.142874,-0.003595,-0.17816,35.0,11.85,-25.875,-31.2,205.6877,-8.5899,3.4906,1.97,20.4763,48.843895,2.3533502,307.0968,NaN,,42.170967,,0 / 17,102,2022-01-10 17:26:47:926
-0.80997,1.361217,8.559725,-0.590378,1.464731,9.678658,0.073928,-0.048011,-0.665926,-0.142874,-0.003595,-0.17816,35.0,11.85,-25.875,-31.2,205.6877,-8.5899,3.4906,1.97,20.4763,48.843895,2.3533502,307.0968,NaN,,42.170967,,0 / 17,107,2022-01-10 17:26:47:931
-0.80997,1.361217,8.559725,-0.590378,1.464731,9.678658,0.073928,-0.048011,-0.665926,-0.142874,-0.003595,-0.17816,35.0,11.85,-25.875,-31.2,205.6877,-8.5899,3.4906,1.97,20.4763,48.843895,2.3533502,307.0968,NaN,,42.170967,,0 / 17,114,2022-01-10 17:26:47:938
-0.311665,2.078765,8.722735,-0.451854,1.393191,9.696661,-0.313295,0.051211,-0.164346,0.17097,-0.199465,-0.099866,35.0,11.85,-25.875,-31.2,205.6877,-8.5899,3.4906,1.97,20.4763,48.843895,2.3533502,307.0968,NaN,,42.170967,,0 / 17,120,2022-01-10 17:26:47:944
-0.311665,2.078765,8.722735,-0.451854,1.393191,9.696661,-0.313295,0.051211,-0.164346,0.17097,-0.199465,-0.099866,35.0,11.85,-25.875,-31.2,205.6877,-8.5899,3.4906,1.97,20.4763,48.843895,2.3533502,307.0968,NaN,,42.170967,,0 / 17,123,2022-01-10 17:26:47:947
-0.311665,2.078765,8.722735,-0.451854,1.393191,9.696661,-0.313295,0.051211,-0.164346,0.17097,-0.199465,-0.099866,35.0,11.85,-25.875,-31.2,205.6877,-8.5899,3.4906,1.97,20.4763,48.843895,2.3533502,307.0968,NaN,,42.170967,,0 / 17,128,2022-01-10 17:26:47:952
-0.311665,2.078765,8.722735,-0.451854,1.393191,9.696661,-0.313295,0.051211,-0.164346,0.17097,-0.199465,-0.099866,35.0,11.85,-25.875,-31.2,205.6877,-8.5899,3.4906,1.97,20.4763,48.843895,2.3533502,307.0968,NaN,,42.170967,,0 / 17,132,2022-01-10 17:26:47:956
-0.311665,2.078765,8.722735,-0.451854,1.393191,9.696661,-0.313295,0.051211,-0.164346,0.17097,-0.199465,-0.099866,35.0,11.85,-25.875,-31.2,205.6877,-8.5899,3.4906,1.97,20.4763,48.843895,2.3533502,307.0968,NaN,,42.170967,,0 / 17,137,2022-01-10 17:26:47:961
-0.311665,2.078765,8.722735,-0.451854,1.393191,9.696661,-0.313295,0.051211,-0.164346,0.17097,-0.199465,-0.099866,35.0,11.85,-25.875,-31.2,205.6877,-8.5899,3.4906,1.97,20.4763,48.843895,2.3533502,307.0968,NaN,,42.170967,,0 / 17,142,2022-01-10 17:26:47:966
-0.311665,2.078765,8.722735,-0.451854,1.393191,9.696661,-0.313295,0.051211,-0.164346,0.17097,-0.199465,-0.099866,35.0,11.85,-25.875,-31.2,205.6877,-8.5899,3.4906,1.97,20.4763,48.843895,2.3533502,307.0968,NaN,,42.170967,,0 / 17,147,2022-01-10 17:26:47:971
-0.311665,2.078765,8.722735,-0.451854,1.393191,9.696661,-0.313295,0.051211,-0.164346,0.17097,-0.199465,-0.099866,35.0,11.85,-25.875,-31.2,205.6877,-8.5899,3.4906,1.97,20.4763,48.843895,2.3533502,307.0968,NaN,,42.170967,,0 / 17,152,2022-01-10 17:26:47:976
-0.311665,2.078765,8.722735,-0.451854,1.393191,9.696661,-0.313295,0.051211,-0.164346,0.17097,-0.199465,-0.099866,35.0,11.85,-25.875,-31.2,205.6877,-8.5899,3.4906,1.97,20.4763,48.843895,2.3533502,307.0968,NaN,,42.170967,,0 / 17,158,2022-01-10 17:26:47:982
-0.311665,2.078765,8.722735,-0.451854,1.393191,9.696661,-0.313295,0.051211,-0.164346,0.17097,-0.199465,-0.099866,35.0,11.85,-25.875,-31.2,205.6877,-8.5899,3.4906,1.97,20.4763,48.843895,2.3533502,307.0968,NaN,,42.170967,,0 / 17,163,2022-01-10 17:26:47:987
-0.311665,2.078765,8.722735,-0.451854,1.393191,9.696661,-0.313295,0.051211,-0.164346,0.17097,-0.199465,-0.099866,35.0,11.85,-25.875,-31.2,205.6877,-8.5899,3.4906,1.97,20.4763,48.843895,2.3533502,307.0968,NaN,,42.170967,,0 / 17,167,2022-01-10 17:26:47:991
-0.311665,2.078765,8.722735,-0.451854,1.393191,9.696661,-0.313295,0.051211,-0.164346,0.17097,-0.199465,-0.099866,35.0,11.85,-25.875,-31.2,205.6877,-8.5899,3.4906,1.97,20.4763,48.843895,2.3533502,307.0968,NaN,,42.170967,,0 / 17,172,2022-01-10 17:26:47:996
-0.311665,2.078765,8.722735,-0.451854,1.393191,9.696661,-0.313295,0.051211,-0.164346,0.17097,-0.199465,-0.099866,35.0,11.85,-25.875,-31.2,205.6877,-8.5899,3.4906,1.97,20.4763,48.843895,2.3533502,307.0968,NaN,,42.170967,,0 / 17,178,2022-01-10 17:26:48:002
-0.311665,2.078765,8.722735,-0.451854,1.393191,9.696661,-0.313295,0.051211,-0.164346,0.17097,-0.199465,-0.099866,35.0,11.85,-25.875,-31.2,205.6877,-8.5899,3.4906,1.97,20.4763,48.843895,2.3533502,307.0968,NaN,,42.170967,,0 / 17,183,2022-01-10 17:26:48:007
-0.311665,2.078765,8.722735,-0.451854,1.393191,9.696661,-0.313295,0.051211,-0.164346,0.17097,-0.199465,-0.099866,35.0,11.85,-25.875,-31.2,205.6877,-8.5899,3.4906,1.97,20.4763,48.843895,2.3533502,307.0968,NaN,,42.170967,,0 / 17,187,2022-01-10 17:26:48:011
-0.311665,2.078765,8.722735,-0.451854,1.393191,9.696661,-0.313295,0.051211,-0.164346,0.17097,-0.199465,-0.099866,35.0,11.85,-25.875,-31.2,205.6877,-8.5899,3.4906,1.97,20.4763,48.843895,2.3533502,307.0968,NaN,,42.170967,,0 / 17,193,2022-01-10 17:26:48:017
-0.311665,2.078765,8.722735,-0.451854,1.393191,9.696661,-0.313295,0.051211,-0.164346,0.17097,-0.199465,-0.099866,35.0,11.85,-25.875,-31.2,205.6877,-8.5899,3.4906,1.97,20.4763,48.843895,2.3533502,307.0968,NaN,,42.170967,,0 / 17,196,2022-01-10 17:26:48:020
-0.311665,2.078765,8.722735,-0.451854,1.393191,9.696661,-0.313295,0.051211,-0.164346,0.17097,-0.199465,-0.099866,35.0,11.85,-25.875,-31.2,205.6877,-8.5899,3.4906,1.97,20.4763,48.843895,2.3533502,307.0968,NaN,,42.170967,,0 / 17,203,2022-01-10 17:26:48:027
-0.311665,2.078765,8.722735,-0.451854,1.393191,9.696661,-0.313295,0.051211,-0.164346,0.17097,-0.199465,-0.099866,35.0,11.85,-25.875,-31.2,205.6877,-8.5899,3.4906,1.97,20.4763,48.843895,2.3533502,307.0968,NaN,,42.170967,,0 / 17,208,2022-01-10 17:26:48:032
-0.311665,2.078765,8.722735,-0.451854,1.393191,9.696661,-0.313295,0.051211,-0.164346,0.17097,-0.199465,-0.099866,35.0,11.85,-25.875,-31.2,205.6877,-8.5899,3.4906,1.97,20.4763,48.843895,2.3533502,307.0968,NaN,,42.170967,,0 / 17,212,2022-01-10 17:26:48:036
-0.311665,2.078765,8.722735,-0.451854,1.393191,9.696661,-0.313295,0.051211,-0.164346,0.17097,-0.199465,-0.099866,35.0,11.85,-25.875,-31.2,205.6877,-8.5899,3.4906,1.97,20.4763,48.843895,2.3533502,307.0968,NaN,,42.170967,,0 / 17,217,2022-01-10 17:26:48:041
-0.311665,2.078765,8.722735,-0.451854,1.393191,9.696661,-0.313295,0.051211,-0.164346,0.17097,-0.199465,-0.099866,35.0,11.85,-25.875,-31.2,205.6877,-8.5899,3.4906,1.97,20.4763,48.843895,2.3533502,307.0968,NaN,,42.170967,,0 / 17,222,2022-01-10 17:26:48:046
-0.157328,1.485943,9.659226,-0.451854,1.393191,9.696661,-0.313295,0.051211,-0.164346,0.17097,-0.199465,-0.099866,35.0,12.15,-26.25,-31.125,206.3818,-8.1674,2.668,1.97,20.4763,48.843895,2.3533502,307.0968,NaN,,42.170967,,0 / 17,228,2022-01-10 17:26:48:052
-0.157328,1.485943,9.659226,-0.451854,1.393191,9.696661,-0.313295,0.051211,-0.164346,0.17097,-0.199465,-0.099866,35.0,12.15,-26.25,-31.125,206.3818,-8.1674,2.668,1.97,20.4763,48.843895,2.3533502,307.0968,NaN,,42.170967,,0 / 17,232,2022-01-10 17:26:48:056
-0.157328,1.485943,9.659226,-0.451854,1.393191,9.696661,-0.313295,0.051211,-0.164346,0.17097,-0.199465,-0.099866,35.0,12.15,-26.25,-31.125,206.3818,-8.1674,2.668,1.97,20.4763,48.843895,2.3533502,307.0968,NaN,,42.170967,,0 / 17,238,2022-01-10 17:26:48:062
-0.157328,1.485943,9.659226,-0.244277,1.421959,9.699936,-0.374741,-0.518048,0.800466,0.17097,-0.199465,-0.099866,35.0,12.15,-26.25,-31.125,206.3818,-8.1674,2.668,1.97,20.4763,48.843895,2.3533502,307.0968,NaN,,42.170967,,0 / 17,243,2022-01-10 17:26:48:067
-0.157328,1.485943,9.659226,-0.244277,1.421959,9.699936,-0.374741,-0.518048,0.800466,0.17097,-0.199465,-0.099866,35.0,12.15,-26.25,-31.125,206.3818,-8.1674,2.668,1.97,20.4763,48.843895,2.3533502,307.0968,NaN,,42.170967,,0 / 17,247,2022-01-10 17:26:48:071
-0.157328,1.485943,9.659226,-0.244277,1.421959,9.699936,-0.374741,-0.518048,0.800466,0.17097,-0.199465,-0.099866,35.0,12.15,-26.25,-31.125,206.3818,-8.1674,2.668,1.97,20.4763,48.843895,2.3533502,307.0968,NaN,,42.170967,,0 / 17,252,2022-01-10 17:26:48:076
-0.157328,1.485943,9.659226,-0.244277,1.421959,9.699936,-0.374741,-0.518048,0.800466,0.17097,-0.199465,-0.099866,35.0,12.15,-26.25,-31.125,206.3818,-8.1674,2.668,1.97,20.4763,48.843895,2.3533502,307.0968,NaN,,42.170967,,0 / 17,257,2022-01-10 17:26:48:081
-0.157328,1.485943,9.659226,-0.244277,1.421959,9.699936,-0.374741,-0.518048,0.800466,-0.203859,0.283352,0.041278,35.0,12.15,-26.25,-31.125,206.3818,-8.1674,2.668,1.97,20.4763,48.843895,2.3533502,307.0968,NaN,,42.170967,,0 / 17,262,2022-01-10 17:26:48:086
-0.157328,1.485943,9.659226,-0.244277,1.421959,9.699936,-0.374741,-0.518048,0.800466,-0.203859,0.283352,0.041278,35.0,12.15,-26.25,-31.125,206.3818,-8.1674,2.668,1.97,20.4763,48.843895,2.3533502,307.0968,NaN,,42.170967,,0 / 17,268,2022-01-10 17:26:48:092
-0.157328,1.485943,9.659226,-0.244277,1.421959,9.699936,-0.374741,-0.518048,0.800466,-0.203859,0.283352,0.041278,35.0,12.15,-26.25,-31.125,206.3818,-8.1674,2.668,1.97,20.4763,48.843895,2.3533502,307.0968,NaN,,42.170967,,0 / 17,271,2022-01-10 17:26:48:095
-0.157328,1.485943,9.659226,-0.244277,1.421959,9.699936,-0.374741,-0.518048,0.800466,-0.203859,0.283352,0.041278,35.0,12.15,-26.25,-31.125,206.3818,-8.1674,2.668,1.97,20.4763,48.843895,2.3533502,307.0968,NaN,,42.170967,,0 / 17,278,2022-01-10 17:26:48:102
-0.157328,1.485943,9.659226,-0.244277,1.421959,9.699936,-0.374741,-0.518048,0.800466,-0.203859,0.283352,0.041278,35.0,12.15,-26.25,-31.125,206.3818,-8.1674,2.668,1.97,20.4763,48.843895,2.3533502,307.0968,NaN,,42.170967,,0 / 17,282,2022-01-10 17:26:48:106
-0.157328,1.485943,9.659226,-0.244277,1.421959,9.699936,-0.374741,-0.518048,0.800466,-0.203859,0.283352,0.041278,35.0,12.15,-26.25,-31.125,206.3818,-8.1674,2.668,1.97,20.4763,48.843895,2.3533502,307.0968,NaN,,42.170967,,0 / 17,287,2022-01-10 17:26:48:111
-0.157328,1.485943,9.659226,-0.244277,1.421959,9.699936,-0.374741,-0.518048,0.800466,-0.203859,0.283352,0.041278,35.0,12.15,-26.25,-31.125,206.3818,-8.1674,2.668,1.97,20.4763,48.843895,2.3533502,307.0968,NaN,,42.170967,,0 / 17,293,2022-01-10 17:26:48:117
-0.157328,1.485943,9.659226,-0.244277,1.421959,9.699936,-0.374741,-0.518048,0.800466,-0.203859,0.283352,0.041278,35.0,12.15,-26.25,-31.125,206.3818,-8.1674,2.668,1.97,20.4763,48.843895,2.3533502,307.0968,NaN,,42.170967,,0 / 17,298,2022-01-10 17:26:48:122
-0.157328,1.485943,9.659226,-0.244277,1.421959,9.699936,-0.374741,-0.518048,0.800466,-0.203859,0.283352,0.041278,35.0,12.15,-26.25,-31.125,206.3818,-8.1674,2.668,1.97,20.4763,48.843895,2.3533502,307.0968,NaN,,42.170967,,0 / 17,302,2022-01-10 17:26:48:126
-0.157328,1.485943,9.659226,-0.244277,1.421959,9.699936,-0.374741,-0.518048,0.800466,-0.203859,0.283352,0.041278,35.0,12.15,-26.25,-31.125,206.3818,-8.1674,2.668,1.97,20.4763,48.843895,2.3533502,307.0968,NaN,,42.170967,,0 / 17,307,2022-01-10 17:26:48:131
-0.157328,1.485943,9.659226,-0.244277,1.421959,9.699936,-0.374741,-0.518048,0.800466,-0.203859,0.283352,0.041278,35.0,12.15,-26.25,-31.125,206.3818,-8.1674,2.668,1.97,20.4763,48.843895,2.3533502,307.0968,NaN,,42.170967,,0 / 17,312,2022-01-10 17:26:48:136
-0.157328,1.485943,9.659226,-0.244277,1.421959,9.699936,-0.374741,-0.518048,0.800466,-0.203859,0.283352,0.041278,35.0,12.15,-26.25,-31.125,206.3818,-8.1674,2.668,1.97,20.4763,48.843895,2.3533502,307.0968,NaN,,42.170967,,0 / 17,318,2022-01-10 17:26:48:142
-0.157328,1.485943,9.659226,-0.244277,1.421959,9.699936,-0.374741,-0.518048,0.800466,-0.203859,0.283352,0.041278,35.0,12.15,-26.25,-31.125,206.3818,-8.1674,2.668,1.97,23.72565,48.843895,2.3533502,307.0968,NaN,,42.170967,,0 / 17,324,2022-01-10 17:26:48:148
-1.023231,1.235594,8.989835,-0.244277,1.421959,9.699936,-0.374741,-0.518048,0.800466,-0.203859,0.283352,0.041278,35.0,12.15,-26.25,-31.125,206.3818,-8.1674,2.668,1.97,23.72565,48.843895,2.3533502,307.0968,NaN,,42.170967,,0 / 17,327,2022-01-10 17:26:48:151
-1.023231,1.235594,8.989835,-0.244277,1.421959,9.699936,-0.374741,-0.518048,0.800466,-0.203859,0.283352,0.041278,35.0,12.15,-26.25,-31.125,206.3818,-8.1674,2.668,1.97,23.72565,48.843895,2.3533502,307.0968,NaN,,42.170967,,0 / 17,332,2022-01-10 17:26:48:156
-1.023231,1.235594,8.989835,-0.244277,1.421959,9.699936,-0.374741,-0.518048,0.800466,-0.203859,0.283352,0.041278,35.0,12.15,-26.25,-31.125,206.3818,-8.1674,2.668,1.97,23.72565,48.843895,2.3533502,307.0968,NaN,,42.170967,,0 / 17,337,2022-01-10 17:26:48:161
-1.023231,1.235594,8.989835,-0.244277,1.421959,9.699936,-0.374741,-0.518048,0.800466,-0.203859,0.283352,0.041278,35.0,12.15,-26.25,-31.125,206.3818,-8.1674,2.668,1.97,23.72565,48.843895,2.3533502,307.0968,NaN,,42.170967,,0 / 17,343,2022-01-10 17:26:48:167
-1.023231,1.235594,8.989835,-0.244277,1.421959,9.699936,-0.374741,-0.518048,0.800466,-0.203859,0.283352,0.041278,35.0,12.15,-26.25,-31.125,206.3818,-8.1674,2.668,1.97,23.72565,48.843895,2.3533502,307.0968,NaN,,42.170967,,0 / 17,348,2022-01-10 17:26:48:172
-1.023231,1.235594,8.989835,-0.244277,1.421959,9.699936,-0.374741,-0.518048,0.800466,-0.203859,0.283352,0.041278,35.0,12.15,-26.25,-31.125,206.3818,-8.1674,2.668,1.97,23.72565,48.843895,2.3533502,307.0968,NaN,,42.170967,,0 / 17,351,2022-01-10 17:26:48:175
-1.023231,1.235594,8.989835,-0.762723,1.183513,9.705048,0.167432,-0.020082,-0.297082,-0.203859,0.283352,0.041278,35.0,12.15,-26.25,-31.125,206.3818,-8.1674,2.668,1.97,23.72565,48.843895,2.3533502,307.0968,NaN,,42.170967,,0 / 17,357,2022-01-10 17:26:48:181
-1.023231,1.235594,8.989835,-0.762723,1.183513,9.705048,0.167432,-0.020082,-0.297082,-0.203859,0.283352,0.041278,35.0,12.15,-26.25,-31.125,206.3818,-8.1674,2.668,1.97,23.72565,48.843895,2.3533502,307.0968,NaN,,42.170967,,0 / 17,363,2022-01-10 17:26:48:187
-1.023231,1.235594,8.989835,-0.762723,1.183513,9.705048,0.167432,-0.020082,-0.297082,-0.203859,0.283352,0.041278,35.0,12.15,-26.25,-31.125,206.3818,-8.1674,2.668,1.97,23.72565,48.843895,2.3533502,307.0968,NaN,,42.170967,,0 / 17,366,2022-01-10 17:26:48:190
-1.023231,1.235594,8.989835,-0.762723,1.183513,9.705048,0.167432,-0.020082,-0.297082,-0.203859,0.283352,0.041278,35.0,12.15,-26.25,-31.125,206.3818,-8.1674,2.668,1.97,23.72565,48.843895,2.3533502,307.0968,NaN,,42.170967,,0 / 17,372,2022-01-10 17:26:48:196
-1.023231,1.235594,8.989835,-0.762723,1.183513,9.705048,0.167432,-0.020082,-0.297082,-0.203859,0.283352,0.041278,35.0,12.15,-26.25,-31.125,206.3818,-8.1674,2.668,1.97,23.72565,48.843895,2.3533502,307.0968,NaN,,42.170967,,0 / 17,378,2022-01-10 17:26:48:202
-1.023231,1.235594,8.989835,-0.762723,1.183513,9.705048,0.167432,-0.020082,-0.297082,-0.203859,0.283352,0.041278,35.0,12.15,-26.25,-31.125,206.3818,-8.1674,2.668,1.97,23.72565,48.843895,2.3533502,307.0968,NaN,,42.170967,,0 / 17,382,2022-01-10 17:26:48:206
-1.023231,1.235594,8.989835,-0.762723,1.183513,9.705048,0.167432,-0.020082,-0.297082,-0.203859,0.283352,0.041278,35.0,12.15,-26.25,-31.125,206.3818,-8.1674,2.668,1.97,23.72565,48.843895,2.3533502,307.0968,NaN,,42.170967,,0 / 17,388,2022-01-10 17:26:48:212
-1.023231,1.235594,8.989835,-0.762723,1.183513,9.705048,0.167432,-0.020082,-0.297082,-0.365508,1.156044,0.054726,35.0,12.15,-26.25,-31.125,206.3818,-8.1674,2.668,1.97,23.72565,48.843895,2.3533502,307.0968,NaN,,42.170967,,0 / 17,392,2022-01-10 17:26:48:216
-1.023231,1.235594,8.989835,-0.762723,1.183513,9.705048,0.167432,-0.020082,-0.297082,-0.365508,1.156044,0.054726,35.0,12.15,-26.25,-31.125,206.3818,-8.1674,2.668,1.97,23.72565,48.843895,2.3533502,307.0968,NaN,,42.170967,,0 / 17,397,2022-01-10 17:26:48:221
-1.023231,1.235594,8.989835,-0.762723,1.183513,9.705048,0.167432,-0.020082,-0.297082,-0.365508,1.156044,0.054726,35.0,12.15,-26.25,-31.125,206.3818,-8.1674,2.668,1.97,23.72565,48.843895,2.3533502,307.0968,NaN,,42.170967,,0 / 17,402,2022-01-10 17:26:48:226
-1.023231,1.235594,8.989835,-0.762723,1.183513,9.705048,0.167432,-0.020082,-0.297082,-0.365508,1.156044,0.054726,35.0,12.15,-26.25,-31.125,206.3818,-8.1674,2.668,1.97,23.72565,48.843895,2.3533502,307.0968,NaN,,42.170967,,0 / 17,407,2022-01-10 17:26:48:231
-1.104587,0.155234,10.41506,-0.762723,1.183513,9.705048,0.167432,-0.020082,-0.297082,-0.365508,1.156044,0.054726,79.0,12.15,-26.25,-31.125,206.3818,-8.1674,2.668,1.97,23.72565,48.843895,2.3533502,307.0968,NaN,,42.170967,,0 / 17,413,2022-01-10 17:26:48:237
-1.104587,0.155234,10.41506,-0.762723,1.183513,9.705048,0.167432,-0.020082,-0.297082,-0.365508,1.156044,0.054726,79.0,12.15,-26.25,-31.125,206.3818,-8.1674,2.668,1.97,23.72565,48.843895,2.3533502,307.0968,NaN,,42.170967,,0 / 17,417,2022-01-10 17:26:48:241
-1.104587,0.155234,10.41506,-0.762723,1.183513,9.705048,0.167432,-0.020082,-0.297082,-0.365508,1.156044,0.054726,79.0,12.15,-26.25,-31.125,206.3818,-8.1674,2.668,1.97,23.72565,48.843895,2.3533502,307.0968,NaN,,42.170967,,0 / 17,422,2022-01-10 17:26:48:246
-1.104587,0.155234,10.41506,-0.762723,1.183513,9.705048,0.167432,-0.020082,-0.297082,-0.365508,1.156044,0.054726,79.0,12.15,-26.25,-31.125,206.3818,-8.1674,2.668,1.97,23.72565,48.843895,2.3533502,307.0968,NaN,,42.170967,,0 / 17,427,2022-01-10 17:26:48:251
-1.104587,0.155234,10.41506,-0.762723,1.183513,9.705048,0.167432,-0.020082,-0.297082,-0.365508,1.156044,0.054726,79.0,13.875,-26.475,-32.55,207.648,-6.9316,4.4937,1.97,23.72565,48.843895,2.3533502,307.0968,NaN,,42.170967,,0 / 17,432,2022-01-10 17:26:48:256
-1.104587,0.155234,10.41506,-0.762723,1.183513,9.705048,0.167432,-0.020082,-0.297082,-0.365508,1.156044,0.054726,79.0,13.875,-26.475,-32.55,207.648,-6.9316,4.4937,1.97,23.72565,48.843895,2.3533502,307.0968,NaN,,42.170967,,0 / 17,438,2022-01-10 17:26:48:262
-1.104587,0.155234,10.41506,-0.762723,1.183513,9.705048,0.167432,-0.020082,-0.297082,-0.365508,1.156044,0.054726,79.0,13.875,-26.475,-32.55,207.648,-6.9316,4.4937,1.97,23.72565,48.843895,2.3533502,307.0968,NaN,,42.170967,,0 / 17,443,2022-01-10 17:26:48:267
-1.104587,0.155234,10.41506,-0.762723,1.183513,9.705048,0.167432,-0.020082,-0.297082,-0.365508,1.156044,0.054726,79.0,13.875,-26.475,-32.55,207.648,-6.9316,4.4937,1.97,23.72565,48.843895,2.3533502,307.0968,NaN,,42.170967,,0 / 17,447,2022-01-10 17:26:48:271
-1.104587,0.155234,10.41506,-0.762723,1.183513,9.705048,0.167432,-0.020082,-0.297082,-0.365508,1.156044,0.054726,79.0,13.875,-26.475,-32.55,207.648,-6.9316,4.4937,1.97,23.72565,48.843895,2.3533502,307.0968,NaN,,42.170967,,0 / 17,452,2022-01-10 17:26:48:276
-1.104587,0.155234,10.41506,-0.762723,1.183513,9.705048,0.167432,-0.020082,-0.297082,-0.365508,1.156044,0.054726,79.0,13.875,-26.475,-32.55,207.648,-6.9316,4.4937,1.97,23.72565,48.843895,2.3533502,307.0968,NaN,,42.170967,,0 / 17,457,2022-01-10 17:26:48:281
-1.104587,0.155234,10.41506,-0.762723,1.183513,9.705048,0.167432,-0.020082,-0.297082,-0.365508,1.156044,0.054726,79.0,13.875,-26.475,-32.55,207.648,-6.9316,4.4937,1.97,23.72565,48.843895,2.3533502,307.0968,NaN,,42.170967,,0 / 17,462,2022-01-10 17:26:48:286
-1.104587,0.155234,10.41506,-0.762723,1.183513,9.705048,0.167432,-0.020082,-0.297082,-0.365508,1.156044,0.054726,79.0,13.875,-26.475,-32.55,207.648,-6.9316,4.4937,1.97,23.72565,48.843895,2.3533502,307.0968,NaN,,42.170967,,0 / 17,467,2022-01-10 17:26:48:291
-1.104587,0.155234,10.41506,-0.762723,1.183513,9.705048,0.167432,-0.020082,-0.297082,-0.365508,1.156044,0.054726,79.0,13.875,-26.475,-32.55,207.648,-6.9316,4.4937,1.97,23.72565,48.843895,2.3533502,307.0968,NaN,,42.170967,,0 / 17,472,2022-01-10 17:26:48:296
-1.104587,0.155234,10.41506,-0.762723,1.183513,9.705048,0.167432,-0.020082,-0.297082,-0.365508,1.156044,0.054726,79.0,13.875,-26.475,-32.55,207.648,-6.9316,4.4937,1.97,23.72565,48.843895,2.3533502,307.0968,NaN,,42.170967,,0 / 17,477,2022-01-10 17:26:48:301
-1.104587,0.155234,10.41506,-0.762723,1.183513,9.705048,0.167432,-0.020082,-0.297082,-0.365508,1.156044,0.054726,79.0,13.875,-26.475,-32.55,207.648,-6.9316,4.4937,1.97,23.72565,48.843895,2.3533502,307.0968,NaN,,42.170967,,0 / 17,483,2022-01-10 17:26:48:307
-1.104587,0.155234,10.41506,-0.762723,1.183513,9.705048,0.167432,-0.020082,-0.297082,-0.365508,1.156044,0.054726,79.0,13.875,-26.475,-32.55,207.648,-6.9316,4.4937,1.97,23.72565,48.843895,2.3533502,307.0968,NaN,,42.170967,,0 / 17,487,2022-01-10 17:26:48:311
-1.104587,0.155234,10.41506,-1.289706,0.980045,9.671947,0.268224,-0.624947,0.892908,-0.365508,1.156044,0.054726,79.0,13.875,-26.475,-32.55,207.648,-6.9316,4.4937,1.97,23.72565,48.843895,2.3533502,307.0968,NaN,,42.170967,,0 / 17,492,2022-01-10 17:26:48:316
-1.104587,0.155234,10.41506,-1.289706,0.980045,9.671947,0.268224,-0.624947,0.892908,-0.365508,1.156044,0.054726,79.0,13.875,-26.475,-32.55,207.648,-6.9316,4.4937,1.97,23.72565,48.843895,2.3533502,307.0968,NaN,,42.170967,,0 / 17,497,2022-01-10 17:26:48:321
-1.104587,0.155234,10.41506,-1.289706,0.980045,9.671947,0.268224,-0.624947,0.892908,-0.365508,1.156044,0.054726,79.0,13.875,-26.475,-32.55,207.648,-6.9316,4.4937,1.97,23.72565,48.843895,2.3533502,307.0968,NaN,,42.170967,,0 / 17,505,2022-01-10 17:26:48:329
-1.104587,0.155234,10.41506,-1.289706,0.980045,9.671947,0.268224,-0.624947,0.892908,-0.365508,1.156044,0.054726,79.0,13.875,-26.475,-32.55,207.648,-6.9316,4.4937,1.97,23.72565,48.843895,2.3533502,307.0968,NaN,,42.170967,,0 / 17,508,2022-01-10 17:26:48:332
-1.414756,0.861715,9.658031,-1.289706,0.980045,9.671947,0.268224,-0.624947,0.892908,0.286681,0.064047,0.049933,79.0,13.875,-26.475,-32.55,207.648,-6.9316,4.4937,1.97,23.72565,48.843895,2.3533502,307.0968,NaN,,42.170967,,0 / 17,571,2022-01-10 17:26:48:395
-1.414756,0.861715,9.658031,-1.289706,0.980045,9.671947,0.268224,-0.624947,0.892908,0.286681,0.064047,0.049933,79.0,13.875,-26.475,-32.55,207.648,-6.9316,4.4937,1.97,23.72565,48.843895,2.3533502,307.0968,NaN,,42.170967,,0 / 17,572,2022-01-10 17:26:48:396
-1.414756,0.861715,9.658031,-1.289706,0.980045,9.671947,0.268224,-0.624947,0.892908,0.286681,0.064047,0.049933,79.0,13.875,-26.475,-32.55,207.648,-6.9316,4.4937,1.97,23.72565,48.843895,2.3533502,307.0968,NaN,,42.170967,,0 / 17,573,2022-01-10 17:26:48:397
-1.414756,0.861715,9.658031,-1.289706,0.980045,9.671947,0.268224,-0.624947,0.892908,0.286681,0.064047,0.049933,79.0,13.875,-26.475,-32.55,207.648,-6.9316,4.4937,1.97,23.72565,48.843895,2.3533502,307.0968,NaN,,42.170967,,0 / 17,573,2022-01-10 17:26:48:397
-1.414756,0.861715,9.658031,-1.289706,0.980045,9.671947,0.268224,-0.624947,0.892908,0.286681,0.064047,0.049933,79.0,13.875,-26.475,-32.55,207.648,-6.9316,4.4937,1.97,23.72565,48.843895,2.3533502,307.0968,NaN,,42.170967,,0 / 17,574,2022-01-10 17:26:48:398
-1.414756,0.861715,9.658031,-1.289706,0.980045,9.671947,0.268224,-0.624947,0.892908,0.286681,0.064047,0.049933,79.0,13.875,-26.475,-32.55,207.648,-6.9316,4.4937,1.97,23.72565,48.843895,2.3533502,307.0968,NaN,,42.170967,,0 / 17,574,2022-01-10 17:26:48:398
-1.414756,0.861715,9.658031,-1.289706,0.980045,9.671947,0.268224,-0.624947,0.892908,0.286681,0.064047,0.049933,79.0,13.875,-26.475,-32.55,207.648,-6.9316,4.4937,1.97,23.72565,48.843895,2.3533502,307.0968,NaN,,42.170967,,0 / 17,574,2022-01-10 17:26:48:398
-1.414756,0.861715,9.658031,-1.289706,0.980045,9.671947,0.268224,-0.624947,0.892908,0.286681,0.064047,0.049933,79.0,13.875,-26.475,-32.55,207.648,-6.9316,4.4937,1.97,23.72565,48.843895,2.3533502,307.0968,NaN,,42.170967,,0 / 17,574,2022-01-10 17:26:48:398
-1.414756,0.861715,9.658031,-1.289706,0.980045,9.671947,0.268224,-0.624947,0.892908,0.286681,0.064047,0.049933,79.0,13.875,-26.475,-32.55,207.648,-6.9316,4.4937,1.97,23.72565,48.843895,2.3533502,307.0968,NaN,,42.170967,,0 / 17,575,2022-01-10 17:26:48:399
-1.414756,0.861715,9.658031,-1.289706,0.980045,9.671947,0.268224,-0.624947,0.892908,0.286681,0.064047,0.049933,79.0,13.875,-26.475,-32.55,207.648,-6.9316,4.4937,1.97,23.72565,48.843895,2.3533502,307.0968,NaN,,42.170967,,0 / 17,575,2022-01-10 17:26:48:399
-1.414756,0.861715,9.658031,-1.289706,0.980045,9.671947,0.268224,-0.624947,0.892908,0.286681,0.064047,0.049933,79.0,13.875,-26.475,-32.55,207.648,-6.9316,4.4937,1.97,23.72565,48.843895,2.3533502,307.0968,NaN,,42.170967,,0 / 17,575,2022-01-10 17:26:48:399
-1.414756,0.861715,9.658031,-1.289706,0.980045,9.671947,0.268224,-0.624947,0.892908,0.286681,0.064047,0.049933,79.0,13.875,-26.475,-32.55,207.648,-6.9316,4.4937,1.97,23.72565,48.843895,2.3533502,307.0968,NaN,,42.170967,,0 / 17,576,2022-01-10 17:26:48:400
-1.414756,0.861715,9.658031,-1.289706,0.980045,9.671947,0.268224,-0.624947,0.892908,0.286681,0.064047,0.049933,79.0,13.875,-26.475,-32.55,207.648,-6.9316,4.4937,1.97,23.72565,48.843895,2.3533502,307.0968,NaN,,42.170967,,0 / 17,576,2022-01-10 17:26:48:400
-1.414756,0.861715,9.658031,-1.289706,0.980045,9.671947,0.268224,-0.624947,0.892908,0.286681,0.064047,0.049933,79.0,13.875,-26.475,-32.55,207.648,-6.9316,4.4937,1.97,23.72565,48.843895,2.3533502,307.0968,NaN,,42.170967,,0 / 17,576,2022-01-10 17:26:48:400
-1.414756,0.861715,9.658031,-1.289706,0.980045,9.671947,0.268224,-0.624947,0.892908,0.286681,0.064047,0.049933,79.0,13.875,-26.475,-32.55,207.648,-6.9316,4.4937,1.97,23.72565,48.843895,2.3533502,307.0968,NaN,,42.170967,,0 / 17,583,2022-01-10 17:26:48:407
-1.414756,0.861715,9.658031,-1.289706,0.980045,9.671947,0.268224,-0.624947,0.892908,0.286681,0.064047,0.049933,79.0,13.875,-26.475,-32.55,207.648,-6.9316,4.4937,1.97,23.72565,48.843895,2.3533502,307.0968,NaN,,42.170967,,0 / 17,589,2022-01-10 17:26:48:413
-1.414756,0.861715,9.658031,-1.289706,0.980045,9.671947,0.268224,-0.624947,0.892908,0.286681,0.064047,0.049933,79.0,13.875,-26.475,-32.55,207.648,-6.9316,4.4937,1.97,23.72565,48.843895,2.3533502,307.0968,NaN,,42.170967,,0 / 17,592,2022-01-10 17:26:48:416
-1.414756,0.861715,9.658031,-1.455921,1.193863,9.624207,0.135065,-0.245007,0.037301,0.286681,0.064047,0.049933,79.0,13.875,-26.475,-32.55,207.648,-6.9316,4.4937,1.97,23.72565,48.843895,2.3533502,307.0968,NaN,,42.170967,,0 / 17,599,2022-01-10 17:26:48:423
-1.414756,0.861715,9.658031,-1.455921,1.193863,9.624207,0.135065,-0.245007,0.037301,0.286681,0.064047,0.049933,79.0,13.875,-26.475,-32.55,207.648,-6.9316,4.4937,1.97,23.72565,48.843895,2.3533502,307.0968,NaN,,42.170967,,0 / 17,602,2022-01-10 17:26:48:426
-1.414756,0.861715,9.658031,-1.455921,1.193863,9.624207,0.135065,-0.245007,0.037301,0.286681,0.064047,0.049933,79.0,13.875,-26.475,-32.55,207.648,-6.9316,4.4937,1.97,23.72565,48.843895,2.3533502,307.0968,NaN,,42.170967,,0 / 17,606,2022-01-10 17:26:48:430
-1.414756,0.861715,9.658031,-1.455921,1.193863,9.624207,0.135065,-0.245007,0.037301,0.286681,0.064047,0.049933,79.0,13.875,-26.475,-32.55,207.648,-6.9316,4.4937,1.97,23.72565,48.843895,2.3533502,307.0968,NaN,,42.170967,,0 / 17,611,2022-01-10 17:26:48:435
-1.414756,0.861715,9.658031,-1.455921,1.193863,9.624207,0.135065,-0.245007,0.037301,0.286681,0.064047,0.049933,79.0,13.875,-26.475,-32.55,207.648,-6.9316,4.4937,1.97,23.72565,48.843895,2.3533502,307.0968,NaN,,42.170967,,0 / 17,618,2022-01-10 17:26:48:442
-1.414756,0.861715,9.658031,-1.455921,1.193863,9.624207,0.135065,-0.245007,0.037301,0.286681,0.064047,0.049933,79.0,13.875,-26.475,-32.55,207.648,-6.9316,4.4937,1.97,23.72565,48.843895,2.3533502,307.0968,NaN,,42.170967,,0 / 17,621,2022-01-10 17:26:48:445
-1.414756,0.861715,9.658031,-1.455921,1.193863,9.624207,0.135065,-0.245007,0.037301,0.286681,0.064047,0.049933,79.0,13.875,-26.475,-32.55,207.648,-6.9316,4.4937,1.97,23.72565,48.843895,2.3533502,307.0968,NaN,,42.170967,,0 / 17,629,2022-01-10 17:26:48:453
-1.414756,0.861715,9.658031,-1.455921,1.193863,9.624207,0.135065,-0.245007,0.037301,0.286681,0.064047,0.049933,79.0,13.875,-26.475,-32.55,207.648,-6.9316,4.4937,1.97,23.72565,48.843895,2.3533502,307.0968,NaN,,42.170967,,0 / 17,631,2022-01-10 17:26:48:455
-1.529911,1.24038,9.864112,-1.455921,1.193863,9.624207,0.135065,-0.245007,0.037301,0.286681,0.064047,0.049933,79.0,16.65,-27.525,-34.575,206.4448,-6.9925,8.6023,1.97,23.72565,48.843895,2.3533502,307.0968,NaN,,42.170967,,0 / 17,636,2022-01-10 17:26:48:460
-1.529911,1.24038,9.864112,-1.455921,1.193863,9.624207,0.135065,-0.245007,0.037301,0.286681,0.064047,0.049933,79.0,16.65,-27.525,-34.575,206.4448,-6.9925,8.6023,1.97,23.72565,48.843895,2.3533502,307.0968,NaN,,42.170967,,0 / 17,642,2022-01-10 17:26:48:466
-1.529911,1.24038,9.864112,-1.455921,1.193863,9.624207,0.135065,-0.245007,0.037301,0.286681,0.064047,0.049933,79.0,16.65,-27.525,-34.575,206.4448,-6.9925,8.6023,1.97,23.72565,48.843895,2.3533502,307.0968,NaN,,42.170967,,0 / 17,647,2022-01-10 17:26:48:471
-1.529911,1.24038,9.864112,-1.455921,1.193863,9.624207,0.135065,-0.245007,0.037301,0.286681,0.064047,0.049933,79.0,16.65,-27.525,-34.575,206.4448,-6.9925,8.6023,1.97,23.72565,48.843895,2.3533502,307.0968,NaN,,42.170967,,0 / 17,651,2022-01-10 17:26:48:475
-1.529911,1.24038,9.864112,-1.455921,1.193863,9.624207,0.135065,-0.245007,0.037301,-7.99E-4,-0.287746,0.026098,79.0,16.65,-27.525,-34.575,206.4448,-6.9925,8.6023,1.97,20.52672,48.843895,2.3533502,307.0968,NaN,,42.170967,,0 / 17,657,2022-01-10 17:26:48:481
-1.529911,1.24038,9.864112,-1.455921,1.193863,9.624207,0.135065,-0.245007,0.037301,-7.99E-4,-0.287746,0.026098,79.0,16.65,-27.525,-34.575,206.4448,-6.9925,8.6023,1.97,20.52672,48.843895,2.3533502,307.0968,NaN,,42.170967,,0 / 17,662,2022-01-10 17:26:48:486
-1.529911,1.24038,9.864112,-1.455921,1.193863,9.624207,0.135065,-0.245007,0.037301,-7.99E-4,-0.287746,0.026098,79.0,16.65,-27.525,-34.575,206.4448,-6.9925,8.6023,1.97,20.52672,48.843895,2.3533502,307.0968,NaN,,42.170967,,0 / 17,666,2022-01-10 17:26:48:490
-1.529911,1.24038,9.864112,-1.455921,1.193863,9.624207,0.135065,-0.245007,0.037301,-7.99E-4,-0.287746,0.026098,79.0,16.65,-27.525,-34.575,206.4448,-6.9925,8.6023,1.97,20.52672,48.843895,2.3533502,307.0968,NaN,,42.170967,,0 / 17,672,2022-01-10 17:26:48:496
-1.529911,1.24038,9.864112,-1.455921,1.193863,9.624207,0.135065,-0.245007,0.037301,-7.99E-4,-0.287746,0.026098,79.0,16.65,-27.525,-34.575,206.4448,-6.9925,8.6023,1.97,20.52672,48.843895,2.3533502,307.0968,NaN,,42.170967,,0 / 17,677,2022-01-10 17:26:48:501
-1.529911,1.24038,9.864112,-1.455921,1.193863,9.624207,0.135065,-0.245007,0.037301,-7.99E-4,-0.287746,0.026098,79.0,16.65,-27.525,-34.575,206.4448,-6.9925,8.6023,1.97,20.52672,48.843895,2.3533502,307.0968,NaN,,42.170967,,0 / 17,682,2022-01-10 17:26:48:506
-1.529911,1.24038,9.864112,-1.455921,1.193863,9.624207,0.135065,-0.245007,0.037301,-7.99E-4,-0.287746,0.026098,79.0,16.65,-27.525,-34.575,206.4448,-6.9925,8.6023,1.97,20.52672,48.843895,2.3533502,307.0968,NaN,,42.170967,,0 / 17,686,2022-01-10 17:26:48:510
-1.529911,1.24038,9.864112,-1.455921,1.193863,9.624207,0.135065,-0.245007,0.037301,-7.99E-4,-0.287746,0.026098,79.0,16.65,-27.525,-34.575,206.4448,-6.9925,8.6023,1.97,20.52672,48.843895,2.3533502,307.0968,NaN,,42.170967,,0 / 17,692,2022-01-10 17:26:48:516
-1.529911,1.24038,9.864112,-1.455921,1.193863,9.624207,0.135065,-0.245007,0.037301,-7.99E-4,-0.287746,0.026098,79.0,16.65,-27.525,-34.575,206.4448,-6.9925,8.6023,1.97,20.52672,48.843895,2.3533502,307.0968,NaN,,42.170967,,0 / 17,696,2022-01-10 17:26:48:520
-1.529911,1.24038,9.864112,-1.455921,1.193863,9.624207,0.135065,-0.245007,0.037301,-7.99E-4,-0.287746,0.026098,79.0,16.65,-27.525,-34.575,206.4448,-6.9925,8.6023,1.97,20.52672,48.843895,2.3533502,307.0968,NaN,,42.170967,,0 / 17,702,2022-01-10 17:26:48:526
-1.529911,1.24038,9.864112,-1.455921,1.193863,9.624207,0.135065,-0.245007,0.037301,-7.99E-4,-0.287746,0.026098,79.0,16.65,-27.525,-34.575,206.4448,-6.9925,8.6023,1.97,20.52672,48.843895,2.3533502,307.0968,NaN,,42.170967,,0 / 17,707,2022-01-10 17:26:48:531
-1.529911,1.24038,9.864112,-1.455921,1.193863,9.624207,0.135065,-0.245007,0.037301,-7.99E-4,-0.287746,0.026098,79.0,16.65,-27.525,-34.575,206.4448,-6.9925,8.6023,1.97,20.52672,48.843895,2.3533502,307.0968,NaN,,42.170967,,0 / 17,711,2022-01-10 17:26:48:535
-1.529911,1.24038,9.864112,-1.455921,1.193863,9.624207,0.135065,-0.245007,0.037301,-7.99E-4,-0.287746,0.026098,79.0,16.65,-27.525,-34.575,206.4448,-6.9925,8.6023,1.97,20.52672,48.843895,2.3533502,307.0968,NaN,,42.170967,,0 / 17,717,2022-01-10 17:26:48:541
-1.319043,0.994816,9.787542,-1.216424,1.122443,9.665962,-0.169096,0.009258,0.331118,-7.99E-4,-0.287746,0.026098,79.0,16.65,-27.525,-34.575,206.4448,-6.9925,8.6023,1.97,20.52672,48.843895,2.3533502,307.0968,NaN,,42.170967,,0 / 17,722,2022-01-10 17:26:48:546
-1.319043,0.994816,9.787542,-1.216424,1.122443,9.665962,-0.169096,0.009258,0.331118,-7.99E-4,-0.287746,0.026098,79.0,16.65,-27.525,-34.575,206.4448,-6.9925,8.6023,1.97,20.52672,48.843895,2.3533502,307.0968,NaN,,42.170967,,0 / 17,727,2022-01-10 17:26:48:551
-1.319043,0.994816,9.787542,-1.216424,1.122443,9.665962,-0.169096,0.009258,0.331118,-7.99E-4,-0.287746,0.026098,79.0,16.65,-27.525,-34.575,206.4448,-6.9925,8.6023,1.97,20.52672,48.843895,2.3533502,307.0968,NaN,,42.170967,,0 / 17,732,2022-01-10 17:26:48:556
-1.319043,0.994816,9.787542,-1.216424,1.122443,9.665962,-0.169096,0.009258,0.331118,-7.99E-4,-0.287746,0.026098,79.0,16.65,-27.525,-34.575,206.4448,-6.9925,8.6023,1.97,20.52672,48.843895,2.3533502,307.0968,NaN,,42.170967,,0 / 17,736,2022-01-10 17:26:48:560
-1.319043,0.994816,9.787542,-1.216424,1.122443,9.665962,-0.169096,0.009258,0.331118,-7.99E-4,-0.287746,0.026098,79.0,16.65,-27.525,-34.575,206.4448,-6.9925,8.6023,1.97,20.52672,48.843895,2.3533502,307.0968,NaN,,42.170967,,0 / 17,743,2022-01-10 17:26:48:567
-1.319043,0.994816,9.787542,-1.216424,1.122443,9.665962,-0.169096,0.009258,0.331118,-7.99E-4,-0.287746,0.026098,79.0,16.65,-27.525,-34.575,206.4448,-6.9925,8.6023,1.97,20.52672,48.843895,2.3533502,307.0968,NaN,,42.170967,,0 / 17,747,2022-01-10 17:26:48:571
-1.319043,0.994816,9.787542,-1.216424,1.122443,9.665962,-0.169096,0.009258,0.331118,-7.99E-4,-0.287746,0.026098,79.0,16.65,-27.525,-34.575,206.4448,-6.9925,8.6023,1.97,20.52672,48.843895,2.3533502,307.0968,NaN,,42.170967,,0 / 17,752,2022-01-10 17:26:48:576
-1.319043,0.994816,9.787542,-1.216424,1.122443,9.665962,-0.169096,0.009258,0.331118,-7.99E-4,-0.287746,0.026098,79.0,16.65,-27.525,-34.575,206.4448,-6.9925,8.6023,1.97,20.52672,48.843895,2.3533502,307.0968,NaN,,42.170967,,0 / 17,757,2022-01-10 17:26:48:581
-1.319043,0.994816,9.787542,-1.216424,1.122443,9.665962,-0.169096,0.009258,0.331118,-7.99E-4,-0.287746,0.026098,79.0,16.65,-27.525,-34.575,206.4448,-6.9925,8.6023,1.97,20.52672,48.843895,2.3533502,307.0968,NaN,,42.170967,,0 / 17,762,2022-01-10 17:26:48:586
-1.319043,0.994816,9.787542,-1.216424,1.122443,9.665962,-0.169096,0.009258,0.331118,-7.99E-4,-0.287746,0.026098,79.0,16.65,-27.525,-34.575,206.4448,-6.9925,8.6023,1.97,20.52672,48.843895,2.3533502,307.0968,NaN,,42.170967,,0 / 17,768,2022-01-10 17:26:48:592
-1.319043,0.994816,9.787542,-1.216424,1.122443,9.665962,-0.169096,0.009258,0.331118,-7.99E-4,-0.287746,0.026098,79.0,16.65,-27.525,-34.575,206.4448,-6.9925,8.6023,1.97,20.52672,48.843895,2.3533502,307.0968,NaN,,42.170967,,0 / 17,772,2022-01-10 17:26:48:596
-1.319043,0.994816,9.787542,-1.216424,1.122443,9.665962,-0.169096,0.009258,0.331118,-7.99E-4,-0.287746,0.026098,79.0,16.65,-27.525,-34.575,206.4448,-6.9925,8.6023,1.97,20.52672,48.843895,2.3533502,307.0968,NaN,,42.170967,,0 / 17,777,2022-01-10 17:26:48:601
-1.319043,0.994816,9.787542,-1.216424,1.122443,9.665962,-0.169096,0.009258,0.331118,-7.99E-4,-0.287746,0.026098,79.0,16.65,-27.525,-34.575,206.4448,-6.9925,8.6023,1.97,20.52672,48.843895,2.3533502,307.0968,NaN,,42.170967,,0 / 17,782,2022-01-10 17:26:48:606
-1.319043,0.994816,9.787542,-1.216424,1.122443,9.665962,-0.169096,0.009258,0.331118,-7.99E-4,-0.287746,0.026098,79.0,16.65,-27.525,-34.575,206.4448,-6.9925,8.6023,1.97,20.52672,48.843895,2.3533502,307.0968,NaN,,42.170967,,0 / 17,787,2022-01-10 17:26:48:611
-1.319043,0.994816,9.787542,-1.216424,1.122443,9.665962,-0.169096,0.009258,0.331118,-0.026365,-0.06165,0.006924,79.0,16.65,-27.525,-34.575,206.4448,-6.9925,8.6023,1.97,20.52672,48.843895,2.3533502,307.0968,NaN,,42.170967,,0 / 17,792,2022-01-10 17:26:48:616
-1.319043,0.994816,9.787542,-1.216424,1.122443,9.665962,-0.169096,0.009258,0.331118,-0.026365,-0.06165,0.006924,79.0,16.65,-27.525,-34.575,206.4448,-6.9925,8.6023,1.97,20.52672,48.843895,2.3533502,307.0968,NaN,,42.170967,,0 / 17,797,2022-01-10 17:26:48:621
-1.319043,0.994816,9.787542,-1.216424,1.122443,9.665962,-0.169096,0.009258,0.331118,-0.026365,-0.06165,0.006924,79.0,16.65,-27.525,-34.575,206.4448,-6.9925,8.6023,1.97,20.52672,48.843895,2.3533502,307.0968,NaN,,42.170967,,0 / 17,802,2022-01-10 17:26:48:626
-1.319043,0.994816,9.787542,-1.216424,1.122443,9.665962,-0.169096,0.009258,0.331118,-0.026365,-0.06165,0.006924,79.0,16.65,-27.525,-34.575,206.4448,-6.9925,8.6023,1.97,20.52672,48.843895,2.3533502,307.0968,NaN,,42.170967,,0 / 17,807,2022-01-10 17:26:48:631
-1.319043,0.994816,9.787542,-1.216424,1.122443,9.665962,-0.169096,0.009258,0.331118,-0.026365,-0.06165,0.006924,79.0,16.65,-27.525,-34.575,206.4448,-6.9925,8.6023,1.97,20.52672,48.843895,2.3533502,307.0968,NaN,,42.170967,,0 / 17,812,2022-01-10 17:26:48:636
-1.319043,0.994816,9.787542,-1.216424,1.122443,9.665962,-0.169096,0.009258,0.331118,-0.026365,-0.06165,0.006924,79.0,16.65,-27.525,-34.575,206.4448,-6.9925,8.6023,1.97,20.52672,48.843895,2.3533502,307.0968,NaN,,42.170967,,0 / 17,817,2022-01-10 17:26:48:641
-1.319043,0.994816,9.787542,-1.216424,1.122443,9.665962,-0.169096,0.009258,0.331118,-0.026365,-0.06165,0.006924,79.0,16.65,-27.525,-34.575,206.4448,-6.9925,8.6023,1.97,20.52672,48.843895,2.3533502,307.0968,NaN,,42.170967,,0 / 17,822,2022-01-10 17:26:48:646
-1.319043,0.994816,9.787542,-1.216424,1.122443,9.665962,-0.169096,0.009258,0.331118,-0.026365,-0.06165,0.006924,79.0,16.65,-27.525,-34.575,206.4448,-6.9925,8.6023,1.97,20.52672,48.843895,2.3533502,307.0968,NaN,,42.170967,,0 / 17,827,2022-01-10 17:26:48:651
-1.298704,0.859322,9.557532,-1.216424,1.122443,9.665962,-0.169096,0.009258,0.331118,-0.026365,-0.06165,0.006924,79.0,17.925,-27.225,-34.875,210.8417,-6.5723,7.1727,1.97,20.52672,48.843895,2.3533502,307.0968,NaN,,42.170967,,0 / 17,832,2022-01-10 17:26:48:656
-1.298704,0.859322,9.557532,-1.216424,1.122443,9.665962,-0.169096,0.009258,0.331118,-0.026365,-0.06165,0.006924,79.0,17.925,-27.225,-34.875,210.8417,-6.5723,7.1727,1.97,20.52672,48.843895,2.3533502,307.0968,NaN,,42.170967,,0 / 17,843,2022-01-10 17:26:48:667
-1.298704,0.859322,9.557532,-1.216424,1.122443,9.665962,-0.169096,0.009258,0.331118,-0.026365,-0.06165,0.006924,79.0,17.925,-27.225,-34.875,210.8417,-6.5723,7.1727,1.97,20.52672,48.843895,2.3533502,307.0968,NaN,,42.170967,,0 / 17,844,2022-01-10 17:26:48:668
-1.298704,0.859322,9.557532,-1.216424,1.122443,9.665962,-0.169096,0.009258,0.331118,-0.026365,-0.06165,0.006924,79.0,17.925,-27.225,-34.875,210.8417,-6.5723,7.1727,1.97,20.52672,48.843895,2.3533502,307.0968,NaN,,42.170967,,0 / 17,847,2022-01-10 17:26:48:671
-1.298704,0.859322,9.557532,-1.216424,1.122443,9.665962,-0.169096,0.009258,0.331118,-0.026365,-0.06165,0.006924,79.0,17.925,-27.225,-34.875,210.8417,-6.5723,7.1727,1.97,20.52672,48.843895,2.3533502,307.0968,NaN,,42.170967,,0 / 17,851,2022-01-10 17:26:48:675
-1.298704,0.859322,9.557532,-1.216424,1.122443,9.665962,-0.169096,0.009258,0.331118,-0.026365,-0.06165,0.006924,79.0,17.925,-27.225,-34.875,210.8417,-6.5723,7.1727,1.97,20.52672,48.843895,2.3533502,307.0968,NaN,,42.170967,,0 / 17,857,2022-01-10 17:26:48:681
-1.298704,0.859322,9.557532,-1.17642,1.060002,9.677956,0.083698,-0.058466,0.036039,-0.026365,-0.06165,0.006924,79.0,17.925,-27.225,-34.875,210.8417,-6.5723,7.1727,1.97,20.52672,48.843895,2.3533502,307.0968,NaN,,42.170967,,0 / 17,861,2022-01-10 17:26:48:685
-1.298704,0.859322,9.557532,-1.17642,1.060002,9.677956,0.083698,-0.058466,0.036039,-0.026365,-0.06165,0.006924,79.0,17.925,-27.225,-34.875,210.8417,-6.5723,7.1727,1.97,20.52672,48.843895,2.3533502,307.0968,NaN,,42.170967,,0 / 17,867,2022-01-10 17:26:48:691
-1.298704,0.859322,9.557532,-1.17642,1.060002,9.677956,0.083698,-0.058466,0.036039,-0.026365,-0.06165,0.006924,79.0,17.925,-27.225,-34.875,210.8417,-6.5723,7.1727,1.97,20.52672,48.843895,2.3533502,307.0968,NaN,,42.170967,,0 / 17,872,2022-01-10 17:26:48:696
-1.298704,0.859322,9.557532,-1.17642,1.060002,9.677956,0.083698,-0.058466,0.036039,-0.026365,-0.06165,0.006924,79.0,17.925,-27.225,-34.875,210.8417,-6.5723,7.1727,1.97,20.52672,48.843895,2.3533502,307.0968,NaN,,42.170967,,0 / 17,877,2022-01-10 17:26:48:701
-1.298704,0.859322,9.557532,-1.17642,1.060002,9.677956,0.083698,-0.058466,0.036039,-0.026365,-0.06165,0.006924,79.0,17.925,-27.225,-34.875,210.8417,-6.5723,7.1727,1.97,20.52672,48.843895,2.3533502,307.0968,NaN,,42.170967,,0 / 17,881,2022-01-10 17:26:48:705
-1.298704,0.859322,9.557532,-1.17642,1.060002,9.677956,0.083698,-0.058466,0.036039,-0.026365,-0.06165,0.006924,79.0,17.925,-27.225,-34.875,210.8417,-6.5723,7.1727,1.97,20.52672,48.843895,2.3533502,307.0968,NaN,,42.170967,,0 / 17,887,2022-01-10 17:26:48:711
-1.298704,0.859322,9.557532,-1.17642,1.060002,9.677956,0.083698,-0.058466,0.036039,-0.026365,-0.06165,0.006924,79.0,17.925,-27.225,-34.875,210.8417,-6.5723,7.1727,1.97,20.52672,48.843895,2.3533502,307.0968,NaN,,42.170967,,0 / 17,892,2022-01-10 17:26:48:716
-1.298704,0.859322,9.557532,-1.17642,1.060002,9.677956,0.083698,-0.058466,0.036039,-0.026365,-0.06165,0.006924,79.0,17.925,-27.225,-34.875,210.8417,-6.5723,7.1727,1.97,20.52672,48.843895,2.3533502,307.0968,NaN,,42.170967,,0 / 17,898,2022-01-10 17:26:48:722
-1.298704,0.859322,9.557532,-1.17642,1.060002,9.677956,0.083698,-0.058466,0.036039,-0.026365,-0.06165,0.006924,79.0,17.925,-27.225,-34.875,210.8417,-6.5723,7.1727,1.97,20.52672,48.843895,2.3533502,307.0968,NaN,,42.170967,,0 / 17,902,2022-01-10 17:26:48:726
-1.298704,0.859322,9.557532,-1.17642,1.060002,9.677956,0.083698,-0.058466,0.036039,-0.026365,-0.06165,0.006924,79.0,17.925,-27.225,-34.875,210.8417,-6.5723,7.1727,1.97,20.52672,48.843895,2.3533502,307.0968,NaN,,42.170967,,0 / 17,907,2022-01-10 17:26:48:731
-1.298704,0.859322,9.557532,-1.17642,1.060002,9.677956,0.083698,-0.058466,0.036039,-0.026365,-0.06165,0.006924,79.0,17.925,-27.225,-34.875,210.8417,-6.5723,7.1727,1.97,20.52672,48.843895,2.3533502,307.0968,NaN,,42.170967,,0 / 17,913,2022-01-10 17:26:48:737
-1.298704,0.859322,9.557532,-1.17642,1.060002,9.677956,0.083698,-0.058466,0.036039,-0.026365,-0.06165,0.006924,79.0,17.925,-27.225,-34.875,210.8417,-6.5723,7.1727,1.97,20.52672,48.843895,2.3533502,307.0968,NaN,,42.170967,,0 / 17,917,2022-01-10 17:26:48:741
-1.298704,0.859322,9.557532,-1.17642,1.060002,9.677956,0.083698,-0.058466,0.036039,0.033688,0.040878,-0.021438,79.0,17.925,-27.225,-34.875,210.8417,-6.5723,7.1727,1.97,20.52672,48.843895,2.3533502,307.0968,NaN,,42.170967,,0 / 17,921,2022-01-10 17:26:48:745
-1.262812,0.850948,9.41157,-1.17642,1.060002,9.677956,0.083698,-0.058466,0.036039,0.033688,0.040878,-0.021438,79.0,17.925,-27.225,-34.875,210.8417,-6.5723,7.1727,1.97,20.52672,48.843895,2.3533502,307.0968,NaN,,42.170967,,0 / 17,927,2022-01-10 17:26:48:751
-1.262812,0.850948,9.41157,-1.17642,1.060002,9.677956,0.083698,-0.058466,0.036039,0.033688,0.040878,-0.021438,79.0,17.925,-27.225,-34.875,210.8417,-6.5723,7.1727,1.97,20.52672,48.843895,2.3533502,307.0968,NaN,,42.170967,,0 / 17,932,2022-01-10 17:26:48:756
-1.262812,0.850948,9.41157,-1.17642,1.060002,9.677956,0.083698,-0.058466,0.036039,0.033688,0.040878,-0.021438,79.0,17.925,-27.225,-34.875,210.8417,-6.5723,7.1727,1.97,20.52672,48.843895,2.3533502,307.0968,NaN,,42.170967,,0 / 17,937,2022-01-10 17:26:48:761
-1.262812,0.850948,9.41157,-1.17642,1.060002,9.677956,0.083698,-0.058466,0.036039,0.033688,0.040878,-0.021438,79.0,17.925,-27.225,-34.875,210.8417,-6.5723,7.1727,1.97,20.52672,48.843895,2.3533502,307.0968,NaN,,42.170967,,0 / 17,941,2022-01-10 17:26:48:765
-1.262812,0.850948,9.41157,-1.17642,1.060002,9.677956,0.083698,-0.058466,0.036039,0.033688,0.040878,-0.021438,79.0,17.925,-27.225,-34.875,210.8417,-6.5723,7.1727,1.97,20.52672,48.843895,2.3533502,307.0968,NaN,,42.170967,,0 / 17,947,2022-01-10 17:26:48:771
-1.262812,0.850948,9.41157,-1.17642,1.060002,9.677956,0.083698,-0.058466,0.036039,0.033688,0.040878,-0.021438,79.0,17.925,-27.225,-34.875,210.8417,-6.5723,7.1727,1.97,20.52672,48.843895,2.3533502,307.0968,NaN,,42.170967,,0 / 17,951,2022-01-10 17:26:48:775
-1.262812,0.850948,9.41157,-1.17642,1.060002,9.677956,0.083698,-0.058466,0.036039,0.033688,0.040878,-0.021438,79.0,17.925,-27.225,-34.875,210.8417,-6.5723,7.1727,1.97,20.52672,48.843895,2.3533502,307.0968,NaN,,42.170967,,0 / 17,957,2022-01-10 17:26:48:781
-1.262812,0.850948,9.41157,-1.17642,1.060002,9.677956,0.083698,-0.058466,0.036039,0.033688,0.040878,-0.021438,79.0,17.925,-27.225,-34.875,210.8417,-6.5723,7.1727,1.97,20.52672,48.843895,2.3533502,307.0968,NaN,,42.170967,,0 / 17,962,2022-01-10 17:26:48:786
-1.262812,0.850948,9.41157,-1.17642,1.060002,9.677956,0.083698,-0.058466,0.036039,0.033688,0.040878,-0.021438,79.0,17.925,-27.225,-34.875,210.8417,-6.5723,7.1727,1.97,20.52672,48.843895,2.3533502,307.0968,NaN,,42.170967,,0 / 17,967,2022-01-10 17:26:48:791
-1.262812,0.850948,9.41157,-1.225009,1.021883,9.676027,0.073802,-0.123981,0.115654,0.033688,0.040878,-0.021438,79.0,17.925,-27.225,-34.875,210.8417,-6.5723,7.1727,1.97,20.03848,48.843895,2.3533502,307.0968,NaN,,42.170967,,0 / 17,972,2022-01-10 17:26:48:796
-1.262812,0.850948,9.41157,-1.225009,1.021883,9.676027,0.073802,-0.123981,0.115654,0.033688,0.040878,-0.021438,79.0,17.925,-27.225,-34.875,210.8417,-6.5723,7.1727,1.97,20.03848,48.843895,2.3533502,307.0968,NaN,,42.170967,,0 / 17,976,2022-01-10 17:26:48:800
-1.262812,0.850948,9.41157,-1.225009,1.021883,9.676027,0.073802,-0.123981,0.115654,0.033688,0.040878,-0.021438,79.0,17.925,-27.225,-34.875,210.8417,-6.5723,7.1727,1.97,20.03848,48.843895,2.3533502,307.0968,NaN,,42.170967,,0 / 17,982,2022-01-10 17:26:48:806
-1.262812,0.850948,9.41157,-1.225009,1.021883,9.676027,0.073802,-0.123981,0.115654,0.033688,0.040878,-0.021438,79.0,17.925,-27.225,-34.875,210.8417,-6.5723,7.1727,1.97,20.03848,48.843895,2.3533502,307.0968,NaN,,42.170967,,0 / 17,986,2022-01-10 17:26:48:810
-1.262812,0.850948,9.41157,-1.225009,1.021883,9.676027,0.073802,-0.123981,0.115654,0.033688,0.040878,-0.021438,79.0,17.925,-27.225,-34.875,210.8417,-6.5723,7.1727,1.97,20.03848,48.843895,2.3533502,307.0968,NaN,,42.170967,,0 / 17,991,2022-01-10 17:26:48:815
-1.262812,0.850948,9.41157,-1.225009,1.021883,9.676027,0.073802,-0.123981,0.115654,0.033688,0.040878,-0.021438,79.0,17.925,-27.225,-34.875,210.8417,-6.5723,7.1727,1.97,20.03848,48.843895,2.3533502,307.0968,NaN,,42.170967,,0 / 17,997,2022-01-10 17:26:48:821
-1.262812,0.850948,9.41157,-1.225009,1.021883,9.676027,0.073802,-0.123981,0.115654,0.033688,0.040878,-0.021438,79.0,17.925,-27.225,-34.875,210.8417,-6.5723,7.1727,1.97,20.03848,48.843895,2.3533502,307.0968,NaN,,42.170967,,0 / 17,1003,2022-01-10 17:26:48:827
-1.262812,0.850948,9.41157,-1.225009,1.021883,9.676027,0.073802,-0.123981,0.115654,0.033688,0.040878,-0.021438,79.0,17.925,-27.225,-34.875,210.8417,-6.5723,7.1727,1.97,20.03848,48.843895,2.3533502,307.0968,NaN,,42.170967,,0 / 17,1006,2022-01-10 17:26:48:830
-1.262812,0.850948,9.41157,-1.225009,1.021883,9.676027,0.073802,-0.123981,0.115654,0.033688,0.040878,-0.021438,79.0,17.925,-27.225,-34.875,210.8417,-6.5723,7.1727,1.97,20.03848,48.843895,2.3533502,307.0968,NaN,,42.170967,,0 / 17,1012,2022-01-10 17:26:48:836
-1.262812,0.850948,9.41157,-1.225009,1.021883,9.676027,0.073802,-0.123981,0.115654,0.033688,0.040878,-0.021438,79.0,17.925,-27.225,-34.875,210.8417,-6.5723,7.1727,1.97,20.03848,48.843895,2.3533502,307.0968,NaN,,42.170967,,0 / 17,1016,2022-01-10 17:26:48:840
-1.262812,0.850948,9.41157,-1.225009,1.021883,9.676027,0.073802,-0.123981,0.115654,0.033688,0.040878,-0.021438,79.0,17.925,-27.225,-34.875,210.8417,-6.5723,7.1727,1.97,20.03848,48.843895,2.3533502,307.0968,NaN,,42.170967,,0 / 17,1022,2022-01-10 17:26:48:846
-1.262812,0.850948,9.41157,-1.225009,1.021883,9.676027,0.073802,-0.123981,0.115654,0.033688,0.040878,-0.021438,79.0,17.925,-27.225,-34.875,210.8417,-6.5723,7.1727,1.97,20.03848,48.843895,2.3533502,307.0968,NaN,,42.170967,,0 / 17,1028,2022-01-10 17:26:48:852
-1.308276,0.852144,9.503694,-1.225009,1.021883,9.676027,0.073802,-0.123981,0.115654,0.033688,0.040878,-0.021438,79.0,18.6,-27.0,-35.1,212.1615,-5.9813,7.2154,1.97,20.03848,48.843895,2.3533502,307.0968,NaN,,42.170967,,0 / 17,1031,2022-01-10 17:26:48:855
-1.308276,0.852144,9.503694,-1.225009,1.021883,9.676027,0.073802,-0.123981,0.115654,0.033688,0.040878,-0.021438,79.0,18.6,-27.0,-35.1,212.1615,-5.9813,7.2154,1.97,20.03848,48.843895,2.3533502,307.0968,NaN,,42.170967,,0 / 17,1038,2022-01-10 17:26:48:862
-1.308276,0.852144,9.503694,-1.225009,1.021883,9.676027,0.073802,-0.123981,0.115654,0.033688,0.040878,-0.021438,79.0,18.6,-27.0,-35.1,212.1615,-5.9813,7.2154,1.97,20.03848,48.843895,2.3533502,307.0968,NaN,,42.170967,,0 / 17,1041,2022-01-10 17:26:48:865
-1.308276,0.852144,9.503694,-1.225009,1.021883,9.676027,0.073802,-0.123981,0.115654,0.033688,0.040878,-0.021438,79.0,18.6,-27.0,-35.1,212.1615,-5.9813,7.2154,1.97,20.03848,48.843895,2.3533502,307.0968,NaN,,42.170967,,0 / 17,1047,2022-01-10 17:26:48:871
-1.308276,0.852144,9.503694,-1.225009,1.021883,9.676027,0.073802,-0.123981,0.115654,0.033688,0.040878,-0.021438,79.0,18.6,-27.0,-35.1,212.1615,-5.9813,7.2154,1.97,20.03848,48.843895,2.3533502,307.0968,NaN,,42.170967,,0 / 17,1052,2022-01-10 17:26:48:876
-1.308276,0.852144,9.503694,-1.225009,1.021883,9.676027,0.073802,-0.123981,0.115654,-0.017709,0.13848,-0.002397,79.0,18.6,-27.0,-35.1,212.1615,-5.9813,7.2154,1.97,20.03848,48.843895,2.3533502,307.0968,NaN,,42.170967,,0 / 17,1058,2022-01-10 17:26:48:882
-1.308276,0.852144,9.503694,-1.225009,1.021883,9.676027,0.073802,-0.123981,0.115654,-0.017709,0.13848,-0.002397,79.0,18.6,-27.0,-35.1,212.1615,-5.9813,7.2154,1.97,20.03848,48.843895,2.3533502,307.0968,NaN,,42.170967,,0 / 17,1063,2022-01-10 17:26:48:887
-1.308276,0.852144,9.503694,-1.225009,1.021883,9.676027,0.073802,-0.123981,0.115654,-0.017709,0.13848,-0.002397,79.0,18.6,-27.0,-35.1,212.1615,-5.9813,7.2154,1.97,20.03848,48.843895,2.3533502,307.0968,NaN,,42.170967,,0 / 17,1066,2022-01-10 17:26:48:890
-1.308276,0.852144,9.503694,-1.225009,1.021883,9.676027,0.073802,-0.123981,0.115654,-0.017709,0.13848,-0.002397,79.0,18.6,-27.0,-35.1,212.1615,-5.9813,7.2154,1.97,20.03848,48.843895,2.3533502,307.0968,NaN,,42.170967,,0 / 17,1072,2022-01-10 17:26:48:896
-1.308276,0.852144,9.503694,-1.225009,1.021883,9.676027,0.073802,-0.123981,0.115654,-0.017709,0.13848,-0.002397,79.0,18.6,-27.0,-35.1,212.1615,-5.9813,7.2154,1.97,20.03848,48.843895,2.3533502,307.0968,NaN,,42.170967,,0 / 17,1076,2022-01-10 17:26:48:900
-1.308276,0.852144,9.503694,-1.225009,1.021883,9.676027,0.073802,-0.123981,0.115654,-0.017709,0.13848,-0.002397,79.0,18.6,-27.0,-35.1,212.1615,-5.9813,7.2154,1.97,20.03848,48.843895,2.3533502,307.0968,NaN,,42.170967,,0 / 17,1082,2022-01-10 17:26:48:906
-1.308276,0.852144,9.503694,-1.3878,0.95865,9.660506,0.066927,-0.074645,-0.002516,-0.017709,0.13848,-0.002397,79.0,18.6,-27.0,-35.1,212.1615,-5.9813,7.2154,1.97,20.03848,48.843895,2.3533502,307.0968,NaN,,42.170967,,0 / 17,1086,2022-01-10 17:26:48:910
-1.308276,0.852144,9.503694,-1.3878,0.95865,9.660506,0.066927,-0.074645,-0.002516,-0.017709,0.13848,-0.002397,79.0,18.6,-27.0,-35.1,212.1615,-5.9813,7.2154,1.97,20.03848,48.843895,2.3533502,307.0968,NaN,,42.170967,,0 / 17,1091,2022-01-10 17:26:48:915
-1.308276,0.852144,9.503694,-1.3878,0.95865,9.660506,0.066927,-0.074645,-0.002516,-0.017709,0.13848,-0.002397,79.0,18.6,-27.0,-35.1,212.1615,-5.9813,7.2154,1.97,20.03848,48.843895,2.3533502,307.0968,NaN,,42.170967,,0 / 17,1097,2022-01-10 17:26:48:921
-1.308276,0.852144,9.503694,-1.3878,0.95865,9.660506,0.066927,-0.074645,-0.002516,-0.017709,0.13848,-0.002397,79.0,18.6,-27.0,-35.1,212.1615,-5.9813,7.2154,1.97,20.03848,48.843895,2.3533502,307.0968,NaN,,42.170967,,0 / 17,1102,2022-01-10 17:26:48:926
-1.308276,0.852144,9.503694,-1.3878,0.95865,9.660506,0.066927,-0.074645,-0.002516,-0.017709,0.13848,-0.002397,79.0,18.6,-27.0,-35.1,212.1615,-5.9813,7.2154,1.97,20.03848,48.843895,2.3533502,307.0968,NaN,,42.170967,,0 / 17,1106,2022-01-10 17:26:48:930
-1.308276,0.852144,9.503694,-1.3878,0.95865,9.660506,0.066927,-0.074645,-0.002516,-0.017709,0.13848,-0.002397,79.0,18.6,-27.0,-35.1,212.1615,-5.9813,7.2154,1.97,20.03848,48.843895,2.3533502,307.0968,NaN,,42.170967,,0 / 17,1112,2022-01-10 17:26:48:936
-1.308276,0.852144,9.503694,-1.3878,0.95865,9.660506,0.066927,-0.074645,-0.002516,-0.017709,0.13848,-0.002397,79.0,18.6,-27.0,-35.1,212.1615,-5.9813,7.2154,1.97,20.03848,48.843895,2.3533502,307.0968,NaN,,42.170967,,0 / 17,1117,2022-01-10 17:26:48:941
-1.308276,0.852144,9.503694,-1.3878,0.95865,9.660506,0.066927,-0.074645,-0.002516,-0.017709,0.13848,-0.002397,79.0,18.6,-27.0,-35.1,212.1615,-5.9813,7.2154,1.97,20.03848,48.843895,2.3533502,307.0968,NaN,,42.170967,,0 / 17,1122,2022-01-10 17:26:48:946
-1.437787,0.905085,9.492926,-1.3878,0.95865,9.660506,0.066927,-0.074645,-0.002516,-0.017709,0.13848,-0.002397,79.0,18.6,-27.0,-35.1,212.1615,-5.9813,7.2154,1.97,20.03848,48.843895,2.3533502,307.0968,NaN,,42.170967,,0 / 17,1126,2022-01-10 17:26:48:950
-1.437787,0.905085,9.492926,-1.3878,0.95865,9.660506,0.066927,-0.074645,-0.002516,-0.017709,0.13848,-0.002397,79.0,18.6,-27.0,-35.1,212.1615,-5.9813,7.2154,1.97,20.03848,48.843895,2.3533502,307.0968,NaN,,42.170967,,0 / 17,1131,2022-01-10 17:26:48:955
-1.437787,0.905085,9.492926,-1.3878,0.95865,9.660506,0.066927,-0.074645,-0.002516,-0.017709,0.13848,-0.002397,79.0,18.6,-27.0,-35.1,212.1615,-5.9813,7.2154,1.97,20.03848,48.843895,2.3533502,307.0968,NaN,,42.170967,,0 / 17,1137,2022-01-10 17:26:48:961
-1.437787,0.905085,9.492926,-1.3878,0.95865,9.660506,0.066927,-0.074645,-0.002516,-0.017709,0.13848,-0.002397,79.0,18.6,-27.0,-35.1,212.1615,-5.9813,7.2154,1.97,20.03848,48.843895,2.3533502,307.0968,NaN,,42.170967,,0 / 17,1141,2022-01-10 17:26:48:965
-1.437787,0.905085,9.492926,-1.3878,0.95865,9.660506,0.066927,-0.074645,-0.002516,-0.017709,0.13848,-0.002397,79.0,18.6,-27.0,-35.1,212.1615,-5.9813,7.2154,1.97,20.03848,48.843895,2.3533502,307.0968,NaN,,42.170967,,0 / 17,1148,2022-01-10 17:26:48:972
-1.437787,0.905085,9.492926,-1.3878,0.95865,9.660506,0.066927,-0.074645,-0.002516,-0.017709,0.13848,-0.002397,79.0,18.6,-27.0,-35.1,212.1615,-5.9813,7.2154,1.97,20.03848,48.843895,2.3533502,307.0968,NaN,,42.170967,,0 / 17,1151,2022-01-10 17:26:48:975
-1.437787,0.905085,9.492926,-1.3878,0.95865,9.660506,0.066927,-0.074645,-0.002516,-0.017709,0.13848,-0.002397,79.0,18.6,-27.0,-35.1,212.1615,-5.9813,7.2154,1.97,20.03848,48.843895,2.3533502,307.0968,NaN,,42.170967,,0 / 17,1157,2022-01-10 17:26:48:981
-1.437787,0.905085,9.492926,-1.3878,0.95865,9.660506,0.066927,-0.074645,-0.002516,-0.017709,0.13848,-0.002397,79.0,18.6,-27.0,-35.1,212.1615,-5.9813,7.2154,1.97,20.03848,48.843895,2.3533502,307.0968,NaN,,42.170967,,0 / 17,1161,2022-01-10 17:26:48:985
-1.437787,0.905085,9.492926,-1.3878,0.95865,9.660506,0.066927,-0.074645,-0.002516,-0.017709,0.13848,-0.002397,79.0,18.6,-27.0,-35.1,212.1615,-5.9813,7.2154,1.97,20.03848,48.843895,2.3533502,307.0968,NaN,,42.170967,,0 / 17,1167,2022-01-10 17:26:48:991
-1.437787,0.905085,9.492926,-1.3878,0.95865,9.660506,0.066927,-0.074645,-0.002516,-0.017709,0.13848,-0.002397,79.0,18.6,-27.0,-35.1,212.1615,-5.9813,7.2154,1.97,20.03848,48.843895,2.3533502,307.0968,NaN,,42.170967,,0 / 17,1172,2022-01-10 17:26:48:996
-1.437787,0.905085,9.492926,-1.3878,0.95865,9.660506,0.066927,-0.074645,-0.002516,-0.017709,0.13848,-0.002397,79.0,18.6,-27.0,-35.1,212.1615,-5.9813,7.2154,1.97,20.03848,48.843895,2.3533502,307.0968,NaN,,42.170967,,0 / 17,1177,2022-01-10 17:26:49:001
-1.437787,0.905085,9.492926,-1.3878,0.95865,9.660506,0.066927,-0.074645,-0.002516,-0.017709,0.13848,-0.002397,79.0,18.6,-27.0,-35.1,212.1615,-5.9813,7.2154,1.97,20.03848,48.843895,2.3533502,307.0968,NaN,,42.170967,,0 / 17,1182,2022-01-10 17:26:49:006
-1.437787,0.905085,9.492926,-1.3878,0.95865,9.660506,0.066927,-0.074645,-0.002516,-0.017709,0.13848,-0.002397,79.0,18.6,-27.0,-35.1,212.1615,-5.9813,7.2154,1.97,20.03848,48.843895,2.3533502,307.0968,NaN,,42.170967,,0 / 17,1186,2022-01-10 17:26:49:010
-1.437787,0.905085,9.492926,-1.3878,0.95865,9.660506,0.066927,-0.074645,-0.002516,-0.066977,-0.067775,0.011984,79.0,18.6,-27.0,-35.1,212.1615,-5.9813,7.2154,1.97,20.03848,48.843895,2.3533502,307.0968,NaN,,42.170967,,0 / 17,1192,2022-01-10 17:26:49:016
-1.437787,0.905085,9.492926,-1.3878,0.95865,9.660506,0.066927,-0.074645,-0.002516,-0.066977,-0.067775,0.011984,79.0,18.6,-27.0,-35.1,212.1615,-5.9813,7.2154,1.97,20.03848,48.843895,2.3533502,307.0968,NaN,,42.170967,,0 / 17,1196,2022-01-10 17:26:49:020
-1.437787,0.905085,9.492926,-1.3878,0.95865,9.660506,0.066927,-0.074645,-0.002516,-0.066977,-0.067775,0.011984,79.0,18.6,-27.0,-35.1,212.1615,-5.9813,7.2154,1.97,20.03848,48.843895,2.3533502,307.0968,NaN,,42.170967,,0 / 17,1202,2022-01-10 17:26:49:026
-1.437787,0.905085,9.492926,-1.3878,0.95865,9.660506,0.066927,-0.074645,-0.002516,-0.066977,-0.067775,0.011984,79.0,18.6,-27.0,-35.1,212.1615,-5.9813,7.2154,1.97,20.03848,48.843895,2.3533502,307.0968,NaN,,42.170967,,0 / 17,1207,2022-01-10 17:26:49:031
-1.437787,0.905085,9.492926,-1.3878,0.95865,9.660506,0.066927,-0.074645,-0.002516,-0.066977,-0.067775,0.011984,79.0,18.6,-27.0,-35.1,212.1615,-5.9813,7.2154,1.97,20.03848,48.843895,2.3533502,307.0968,NaN,,42.170967,,0 / 17,1211,2022-01-10 17:26:49:035
-1.437787,0.905085,9.492926,-1.3878,0.95865,9.660506,0.066927,-0.074645,-0.002516,-0.066977,-0.067775,0.011984,79.0,18.6,-27.0,-35.1,212.1615,-5.9813,7.2154,1.97,20.03848,48.843895,2.3533502,307.0968,NaN,,42.170967,,0 / 17,1219,2022-01-10 17:26:49:043
-1.308276,0.926621,9.267701,-1.3878,0.95865,9.660506,0.066927,-0.074645,-0.002516,-0.066977,-0.067775,0.011984,79.0,18.6,-27.0,-35.1,212.1615,-5.9813,7.2154,1.97,20.03848,48.843895,2.3533502,307.0968,NaN,,42.170967,,0 / 17,1222,2022-01-10 17:26:49:046
-1.308276,0.926621,9.267701,-1.380421,0.875811,9.669424,-0.056001,0.007747,-0.155127,-0.066977,-0.067775,0.011984,79.0,18.6,-27.0,-35.1,212.1615,-5.9813,7.2154,1.97,20.03848,48.843895,2.3533502,307.0968,NaN,,42.170967,,0 / 17,1227,2022-01-10 17:26:49:051
-1.308276,0.926621,9.267701,-1.380421,0.875811,9.669424,-0.056001,0.007747,-0.155127,-0.066977,-0.067775,0.011984,79.0,18.525,-26.475,-35.325,211.568,-5.1238,8.1247,1.97,20.03848,48.843895,2.3533502,307.0968,NaN,,42.170967,,0 / 17,1231,2022-01-10 17:26:49:055
-1.308276,0.926621,9.267701,-1.380421,0.875811,9.669424,-0.056001,0.007747,-0.155127,-0.066977,-0.067775,0.011984,79.0,18.525,-26.475,-35.325,211.568,-5.1238,8.1247,1.97,20.03848,48.843895,2.3533502,307.0968,NaN,,42.170967,,0 / 17,1237,2022-01-10 17:26:49:061
-1.308276,0.926621,9.267701,-1.380421,0.875811,9.669424,-0.056001,0.007747,-0.155127,-0.066977,-0.067775,0.011984,79.0,18.525,-26.475,-35.325,211.568,-5.1238,8.1247,1.97,20.03848,48.843895,2.3533502,307.0968,NaN,,42.170967,,0 / 17,1242,2022-01-10 17:26:49:066
-1.308276,0.926621,9.267701,-1.380421,0.875811,9.669424,-0.056001,0.007747,-0.155127,-0.066977,-0.067775,0.011984,79.0,18.525,-26.475,-35.325,211.568,-5.1238,8.1247,1.97,20.03848,48.843895,2.3533502,307.0968,NaN,,42.170967,,0 / 17,1246,2022-01-10 17:26:49:070
-1.308276,0.926621,9.267701,-1.380421,0.875811,9.669424,-0.056001,0.007747,-0.155127,-0.066977,-0.067775,0.011984,79.0,18.525,-26.475,-35.325,211.568,-5.1238,8.1247,1.97,20.03848,48.843895,2.3533502,307.0968,NaN,,42.170967,,0 / 17,1253,2022-01-10 17:26:49:077
-1.308276,0.926621,9.267701,-1.380421,0.875811,9.669424,-0.056001,0.007747,-0.155127,-0.066977,-0.067775,0.011984,79.0,18.525,-26.475,-35.325,211.568,-5.1238,8.1247,1.97,20.03848,48.843895,2.3533502,307.0968,NaN,,42.170967,,0 / 17,1257,2022-01-10 17:26:49:081
-1.308276,0.926621,9.267701,-1.380421,0.875811,9.669424,-0.056001,0.007747,-0.155127,-0.066977,-0.067775,0.011984,79.0,18.525,-26.475,-35.325,211.568,-5.1238,8.1247,1.97,20.03848,48.843895,2.3533502,307.0968,NaN,,42.170967,,0 / 17,1262,2022-01-10 17:26:49:086
-1.308276,0.926621,9.267701,-1.380421,0.875811,9.669424,-0.056001,0.007747,-0.155127,-0.066977,-0.067775,0.011984,79.0,18.525,-26.475,-35.325,211.568,-5.1238,8.1247,1.97,20.03848,48.843895,2.3533502,307.0968,NaN,,42.170967,,0 / 17,1267,2022-01-10 17:26:49:091
-1.308276,0.926621,9.267701,-1.380421,0.875811,9.669424,-0.056001,0.007747,-0.155127,-0.066977,-0.067775,0.011984,79.0,18.525,-26.475,-35.325,211.568,-5.1238,8.1247,1.97,20.03848,48.843895,2.3533502,307.0968,NaN,,42.170967,,0 / 17,1271,2022-01-10 17:26:49:095
-1.308276,0.926621,9.267701,-1.380421,0.875811,9.669424,-0.056001,0.007747,-0.155127,-0.066977,-0.067775,0.011984,79.0,18.525,-26.475,-35.325,211.568,-5.1238,8.1247,1.97,20.03848,48.843895,2.3533502,307.0968,NaN,,42.170967,,0 / 17,1277,2022-01-10 17:26:49:101
-1.308276,0.926621,9.267701,-1.380421,0.875811,9.669424,-0.056001,0.007747,-0.155127,-0.066977,-0.067775,0.011984,79.0,18.525,-26.475,-35.325,211.568,-5.1238,8.1247,1.97,20.03848,48.843895,2.3533502,307.0968,NaN,,42.170967,,0 / 17,1282,2022-01-10 17:26:49:106
-1.308276,0.926621,9.267701,-1.380421,0.875811,9.669424,-0.056001,0.007747,-0.155127,-0.066977,-0.067775,0.011984,79.0,18.525,-26.475,-35.325,211.568,-5.1238,8.1247,1.97,20.03848,48.843895,2.3533502,307.0968,NaN,,42.170967,,0 / 17,1287,2022-01-10 17:26:49:111
-1.308276,0.926621,9.267701,-1.380421,0.875811,9.669424,-0.056001,0.007747,-0.155127,-0.066977,-0.067775,0.011984,79.0,18.525,-26.475,-35.325,211.568,-5.1238,8.1247,1.97,27.88063,48.843895,2.3533502,307.0968,NaN,,42.170967,,0 / 17,1292,2022-01-10 17:26:49:116
-1.308276,0.926621,9.267701,-1.380421,0.875811,9.669424,-0.056001,0.007747,-0.155127,-0.066977,-0.067775,0.011984,79.0,18.525,-26.475,-35.325,211.568,-5.1238,8.1247,1.97,27.88063,48.843895,2.3533502,307.0968,NaN,,42.170967,,0 / 17,1297,2022-01-10 17:26:49:121
-1.308276,0.926621,9.267701,-1.380421,0.875811,9.669424,-0.056001,0.007747,-0.155127,-0.066977,-0.067775,0.011984,79.0,18.525,-26.475,-35.325,211.568,-5.1238,8.1247,1.97,27.88063,48.843895,2.3533502,307.0968,NaN,,42.170967,,0 / 17,1301,2022-01-10 17:26:49:125
-1.308276,0.926621,9.267701,-1.380421,0.875811,9.669424,-0.056001,0.007747,-0.155127,-0.066977,-0.067775,0.011984,79.0,18.525,-26.475,-35.325,211.568,-5.1238,8.1247,1.97,27.88063,48.843895,2.3533502,307.0968,NaN,,42.170967,,0 / 17,1306,2022-01-10 17:26:49:130
-1.308276,0.926621,9.267701,-1.380421,0.875811,9.669424,-0.056001,0.007747,-0.155127,-0.066977,-0.067775,0.011984,79.0,18.525,-26.475,-35.325,211.568,-5.1238,8.1247,1.97,27.88063,48.843895,2.3533502,307.0968,NaN,,42.170967,,0 / 17,1312,2022-01-10 17:26:49:136
-1.308276,0.926621,9.267701,-1.380421,0.875811,9.669424,-0.056001,0.007747,-0.155127,-0.066977,-0.067775,0.011984,79.0,18.525,-26.475,-35.325,211.568,-5.1238,8.1247,1.97,27.88063,48.843895,2.3533502,307.0968,NaN,,42.170967,,0 / 17,1317,2022-01-10 17:26:49:141
-1.307079,1.187737,9.48455,-1.380421,0.875811,9.669424,-0.056001,0.007747,-0.155127,0.027696,0.024367,-0.024767,79.0,18.525,-26.475,-35.325,211.568,-5.1238,8.1247,1.97,27.88063,48.843895,2.3533502,307.0968,NaN,,42.170967,,0 / 17,1321,2022-01-10 17:26:49:145
-1.307079,1.187737,9.48455,-1.380421,0.875811,9.669424,-0.056001,0.007747,-0.155127,0.027696,0.024367,-0.024767,79.0,18.525,-26.475,-35.325,211.568,-5.1238,8.1247,1.97,27.88063,48.843895,2.3533502,307.0968,NaN,,42.170967,,0 / 17,1326,2022-01-10 17:26:49:150
-1.307079,1.187737,9.48455,-1.380421,0.875811,9.669424,-0.056001,0.007747,-0.155127,0.027696,0.024367,-0.024767,79.0,18.525,-26.475,-35.325,211.568,-5.1238,8.1247,1.97,27.88063,48.843895,2.3533502,307.0968,NaN,,42.170967,,0 / 17,1331,2022-01-10 17:26:49:155
-1.307079,1.187737,9.48455,-1.335675,0.883825,9.674979,0.012967,0.220111,-0.167165,0.027696,0.024367,-0.024767,79.0,18.525,-26.475,-35.325,211.568,-5.1238,8.1247,1.97,27.88063,48.843895,2.3533502,307.0968,NaN,,42.170967,,0 / 17,1337,2022-01-10 17:26:49:161
-1.307079,1.187737,9.48455,-1.335675,0.883825,9.674979,0.012967,0.220111,-0.167165,0.027696,0.024367,-0.024767,79.0,18.525,-26.475,-35.325,211.568,-5.1238,8.1247,1.97,27.88063,48.843895,2.3533502,307.0968,NaN,,42.170967,,0 / 17,1343,2022-01-10 17:26:49:167
-1.307079,1.187737,9.48455,-1.335675,0.883825,9.674979,0.012967,0.220111,-0.167165,0.027696,0.024367,-0.024767,79.0,18.525,-26.475,-35.325,211.568,-5.1238,8.1247,1.97,27.88063,48.843895,2.3533502,307.0968,NaN,,42.170967,,0 / 17,1346,2022-01-10 17:26:49:170
-1.307079,1.187737,9.48455,-1.335675,0.883825,9.674979,0.012967,0.220111,-0.167165,0.027696,0.024367,-0.024767,79.0,18.525,-26.475,-35.325,211.568,-5.1238,8.1247,1.97,27.88063,48.843895,2.3533502,307.0968,NaN,,42.170967,,0 / 17,1352,2022-01-10 17:26:49:176
-1.307079,1.187737,9.48455,-1.335675,0.883825,9.674979,0.012967,0.220111,-0.167165,0.027696,0.024367,-0.024767,79.0,18.525,-26.475,-35.325,211.568,-5.1238,8.1247,1.97,27.88063,48.843895,2.3533502,307.0968,NaN,,42.170967,,0 / 17,1357,2022-01-10 17:26:49:181
-1.307079,1.187737,9.48455,-1.335675,0.883825,9.674979,0.012967,0.220111,-0.167165,0.027696,0.024367,-0.024767,79.0,18.525,-26.475,-35.325,211.568,-5.1238,8.1247,1.97,27.88063,48.843895,2.3533502,307.0968,NaN,,42.170967,,0 / 17,1362,2022-01-10 17:26:49:186
-1.307079,1.187737,9.48455,-1.335675,0.883825,9.674979,0.012967,0.220111,-0.167165,0.027696,0.024367,-0.024767,79.0,18.525,-26.475,-35.325,211.568,-5.1238,8.1247,1.97,27.88063,48.843895,2.3533502,307.0968,NaN,,42.170967,,0 / 17,1366,2022-01-10 17:26:49:190
-1.307079,1.187737,9.48455,-1.335675,0.883825,9.674979,0.012967,0.220111,-0.167165,0.027696,0.024367,-0.024767,79.0,18.525,-26.475,-35.325,211.568,-5.1238,8.1247,1.97,27.88063,48.843895,2.3533502,307.0968,NaN,,42.170967,,0 / 17,1371,2022-01-10 17:26:49:195
-1.307079,1.187737,9.48455,-1.335675,0.883825,9.674979,0.012967,0.220111,-0.167165,0.027696,0.024367,-0.024767,79.0,18.525,-26.475,-35.325,211.568,-5.1238,8.1247,1.97,27.88063,48.843895,2.3533502,307.0968,NaN,,42.170967,,0 / 17,1378,2022-01-10 17:26:49:202
-1.307079,1.187737,9.48455,-1.335675,0.883825,9.674979,0.012967,0.220111,-0.167165,0.027696,0.024367,-0.024767,79.0,18.525,-26.475,-35.325,211.568,-5.1238,8.1247,1.97,27.88063,48.843895,2.3533502,307.0968,NaN,,42.170967,,0 / 17,1382,2022-01-10 17:26:49:206
-1.307079,1.187737,9.48455,-1.335675,0.883825,9.674979,0.012967,0.220111,-0.167165,0.027696,0.024367,-0.024767,79.0,18.525,-26.475,-35.325,211.568,-5.1238,8.1247,1.97,27.88063,48.843895,2.3533502,307.0968,NaN,,42.170967,,0 / 17,1387,2022-01-10 17:26:49:211
-1.307079,1.187737,9.48455,-1.335675,0.883825,9.674979,0.012967,0.220111,-0.167165,0.027696,0.024367,-0.024767,79.0,18.525,-26.475,-35.325,211.568,-5.1238,8.1247,1.97,27.88063,48.843895,2.3533502,307.0968,NaN,,42.170967,,0 / 17,1393,2022-01-10 17:26:49:217
-1.307079,1.187737,9.48455,-1.335675,0.883825,9.674979,0.012967,0.220111,-0.167165,0.027696,0.024367,-0.024767,79.0,18.525,-26.475,-35.325,211.568,-5.1238,8.1247,1.97,27.88063,48.843895,2.3533502,307.0968,NaN,,42.170967,,0 / 17,1398,2022-01-10 17:26:49:222
-1.307079,1.187737,9.48455,-1.335675,0.883825,9.674979,0.012967,0.220111,-0.167165,0.027696,0.024367,-0.024767,79.0,18.525,-26.475,-35.325,211.568,-5.1238,8.1247,1.97,27.88063,48.843895,2.3533502,307.0968,NaN,,42.170967,,0 / 17,1402,2022-01-10 17:26:49:226
-1.307079,1.187737,9.48455,-1.335675,0.883825,9.674979,0.012967,0.220111,-0.167165,0.027696,0.024367,-0.024767,79.0,18.525,-26.475,-35.325,211.568,-5.1238,8.1247,1.97,27.88063,48.843895,2.3533502,307.0968,NaN,,42.170967,,0 / 17,1407,2022-01-10 17:26:49:231
-1.307079,1.187737,9.48455,-1.335675,0.883825,9.674979,0.012967,0.220111,-0.167165,0.027696,0.024367,-0.024767,79.0,18.525,-26.475,-35.325,211.568,-5.1238,8.1247,1.97,27.88063,48.843895,2.3533502,307.0968,NaN,,42.170967,,0 / 17,1412,2022-01-10 17:26:49:236
-1.307079,1.187737,9.48455,-1.335675,0.883825,9.674979,0.012967,0.220111,-0.167165,0.027696,0.024367,-0.024767,79.0,18.525,-26.475,-35.325,211.568,-5.1238,8.1247,1.97,27.88063,48.843895,2.3533502,307.0968,NaN,,42.170967,,0 / 17,1417,2022-01-10 17:26:49:241
-1.307079,1.187737,9.48455,-1.335675,0.883825,9.674979,0.012967,0.220111,-0.167165,0.027696,0.024367,-0.024767,79.0,18.525,-26.475,-35.325,211.568,-5.1238,8.1247,1.97,27.88063,48.843895,2.3533502,307.0968,NaN,,42.170967,,0 / 17,1422,2022-01-10 17:26:49:246
-1.307079,1.187737,9.48455,-1.335675,0.883825,9.674979,0.012967,0.220111,-0.167165,0.027696,0.024367,-0.024767,79.0,18.525,-26.475,-35.325,211.568,-5.1238,8.1247,1.97,27.88063,48.843895,2.3533502,307.0968,NaN,,42.170967,,0 / 17,1426,2022-01-10 17:26:49:250
-2.062912,1.921736,14.81217,-1.335675,0.883825,9.674979,0.012967,0.220111,-0.167165,0.027696,0.024367,-0.024767,79.0,18.6,-26.25,-35.1,211.9147,-5.1708,7.8603,1.97,27.88063,48.843895,2.3533502,307.0968,NaN,,42.170967,,0 / 17,1432,2022-01-10 17:26:49:256
-2.062912,1.921736,14.81217,-1.335675,0.883825,9.674979,0.012967,0.220111,-0.167165,0.027696,0.024367,-0.024767,79.0,18.6,-26.25,-35.1,211.9147,-5.1708,7.8603,1.97,27.88063,48.843895,2.3533502,307.0968,NaN,,42.170967,,0 / 17,1437,2022-01-10 17:26:49:261
-2.062912,1.921736,14.81217,-1.335675,0.883825,9.674979,0.012967,0.220111,-0.167165,0.027696,0.024367,-0.024767,79.0,18.6,-26.25,-35.1,211.9147,-5.1708,7.8603,1.97,27.88063,48.843895,2.3533502,307.0968,NaN,,42.170967,,0 / 17,1443,2022-01-10 17:26:49:267
-2.062912,1.921736,14.81217,-1.335675,0.883825,9.674979,0.012967,0.220111,-0.167165,0.027696,0.024367,-0.024767,79.0,18.6,-26.25,-35.1,211.9147,-5.1708,7.8603,1.97,27.88063,48.843895,2.3533502,307.0968,NaN,,42.170967,,0 / 17,1447,2022-01-10 17:26:49:271
-2.062912,1.921736,14.81217,-1.335675,0.883825,9.674979,0.012967,0.220111,-0.167165,0.027696,0.024367,-0.024767,79.0,18.6,-26.25,-35.1,211.9147,-5.1708,7.8603,1.97,27.88063,48.843895,2.3533502,307.0968,NaN,,42.170967,,0 / 17,1452,2022-01-10 17:26:49:276
-2.062912,1.921736,14.81217,-1.600522,1.062363,9.616657,-0.358778,0.678857,2.350294,0.14647,-0.281887,0.179625,79.0,18.6,-26.25,-35.1,211.9147,-5.1708,7.8603,1.97,27.88063,48.843895,2.3533502,307.0968,NaN,,42.170967,,0 / 17,1456,2022-01-10 17:26:49:280
-2.062912,1.921736,14.81217,-1.600522,1.062363,9.616657,-0.358778,0.678857,2.350294,0.14647,-0.281887,0.179625,79.0,18.6,-26.25,-35.1,211.9147,-5.1708,7.8603,1.97,27.88063,48.843895,2.3533502,307.0968,NaN,,42.170967,,0 / 17,1462,2022-01-10 17:26:49:286
-2.062912,1.921736,14.81217,-1.600522,1.062363,9.616657,-0.358778,0.678857,2.350294,0.14647,-0.281887,0.179625,79.0,18.6,-26.25,-35.1,211.9147,-5.1708,7.8603,1.97,27.88063,48.843895,2.3533502,307.0968,NaN,,42.170967,,0 / 17,1467,2022-01-10 17:26:49:291
-2.062912,1.921736,14.81217,-1.600522,1.062363,9.616657,-0.358778,0.678857,2.350294,0.14647,-0.281887,0.179625,79.0,18.6,-26.25,-35.1,211.9147,-5.1708,7.8603,1.97,27.88063,48.843895,2.3533502,307.0968,NaN,,42.170967,,0 / 17,1473,2022-01-10 17:26:49:297
-2.062912,1.921736,14.81217,-1.600522,1.062363,9.616657,-0.358778,0.678857,2.350294,0.14647,-0.281887,0.179625,79.0,18.6,-26.25,-35.1,211.9147,-5.1708,7.8603,1.97,27.88063,48.843895,2.3533502,307.0968,NaN,,42.170967,,0 / 17,1477,2022-01-10 17:26:49:301
-2.062912,1.921736,14.81217,-1.600522,1.062363,9.616657,-0.358778,0.678857,2.350294,0.14647,-0.281887,0.179625,79.0,18.6,-26.25,-35.1,211.9147,-5.1708,7.8603,1.97,27.88063,48.843895,2.3533502,307.0968,NaN,,42.170967,,0 / 17,1483,2022-01-10 17:26:49:307
-2.062912,1.921736,14.81217,-1.600522,1.062363,9.616657,-0.358778,0.678857,2.350294,0.14647,-0.281887,0.179625,79.0,18.6,-26.25,-35.1,211.9147,-5.1708,7.8603,1.97,27.88063,48.843895,2.3533502,307.0968,NaN,,42.170967,,0 / 17,1488,2022-01-10 17:26:49:312
-2.062912,1.921736,14.81217,-1.600522,1.062363,9.616657,-0.358778,0.678857,2.350294,0.14647,-0.281887,0.179625,79.0,18.6,-26.25,-35.1,211.9147,-5.1708,7.8603,1.97,27.88063,48.843895,2.3533502,307.0968,NaN,,42.170967,,0 / 17,1491,2022-01-10 17:26:49:315
-2.062912,1.921736,14.81217,-1.600522,1.062363,9.616657,-0.358778,0.678857,2.350294,0.14647,-0.281887,0.179625,79.0,18.6,-26.25,-35.1,211.9147,-5.1708,7.8603,1.97,27.88063,48.843895,2.3533502,307.0968,NaN,,42.170967,,0 / 17,1497,2022-01-10 17:26:49:321
-2.062912,1.921736,14.81217,-1.600522,1.062363,9.616657,-0.358778,0.678857,2.350294,0.14647,-0.281887,0.179625,79.0,18.6,-26.25,-35.1,211.9147,-5.1708,7.8603,1.97,27.88063,48.843895,2.3533502,307.0968,NaN,,42.170967,,0 / 17,1501,2022-01-10 17:26:49:325
-2.062912,1.921736,14.81217,-1.600522,1.062363,9.616657,-0.358778,0.678857,2.350294,0.14647,-0.281887,0.179625,79.0,18.6,-26.25,-35.1,211.9147,-5.1708,7.8603,1.97,27.88063,48.843895,2.3533502,307.0968,NaN,,42.170967,,0 / 17,1507,2022-01-10 17:26:49:331
-2.062912,1.921736,14.81217,-1.600522,1.062363,9.616657,-0.358778,0.678857,2.350294,0.14647,-0.281887,0.179625,79.0,18.6,-26.25,-35.1,211.9147,-5.1708,7.8603,1.97,27.88063,48.843895,2.3533502,307.0968,NaN,,42.170967,,0 / 17,1513,2022-01-10 17:26:49:337
-2.062912,1.921736,14.81217,-1.600522,1.062363,9.616657,-0.358778,0.678857,2.350294,0.14647,-0.281887,0.179625,79.0,18.6,-26.25,-35.1,211.9147,-5.1708,7.8603,1.97,27.88063,48.843895,2.3533502,307.0968,NaN,,42.170967,,0 / 17,1517,2022-01-10 17:26:49:341
-0.696311,2.42363,23.13022,-1.600522,1.062363,9.616657,-0.358778,0.678857,2.350294,0.14647,-0.281887,0.179625,29.0,18.6,-26.25,-35.1,211.9147,-5.1708,7.8603,1.97,27.88063,48.843895,2.3533502,307.0968,NaN,,42.170967,,0 / 17,1522,2022-01-10 17:26:49:346
-0.696311,2.42363,23.13022,-1.600522,1.062363,9.616657,-0.358778,0.678857,2.350294,0.14647,-0.281887,0.179625,29.0,18.6,-26.25,-35.1,211.9147,-5.1708,7.8603,1.97,27.88063,48.843895,2.3533502,307.0968,NaN,,42.170967,,0 / 17,1527,2022-01-10 17:26:49:351
-0.696311,2.42363,23.13022,-1.600522,1.062363,9.616657,-0.358778,0.678857,2.350294,0.14647,-0.281887,0.179625,29.0,18.6,-26.25,-35.1,211.9147,-5.1708,7.8603,1.97,27.88063,48.843895,2.3533502,307.0968,NaN,,42.170967,,0 / 17,1533,2022-01-10 17:26:49:357
-0.696311,2.42363,23.13022,-1.600522,1.062363,9.616657,-0.358778,0.678857,2.350294,0.14647,-0.281887,0.179625,29.0,18.6,-26.25,-35.1,211.9147,-5.1708,7.8603,1.97,27.88063,48.843895,2.3533502,307.0968,NaN,,42.170967,,0 / 17,1536,2022-01-10 17:26:49:360
-0.696311,2.42363,23.13022,-1.600522,1.062363,9.616657,-0.358778,0.678857,2.350294,0.14647,-0.281887,0.179625,29.0,18.6,-26.25,-35.1,211.9147,-5.1708,7.8603,1.97,27.88063,48.843895,2.3533502,307.0968,NaN,,42.170967,,0 / 17,1543,2022-01-10 17:26:49:367
-0.696311,2.42363,23.13022,-1.600522,1.062363,9.616657,-0.358778,0.678857,2.350294,0.14647,-0.281887,0.179625,29.0,18.6,-26.25,-35.1,211.9147,-5.1708,7.8603,1.97,27.88063,48.843895,2.3533502,307.0968,NaN,,42.170967,,0 / 17,1547,2022-01-10 17:26:49:371
-0.696311,2.42363,23.13022,-1.600522,1.062363,9.616657,-0.358778,0.678857,2.350294,0.14647,-0.281887,0.179625,29.0,18.6,-26.25,-35.1,211.9147,-5.1708,7.8603,1.97,27.88063,48.843895,2.3533502,307.0968,NaN,,42.170967,,0 / 17,1552,2022-01-10 17:26:49:376
-0.696311,2.42363,23.13022,-1.600522,1.062363,9.616657,-0.358778,0.678857,2.350294,0.14647,-0.281887,0.179625,29.0,18.6,-26.25,-35.1,211.9147,-5.1708,7.8603,1.97,27.88063,48.843895,2.3533502,307.0968,NaN,,42.170967,,0 / 25,1557,2022-01-10 17:26:49:381
-0.696311,2.42363,23.13022,-1.600522,1.062363,9.616657,-0.358778,0.678857,2.350294,0.14647,-0.281887,0.179625,29.0,18.6,-26.25,-35.1,211.9147,-5.1708,7.8603,1.97,27.88063,48.843895,2.3533502,307.0968,NaN,,42.170967,,0 / 25,1562,2022-01-10 17:26:49:386
-0.696311,2.42363,23.13022,-1.600522,1.062363,9.616657,-0.358778,0.678857,2.350294,0.14647,-0.281887,0.179625,29.0,18.6,-26.25,-35.1,211.9147,-5.1708,7.8603,1.97,27.88063,48.843895,2.3533502,307.0968,NaN,,42.170967,,0 / 25,1567,2022-01-10 17:26:49:391
-0.696311,2.42363,23.13022,-1.600522,1.062363,9.616657,-0.358778,0.678857,2.350294,0.14647,-0.281887,0.179625,29.0,18.6,-26.25,-35.1,211.9147,-5.1708,7.8603,1.97,27.88063,48.843895,2.3533502,307.0968,NaN,,42.170967,,0 / 25,1572,2022-01-10 17:26:49:396
-0.696311,2.42363,23.13022,7.807929,1.581886,5.718765,-5.742513,-0.132109,17.134846,0.861241,-21.296272,0.823425,29.0,18.6,-26.25,-35.1,211.9147,-5.1708,7.8603,1.97,27.88063,48.843895,2.3533502,307.0968,NaN,,42.170967,,0 / 25,1580,2022-01-10 17:26:49:404
-0.696311,2.42363,23.13022,7.807929,1.581886,5.718765,-5.742513,-0.132109,17.134846,0.861241,-21.296272,0.823425,29.0,18.6,-26.25,-35.1,211.9147,-5.1708,7.8603,1.97,27.88063,48.843895,2.3533502,307.0968,NaN,,42.170967,,0 / 25,1583,2022-01-10 17:26:49:407
-0.696311,2.42363,23.13022,7.807929,1.581886,5.718765,-5.742513,-0.132109,17.134846,0.861241,-21.296272,0.823425,29.0,18.6,-26.25,-35.1,211.9147,-5.1708,7.8603,1.97,27.88063,48.843895,2.3533502,307.0968,NaN,,42.170967,,0 / 25,1587,2022-01-10 17:26:49:411
-0.696311,2.42363,23.13022,7.807929,1.581886,5.718765,-5.742513,-0.132109,17.134846,0.861241,-21.296272,0.823425,29.0,18.6,-26.25,-35.1,211.9147,-5.1708,7.8603,1.97,27.88063,48.843933,2.3533285,536.1086,NaN,0.0,24.206451,,0 / 25,1592,2022-01-10 17:26:49:416
-0.696311,2.42363,23.13022,7.807929,1.581886,5.718765,-5.742513,-0.132109,17.134846,0.861241,-21.296272,0.823425,29.0,18.6,-26.25,-35.1,211.9147,-5.1708,7.8603,1.97,27.88063,48.843933,2.3533285,536.1086,NaN,0.0,24.206451,,0 / 25,1599,2022-01-10 17:26:49:423
-0.696311,2.42363,23.13022,7.807929,1.581886,5.718765,-5.742513,-0.132109,17.134846,0.861241,-21.296272,0.823425,29.0,18.6,-26.25,-35.1,211.9147,-5.1708,7.8603,1.97,27.88063,48.843933,2.3533285,536.1086,NaN,0.0,24.206451,,0 / 25,1602,2022-01-10 17:26:49:426
-0.696311,2.42363,23.13022,7.807929,1.581886,5.718765,-5.742513,-0.132109,17.134846,0.861241,-21.296272,0.823425,29.0,18.6,-26.25,-35.1,211.9147,-5.1708,7.8603,1.97,27.88063,48.843933,2.3533285,536.1086,NaN,0.0,24.206451,,0 / 25,1606,2022-01-10 17:26:49:430
-0.696311,2.42363,23.13022,7.807929,1.581886,5.718765,-5.742513,-0.132109,17.134846,0.861241,-21.296272,0.823425,29.0,18.6,-26.25,-35.1,211.9147,-5.1708,7.8603,1.97,27.88063,48.843933,2.3533285,536.1086,NaN,0.0,24.206451,,0 / 25,1611,2022-01-10 17:26:49:435
-0.696311,2.42363,23.13022,7.807929,1.581886,5.718765,-5.742513,-0.132109,17.134846,0.861241,-21.296272,0.823425,29.0,18.6,-26.25,-35.1,211.9147,-5.1708,7.8603,1.97,27.88063,48.843933,2.3533285,536.1086,NaN,0.0,24.206451,,0 / 25,1616,2022-01-10 17:26:49:440
-0.696311,2.42363,23.13022,7.807929,1.581886,5.718765,-5.742513,-0.132109,17.134846,0.861241,-21.296272,0.823425,29.0,18.6,-26.25,-35.1,211.9147,-5.1708,7.8603,1.97,52.96045,48.843933,2.3533285,536.1086,NaN,0.0,24.206451,,0 / 25,1621,2022-01-10 17:26:49:445
-0.696311,2.42363,23.13022,7.807929,1.581886,5.718765,-5.742513,-0.132109,17.134846,0.861241,-21.296272,0.823425,29.0,18.6,-26.25,-35.1,211.9147,-5.1708,7.8603,1.97,52.96045,48.843933,2.3533285,536.1086,NaN,0.0,24.206451,,0 / 25,1627,2022-01-10 17:26:49:451
3.579663,0.342174,-0.407677,7.807929,1.581886,5.718765,-5.742513,-0.132109,17.134846,0.861241,-21.296272,0.823425,29.0,18.6,-26.25,-35.1,211.9147,-5.1708,7.8603,1.97,52.96045,48.843933,2.3533285,536.1086,NaN,0.0,24.206451,,0 / 25,1631,2022-01-10 17:26:49:455
3.579663,0.342174,-0.407677,7.807929,1.581886,5.718765,-5.742513,-0.132109,17.134846,0.861241,-21.296272,0.823425,29.0,11.1,-26.775,-29.55,230.6008,-9.2828,-53.7798,1.97,52.96045,48.843933,2.3533285,536.1086,NaN,0.0,24.206451,,0 / 25,1637,2022-01-10 17:26:49:461
3.579663,0.342174,-0.407677,7.807929,1.581886,5.718765,-5.742513,-0.132109,17.134846,0.861241,-21.296272,0.823425,29.0,11.1,-26.775,-29.55,230.6008,-9.2828,-53.7798,1.97,52.96045,48.843933,2.3533285,536.1086,NaN,0.0,24.206451,,0 / 25,1642,2022-01-10 17:26:49:466
3.579663,0.342174,-0.407677,7.807929,1.581886,5.718765,-5.742513,-0.132109,17.134846,0.861241,-21.296272,0.823425,29.0,11.1,-26.775,-29.55,230.6008,-9.2828,-53.7798,1.97,52.96045,48.843933,2.3533285,536.1086,NaN,0.0,24.206451,,0 / 25,1647,2022-01-10 17:26:49:471
3.579663,0.342174,-0.407677,7.807929,1.581886,5.718765,-5.742513,-0.132109,17.134846,0.861241,-21.296272,0.823425,29.0,11.1,-26.775,-29.55,230.6008,-9.2828,-53.7798,1.97,52.96045,48.843933,2.3533285,536.1086,NaN,0.0,24.206451,,0 / 25,1652,2022-01-10 17:26:49:476
3.579663,0.342174,-0.407677,7.807929,1.581886,5.718765,-5.742513,-0.132109,17.134846,0.861241,-21.296272,0.823425,29.0,11.1,-26.775,-29.55,230.6008,-9.2828,-53.7798,1.97,52.96045,48.843933,2.3533285,536.1086,NaN,0.0,24.206451,,0 / 25,1657,2022-01-10 17:26:49:481
3.579663,0.342174,-0.407677,7.807929,1.581886,5.718765,-5.742513,-0.132109,17.134846,0.861241,-21.296272,0.823425,29.0,11.1,-26.775,-29.55,230.6008,-9.2828,-53.7798,1.97,52.96045,48.843933,2.3533285,536.1086,NaN,0.0,24.206451,,0 / 25,1662,2022-01-10 17:26:49:486
3.579663,0.342174,-0.407677,7.807929,1.581886,5.718765,-5.742513,-0.132109,17.134846,0.861241,-21.296272,0.823425,29.0,11.1,-26.775,-29.55,230.6008,-9.2828,-53.7798,1.97,52.96045,48.843933,2.3533285,536.1086,NaN,0.0,24.206451,,0 / 25,1667,2022-01-10 17:26:49:491
3.579663,0.342174,-0.407677,7.807929,1.581886,5.718765,-5.742513,-0.132109,17.134846,0.861241,-21.296272,0.823425,29.0,11.1,-26.775,-29.55,230.6008,-9.2828,-53.7798,1.97,52.96045,48.843933,2.3533285,536.1086,NaN,0.0,24.206451,,0 / 25,1671,2022-01-10 17:26:49:495
3.579663,0.342174,-0.407677,7.807929,1.581886,5.718765,-5.742513,-0.132109,17.134846,0.861241,-21.296272,0.823425,29.0,11.1,-26.775,-29.55,230.6008,-9.2828,-53.7798,1.97,52.96045,48.843933,2.3533285,536.1086,NaN,0.0,24.206451,,0 / 25,1677,2022-01-10 17:26:49:501
3.579663,0.342174,-0.407677,7.807929,1.581886,5.718765,-5.742513,-0.132109,17.134846,0.861241,-21.296272,0.823425,29.0,11.1,-26.775,-29.55,230.6008,-9.2828,-53.7798,1.97,52.96045,48.843933,2.3533285,536.1086,NaN,0.0,24.206451,,0 / 25,1681,2022-01-10 17:26:49:505
3.579663,0.342174,-0.407677,7.807929,1.581886,5.718765,-5.742513,-0.132109,17.134846,0.861241,-21.296272,0.823425,29.0,11.1,-26.775,-29.55,230.6008,-9.2828,-53.7798,1.97,52.96045,48.843933,2.3533285,536.1086,NaN,0.0,24.206451,,0 / 25,1687,2022-01-10 17:26:49:511
3.579663,0.342174,-0.407677,7.807929,1.581886,5.718765,-5.742513,-0.132109,17.134846,0.861241,-21.296272,0.823425,29.0,11.1,-26.775,-29.55,230.6008,-9.2828,-53.7798,1.97,52.96045,48.843933,2.3533285,536.1086,NaN,0.0,24.206451,,0 / 25,1692,2022-01-10 17:26:49:516
3.579663,0.342174,-0.407677,7.807929,1.581886,5.718765,-5.742513,-0.132109,17.134846,0.861241,-21.296272,0.823425,29.0,11.1,-26.775,-29.55,230.6008,-9.2828,-53.7798,1.97,52.96045,48.843933,2.3533285,536.1086,NaN,0.0,24.206451,,0 / 25,1697,2022-01-10 17:26:49:521
3.579663,0.342174,-0.407677,-4.871795,1.104085,-8.439016,7.996715,-0.665117,7.227169,0.861241,-21.296272,0.823425,29.0,11.1,-26.775,-29.55,230.6008,-9.2828,-53.7798,1.97,52.96045,48.843933,2.3533285,536.1086,NaN,0.0,24.206451,,0 / 25,1701,2022-01-10 17:26:49:525
3.579663,0.342174,-0.407677,-4.871795,1.104085,-8.439016,7.996715,-0.665117,7.227169,0.861241,-21.296272,0.823425,29.0,11.1,-26.775,-29.55,230.6008,-9.2828,-53.7798,1.97,52.96045,48.843933,2.3533285,536.1086,NaN,0.0,24.206451,,0 / 25,1707,2022-01-10 17:26:49:531
3.579663,0.342174,-0.407677,-4.871795,1.104085,-8.439016,7.996715,-0.665117,7.227169,0.861241,-21.296272,0.823425,29.0,11.1,-26.775,-29.55,230.6008,-9.2828,-53.7798,1.97,52.96045,48.843933,2.3533285,536.1086,NaN,0.0,24.206451,,0 / 25,1711,2022-01-10 17:26:49:535
4.140182,-0.317946,-0.350249,-4.871795,1.104085,-8.439016,7.996715,-0.665117,7.227169,-0.320635,-22.57069,-1.040333,29.0,11.1,-26.775,-29.55,230.6008,-9.2828,-53.7798,1.97,52.96045,48.843933,2.3533285,536.1086,NaN,0.0,24.206451,,0 / 25,1717,2022-01-10 17:26:49:541
4.140182,-0.317946,-0.350249,-4.871795,1.104085,-8.439016,7.996715,-0.665117,7.227169,-0.320635,-22.57069,-1.040333,29.0,11.1,-26.775,-29.55,230.6008,-9.2828,-53.7798,1.97,52.96045,48.843933,2.3533285,536.1086,NaN,0.0,24.206451,,0 / 25,1722,2022-01-10 17:26:49:546
4.140182,-0.317946,-0.350249,-4.871795,1.104085,-8.439016,7.996715,-0.665117,7.227169,-0.320635,-22.57069,-1.040333,29.0,11.1,-26.775,-29.55,230.6008,-9.2828,-53.7798,1.97,52.96045,48.843933,2.3533285,536.1086,NaN,0.0,24.206451,,0 / 25,1726,2022-01-10 17:26:49:550
4.140182,-0.317946,-0.350249,-4.871795,1.104085,-8.439016,7.996715,-0.665117,7.227169,-0.320635,-22.57069,-1.040333,29.0,11.1,-26.775,-29.55,230.6008,-9.2828,-53.7798,1.97,52.96045,48.843933,2.3533285,536.1086,NaN,0.0,24.206451,,0 / 25,1732,2022-01-10 17:26:49:556
4.140182,-0.317946,-0.350249,-4.871795,1.104085,-8.439016,7.996715,-0.665117,7.227169,-0.320635,-22.57069,-1.040333,29.0,11.1,-26.775,-29.55,230.6008,-9.2828,-53.7798,1.97,52.96045,48.843933,2.3533285,536.1086,NaN,0.0,24.206451,,0 / 25,1737,2022-01-10 17:26:49:561
4.140182,-0.317946,-0.350249,-4.871795,1.104085,-8.439016,7.996715,-0.665117,7.227169,-0.320635,-22.57069,-1.040333,29.0,11.1,-26.775,-29.55,230.6008,-9.2828,-53.7798,1.97,52.96045,48.843933,2.3533285,536.1086,NaN,0.0,24.206451,,0 / 25,1741,2022-01-10 17:26:49:565
4.140182,-0.317946,-0.350249,-4.871795,1.104085,-8.439016,7.996715,-0.665117,7.227169,-0.320635,-22.57069,-1.040333,104.0,11.1,-26.775,-29.55,230.6008,-9.2828,-53.7798,1.97,52.96045,48.843933,2.3533285,536.1086,NaN,0.0,24.206451,,0 / 25,1747,2022-01-10 17:26:49:571
4.140182,-0.317946,-0.350249,-4.871795,1.104085,-8.439016,7.996715,-0.665117,7.227169,-0.320635,-22.57069,-1.040333,104.0,11.1,-26.775,-29.55,230.6008,-9.2828,-53.7798,1.97,52.96045,48.843933,2.3533285,536.1086,NaN,0.0,24.206451,,0 / 25,1752,2022-01-10 17:26:49:576
4.140182,-0.317946,-0.350249,-4.871795,1.104085,-8.439016,7.996715,-0.665117,7.227169,-0.320635,-22.57069,-1.040333,104.0,11.1,-26.775,-29.55,230.6008,-9.2828,-53.7798,1.97,52.96045,48.843933,2.3533285,536.1086,NaN,0.0,24.206451,,0 / 25,1757,2022-01-10 17:26:49:581
4.140182,-0.317946,-0.350249,-4.871795,1.104085,-8.439016,7.996715,-0.665117,7.227169,-0.320635,-22.57069,-1.040333,104.0,11.1,-26.775,-29.55,230.6008,-9.2828,-53.7798,1.97,52.96045,48.843933,2.3533285,536.1086,NaN,0.0,24.206451,,0 / 25,1762,2022-01-10 17:26:49:586
4.140182,-0.317946,-0.350249,-4.871795,1.104085,-8.439016,7.996715,-0.665117,7.227169,-0.320635,-22.57069,-1.040333,104.0,11.1,-26.775,-29.55,230.6008,-9.2828,-53.7798,1.97,52.96045,48.843933,2.3533285,536.1086,NaN,0.0,24.206451,,0 / 25,1766,2022-01-10 17:26:49:590
4.140182,-0.317946,-0.350249,-4.871795,1.104085,-8.439016,7.996715,-0.665117,7.227169,-0.320635,-22.57069,-1.040333,104.0,11.1,-26.775,-29.55,230.6008,-9.2828,-53.7798,1.97,52.96045,48.843933,2.3533285,536.1086,NaN,0.0,24.206451,,0 / 25,1772,2022-01-10 17:26:49:596
4.140182,-0.317946,-0.350249,-4.871795,1.104085,-8.439016,7.996715,-0.665117,7.227169,-0.320635,-22.57069,-1.040333,104.0,11.1,-26.775,-29.55,230.6008,-9.2828,-53.7798,1.97,52.96045,48.843933,2.3533285,536.1086,NaN,0.0,24.206451,,0 / 25,1777,2022-01-10 17:26:49:601
4.140182,-0.317946,-0.350249,-4.871795,1.104085,-8.439016,7.996715,-0.665117,7.227169,-0.320635,-22.57069,-1.040333,104.0,11.1,-26.775,-29.55,230.6008,-9.2828,-53.7798,1.97,52.96045,48.843933,2.3533285,536.1086,NaN,0.0,24.206451,,0 / 25,1783,2022-01-10 17:26:49:607
4.140182,-0.317946,-0.350249,-4.871795,1.104085,-8.439016,7.996715,-0.665117,7.227169,-0.320635,-22.57069,-1.040333,104.0,11.1,-26.775,-29.55,230.6008,-9.2828,-53.7798,1.97,52.96045,48.843933,2.3533285,536.1086,NaN,0.0,24.206451,,0 / 25,1786,2022-01-10 17:26:49:610
4.140182,-0.317946,-0.350249,-4.871795,1.104085,-8.439016,7.996715,-0.665117,7.227169,-0.320635,-22.57069,-1.040333,104.0,11.1,-26.775,-29.55,230.6008,-9.2828,-53.7798,1.97,52.96045,48.843933,2.3533285,536.1086,NaN,0.0,24.206451,,0 / 25,1792,2022-01-10 17:26:49:616
4.140182,-0.317946,-0.350249,-4.871795,1.104085,-8.439016,7.996715,-0.665117,7.227169,-0.320635,-22.57069,-1.040333,104.0,11.1,-26.775,-29.55,230.6008,-9.2828,-53.7798,1.97,52.96045,48.843933,2.3533285,536.1086,NaN,0.0,24.206451,,0 / 25,1796,2022-01-10 17:26:49:620
4.285247,-0.514457,-0.195613,-4.871795,1.104085,-8.439016,7.996715,-0.665117,7.227169,-0.320635,-22.57069,-1.040333,104.0,11.1,-26.775,-29.55,230.6008,-9.2828,-53.7798,1.97,52.96045,48.843933,2.3533285,536.1086,NaN,0.0,24.206451,,0 / 25,1802,2022-01-10 17:26:49:626
4.285247,-0.514457,-0.195613,-4.871795,1.104085,-8.439016,7.996715,-0.665117,7.227169,-0.320635,-22.57069,-1.040333,104.0,11.1,-26.775,-29.55,230.6008,-9.2828,-53.7798,1.97,52.96045,48.843933,2.3533285,536.1086,NaN,0.0,24.206451,,0 / 25,1806,2022-01-10 17:26:49:630
4.285247,-0.514457,-0.195613,-4.871795,1.104085,-8.439016,7.996715,-0.665117,7.227169,-0.320635,-22.57069,-1.040333,104.0,11.1,-26.775,-29.55,230.6008,-9.2828,-53.7798,1.97,52.96045,48.843933,2.3533285,536.1086,NaN,0.0,24.206451,,0 / 25,1812,2022-01-10 17:26:49:636
4.285247,-0.514457,-0.195613,1.117117,-0.195415,9.740855,3.328353,-0.280246,-8.15233,-0.320635,-22.57069,-1.040333,104.0,11.1,-26.775,-29.55,230.6008,-9.2828,-53.7798,1.97,52.96045,48.843933,2.3533285,536.1086,NaN,0.0,24.206451,,0 / 25,1816,2022-01-10 17:26:49:640
4.285247,-0.514457,-0.195613,1.117117,-0.195415,9.740855,3.328353,-0.280246,-8.15233,-0.320635,-22.57069,-1.040333,104.0,11.1,-26.775,-29.55,230.6008,-9.2828,-53.7798,1.97,52.96045,48.843933,2.3533285,536.1086,NaN,0.0,24.206451,,0 / 25,1822,2022-01-10 17:26:49:646
4.285247,-0.514457,-0.195613,1.117117,-0.195415,9.740855,3.328353,-0.280246,-8.15233,-0.320635,-22.57069,-1.040333,104.0,11.1,-26.775,-29.55,230.6008,-9.2828,-53.7798,1.97,52.96045,48.843933,2.3533285,536.1086,NaN,0.0,24.206451,,0 / 25,1826,2022-01-10 17:26:49:650
4.285247,-0.514457,-0.195613,1.117117,-0.195415,9.740855,3.328353,-0.280246,-8.15233,-0.320635,-22.57069,-1.040333,104.0,-2.4,-20.1,-33.3,184.9063,1.1418,-6.5423,1.97,52.96045,48.843933,2.3533285,536.1086,NaN,0.0,24.206451,,0 / 25,1831,2022-01-10 17:26:49:655
4.285247,-0.514457,-0.195613,1.117117,-0.195415,9.740855,3.328353,-0.280246,-8.15233,-0.320635,-22.57069,-1.040333,104.0,-2.4,-20.1,-33.3,184.9063,1.1418,-6.5423,1.97,52.96045,48.843933,2.3533285,536.1086,NaN,0.0,24.206451,,0 / 25,1837,2022-01-10 17:26:49:661
4.285247,-0.514457,-0.195613,1.117117,-0.195415,9.740855,3.328353,-0.280246,-8.15233,-0.320635,-22.57069,-1.040333,104.0,-2.4,-20.1,-33.3,184.9063,1.1418,-6.5423,1.97,52.96045,48.843933,2.3533285,536.1086,NaN,0.0,24.206451,,0 / 25,1842,2022-01-10 17:26:49:666
4.285247,-0.514457,-0.195613,1.117117,-0.195415,9.740855,3.328353,-0.280246,-8.15233,-0.320635,-22.57069,-1.040333,104.0,-2.4,-20.1,-33.3,184.9063,1.1418,-6.5423,1.97,52.96045,48.843933,2.3533285,536.1086,NaN,0.0,24.206451,,0 / 25,1847,2022-01-10 17:26:49:671
4.285247,-0.514457,-0.195613,1.117117,-0.195415,9.740855,3.328353,-0.280246,-8.15233,-0.320635,-22.57069,-1.040333,104.0,-2.4,-20.1,-33.3,184.9063,1.1418,-6.5423,1.97,52.96045,48.843933,2.3533285,536.1086,NaN,0.0,24.206451,,0 / 25,1851,2022-01-10 17:26:49:675
4.285247,-0.514457,-0.195613,1.117117,-0.195415,9.740855,3.328353,-0.280246,-8.15233,-1.211969,-22.290134,0.790936,104.0,-2.4,-20.1,-33.3,184.9063,1.1418,-6.5423,1.97,52.96045,48.843933,2.3533285,536.1086,NaN,0.0,24.206451,,0 / 25,1857,2022-01-10 17:26:49:681
4.285247,-0.514457,-0.195613,1.117117,-0.195415,9.740855,3.328353,-0.280246,-8.15233,-1.211969,-22.290134,0.790936,104.0,-2.4,-20.1,-33.3,184.9063,1.1418,-6.5423,1.97,52.96045,48.843933,2.3533285,536.1086,NaN,0.0,24.206451,,0 / 25,1861,2022-01-10 17:26:49:685
4.285247,-0.514457,-0.195613,1.117117,-0.195415,9.740855,3.328353,-0.280246,-8.15233,-1.211969,-22.290134,0.790936,104.0,-2.4,-20.1,-33.3,184.9063,1.1418,-6.5423,1.97,52.96045,48.843933,2.3533285,536.1086,NaN,0.0,24.206451,,0 / 25,1867,2022-01-10 17:26:49:691
4.285247,-0.514457,-0.195613,1.117117,-0.195415,9.740855,3.328353,-0.280246,-8.15233,-1.211969,-22.290134,0.790936,104.0,-2.4,-20.1,-33.3,184.9063,1.1418,-6.5423,1.97,52.96045,48.843933,2.3533285,536.1086,NaN,0.0,24.206451,,0 / 25,1872,2022-01-10 17:26:49:696
4.285247,-0.514457,-0.195613,1.117117,-0.195415,9.740855,3.328353,-0.280246,-8.15233,-1.211969,-22.290134,0.790936,104.0,-2.4,-20.1,-33.3,184.9063,1.1418,-6.5423,1.97,52.96045,48.843933,2.3533285,536.1086,NaN,0.0,24.206451,,0 / 25,1876,2022-01-10 17:26:49:700
4.285247,-0.514457,-0.195613,1.117117,-0.195415,9.740855,3.328353,-0.280246,-8.15233,-1.211969,-22.290134,0.790936,104.0,-2.4,-20.1,-33.3,184.9063,1.1418,-6.5423,1.97,52.96045,48.843933,2.3533285,536.1086,NaN,0.0,24.206451,,0 / 25,1882,2022-01-10 17:26:49:706
4.285247,-0.514457,-0.195613,1.117117,-0.195415,9.740855,3.328353,-0.280246,-8.15233,-1.211969,-22.290134,0.790936,104.0,-2.4,-20.1,-33.3,184.9063,1.1418,-6.5423,1.97,52.96045,48.843933,2.3533285,536.1086,NaN,0.0,24.206451,,0 / 25,1887,2022-01-10 17:26:49:711
13.244273,-4.573581,-5.169693,1.117117,-0.195415,9.740855,3.328353,-0.280246,-8.15233,-1.211969,-22.290134,0.790936,104.0,-2.4,-20.1,-33.3,184.9063,1.1418,-6.5423,1.97,52.96045,48.843933,2.3533285,536.1086,NaN,0.0,24.206451,,0 / 25,1892,2022-01-10 17:26:49:716
13.244273,-4.573581,-5.169693,1.117117,-0.195415,9.740855,3.328353,-0.280246,-8.15233,-1.211969,-22.290134,0.790936,104.0,-2.4,-20.1,-33.3,184.9063,1.1418,-6.5423,1.97,52.96045,48.843933,2.3533285,536.1086,NaN,0.0,24.206451,,0 / 25,1898,2022-01-10 17:26:49:722
13.244273,-4.573581,-5.169693,1.117117,-0.195415,9.740855,3.328353,-0.280246,-8.15233,-1.211969,-22.290134,0.790936,104.0,-2.4,-20.1,-33.3,184.9063,1.1418,-6.5423,1.97,52.96045,48.843933,2.3533285,536.1086,NaN,0.0,24.206451,,0 / 25,1902,2022-01-10 17:26:49:726
13.244273,-4.573581,-5.169693,1.117117,-0.195415,9.740855,3.328353,-0.280246,-8.15233,-1.211969,-22.290134,0.790936,104.0,-2.4,-20.1,-33.3,184.9063,1.1418,-6.5423,1.97,52.96045,48.843933,2.3533285,536.1086,NaN,0.0,24.206451,,0 / 25,1907,2022-01-10 17:26:49:731
13.244273,-4.573581,-5.169693,1.117117,-0.195415,9.740855,3.328353,-0.280246,-8.15233,-1.211969,-22.290134,0.790936,104.0,-2.4,-20.1,-33.3,184.9063,1.1418,-6.5423,1.97,52.96045,48.843933,2.3533285,536.1086,NaN,0.0,24.206451,,0 / 25,1912,2022-01-10 17:26:49:736
13.244273,-4.573581,-5.169693,1.117117,-0.195415,9.740855,3.328353,-0.280246,-8.15233,-1.211969,-22.290134,0.790936,104.0,-2.4,-20.1,-33.3,184.9063,1.1418,-6.5423,1.97,52.96045,48.843933,2.3533285,536.1086,NaN,0.0,24.206451,,0 / 25,1918,2022-01-10 17:26:49:742
13.244273,-4.573581,-5.169693,1.117117,-0.195415,9.740855,3.328353,-0.280246,-8.15233,-1.211969,-22.290134,0.790936,104.0,-2.4,-20.1,-33.3,184.9063,1.1418,-6.5423,1.97,52.96045,48.843933,2.3533285,536.1086,NaN,0.0,24.206451,,0 / 25,1922,2022-01-10 17:26:49:746
13.244273,-4.573581,-5.169693,1.117117,-0.195415,9.740855,3.328353,-0.280246,-8.15233,-1.211969,-22.290134,0.790936,104.0,-2.4,-20.1,-33.3,184.9063,1.1418,-6.5423,1.97,52.96045,48.843933,2.3533285,536.1086,NaN,0.0,24.206451,,0 / 25,1926,2022-01-10 17:26:49:750
13.244273,-4.573581,-5.169693,1.117117,-0.195415,9.740855,3.328353,-0.280246,-8.15233,-1.211969,-22.290134,0.790936,5.0,14.1,-24.0,-6.075,184.9063,1.1418,-6.5423,1.97,52.96045,48.843933,2.3533285,536.1086,NaN,0.0,24.206451,,0 / 25,1932,2022-01-10 17:26:49:756
13.244273,-4.573581,-5.169693,1.117117,-0.195415,9.740855,3.328353,-0.280246,-8.15233,-1.211969,-22.290134,0.790936,5.0,14.1,-24.0,-6.075,184.9063,1.1418,-6.5423,1.97,52.96045,48.843933,2.3533285,536.1086,NaN,0.0,24.206451,,0 / 25,1936,2022-01-10 17:26:49:760
13.244273,-4.573581,-5.169693,1.117117,-0.195415,9.740855,3.328353,-0.280246,-8.15233,-1.211969,-22.290134,0.790936,5.0,14.1,-24.0,-6.075,184.9063,1.1418,-6.5423,1.97,56.357,48.843933,2.3533285,536.1086,NaN,0.0,24.206451,,0 / 25,1942,2022-01-10 17:26:49:766
13.244273,-4.573581,-5.169693,9.292791,-0.39892,-3.107296,6.546254,-0.492175,6.708201,-1.211969,-22.290134,0.790936,5.0,14.1,-24.0,-6.075,184.9063,1.1418,-6.5423,1.97,56.357,48.843933,2.3533285,536.1086,NaN,0.0,24.206451,,0 / 25,1947,2022-01-10 17:26:49:771
13.244273,-4.573581,-5.169693,9.292791,-0.39892,-3.107296,6.546254,-0.492175,6.708201,-1.211969,-22.290134,0.790936,5.0,14.1,-24.0,-6.075,184.9063,1.1418,-6.5423,1.97,56.357,48.843933,2.3533285,536.1086,NaN,0.0,24.206451,,0 / 25,1951,2022-01-10 17:26:49:775
13.244273,-4.573581,-5.169693,9.292791,-0.39892,-3.107296,6.546254,-0.492175,6.708201,-1.211969,-22.290134,0.790936,5.0,14.1,-24.0,-6.075,184.9063,1.1418,-6.5423,1.97,56.357,48.843933,2.3533285,536.1086,NaN,0.0,24.206451,,0 / 25,1957,2022-01-10 17:26:49:781
13.244273,-4.573581,-5.169693,9.292791,-0.39892,-3.107296,6.546254,-0.492175,6.708201,-1.211969,-22.290134,0.790936,5.0,14.1,-24.0,-6.075,184.9063,1.1418,-6.5423,1.97,56.357,48.843933,2.3533285,536.1086,NaN,0.0,24.206451,,0 / 25,1961,2022-01-10 17:26:49:785
13.244273,-4.573581,-5.169693,9.292791,-0.39892,-3.107296,6.546254,-0.492175,6.708201,-1.211969,-22.290134,0.790936,5.0,14.1,-24.0,-6.075,184.9063,1.1418,-6.5423,1.97,56.357,48.843933,2.3533285,536.1086,NaN,0.0,24.206451,,0 / 25,1967,2022-01-10 17:26:49:791
13.244273,-4.573581,-5.169693,9.292791,-0.39892,-3.107296,6.546254,-0.492175,6.708201,-1.211969,-22.290134,0.790936,5.0,14.1,-24.0,-6.075,184.9063,1.1418,-6.5423,1.97,56.357,48.843933,2.3533285,536.1086,NaN,0.0,24.206451,,0 / 25,1971,2022-01-10 17:26:49:795
13.244273,-4.573581,-5.169693,9.292791,-0.39892,-3.107296,6.546254,-0.492175,6.708201,-1.211969,-22.290134,0.790936,5.0,14.1,-24.0,-6.075,184.9063,1.1418,-6.5423,1.97,56.357,48.843933,2.3533285,536.1086,NaN,0.0,24.206451,,0 / 25,1977,2022-01-10 17:26:49:801
13.244273,-4.573581,-5.169693,9.292791,-0.39892,-3.107296,6.546254,-0.492175,6.708201,-1.211969,-22.290134,0.790936,5.0,14.1,-24.0,-6.075,184.9063,1.1418,-6.5423,1.97,56.357,48.843933,2.3533285,536.1086,NaN,0.0,24.206451,,0 / 25,1982,2022-01-10 17:26:49:806
-3.541976,1.664208,-15.678671,9.292791,-0.39892,-3.107296,6.546254,-0.492175,6.708201,-1.787594,-10.785618,0.986006,5.0,14.1,-24.0,-6.075,184.9063,1.1418,-6.5423,1.97,56.357,48.843933,2.3533285,536.1086,NaN,0.0,24.206451,,0 / 25,1988,2022-01-10 17:26:49:812
-3.541976,1.664208,-15.678671,9.292791,-0.39892,-3.107296,6.546254,-0.492175,6.708201,-1.787594,-10.785618,0.986006,5.0,14.1,-24.0,-6.075,184.9063,1.1418,-6.5423,1.97,56.357,48.843933,2.3533285,536.1086,NaN,0.0,24.206451,,0 / 25,1992,2022-01-10 17:26:49:816
-3.541976,1.664208,-15.678671,9.292791,-0.39892,-3.107296,6.546254,-0.492175,6.708201,-1.787594,-10.785618,0.986006,5.0,14.1,-24.0,-6.075,184.9063,1.1418,-6.5423,1.97,56.357,48.843933,2.3533285,536.1086,NaN,0.0,24.206451,,0 / 25,1997,2022-01-10 17:26:49:821
-3.541976,1.664208,-15.678671,9.292791,-0.39892,-3.107296,6.546254,-0.492175,6.708201,-1.787594,-10.785618,0.986006,5.0,14.1,-24.0,-6.075,184.9063,1.1418,-6.5423,1.97,56.357,48.843933,2.3533285,536.1086,NaN,0.0,24.206451,,0 / 25,2002,2022-01-10 17:26:49:826
-3.541976,1.664208,-15.678671,9.292791,-0.39892,-3.107296,6.546254,-0.492175,6.708201,-1.787594,-10.785618,0.986006,5.0,14.1,-24.0,-6.075,184.9063,1.1418,-6.5423,1.97,56.357,48.843933,2.3533285,536.1086,NaN,0.0,24.206451,,0 / 25,2007,2022-01-10 17:26:49:831
-3.541976,1.664208,-15.678671,9.292791,-0.39892,-3.107296,6.546254,-0.492175,6.708201,-1.787594,-10.785618,0.986006,5.0,14.1,-24.0,-6.075,184.9063,1.1418,-6.5423,1.97,56.357,48.843933,2.3533285,536.1086,NaN,0.0,24.206451,,0 / 25,2012,2022-01-10 17:26:49:836
-3.541976,1.664208,-15.678671,9.292791,-0.39892,-3.107296,6.546254,-0.492175,6.708201,-1.787594,-10.785618,0.986006,5.0,14.1,-24.0,-6.075,184.9063,1.1418,-6.5423,1.97,56.357,48.843933,2.3533285,536.1086,NaN,0.0,24.206451,,0 / 25,2017,2022-01-10 17:26:49:841
-3.541976,1.664208,-15.678671,9.292791,-0.39892,-3.107296,6.546254,-0.492175,6.708201,-1.787594,-10.785618,0.986006,5.0,14.1,-24.0,-6.075,184.9063,1.1418,-6.5423,1.97,56.357,48.843933,2.3533285,536.1086,NaN,0.0,24.206451,,0 / 25,2022,2022-01-10 17:26:49:846
-3.541976,1.664208,-15.678671,9.292791,-0.39892,-3.107296,6.546254,-0.492175,6.708201,-1.787594,-10.785618,0.986006,5.0,14.1,-24.0,-6.075,184.9063,1.1418,-6.5423,1.97,56.357,48.843933,2.3533285,536.1086,NaN,0.0,24.206451,,0 / 25,2026,2022-01-10 17:26:49:850
-3.541976,1.664208,-15.678671,9.292791,-0.39892,-3.107296,6.546254,-0.492175,6.708201,-1.787594,-10.785618,0.986006,5.0,14.1,-24.0,-6.075,184.9063,1.1418,-6.5423,1.97,56.357,48.843933,2.3533285,536.1086,NaN,0.0,24.206451,,0 / 25,2032,2022-01-10 17:26:49:856
-3.541976,1.664208,-15.678671,9.292791,-0.39892,-3.107296,6.546254,-0.492175,6.708201,-1.787594,-10.785618,0.986006,5.0,14.1,-24.0,-6.075,184.9063,1.1418,-6.5423,1.97,56.357,48.843933,2.3533285,536.1086,NaN,0.0,24.206451,,0 / 25,2036,2022-01-10 17:26:49:860
-3.541976,1.664208,-15.678671,9.292791,-0.39892,-3.107296,6.546254,-0.492175,6.708201,-1.787594,-10.785618,0.986006,5.0,14.1,-24.0,-6.075,184.9063,1.1418,-6.5423,1.97,56.357,48.843933,2.3533285,536.1086,NaN,0.0,24.206451,,0 / 25,2042,2022-01-10 17:26:49:866
-3.541976,1.664208,-15.678671,9.292791,-0.39892,-3.107296,6.546254,-0.492175,6.708201,-1.787594,-10.785618,0.986006,5.0,14.1,-24.0,-6.075,184.9063,1.1418,-6.5423,1.97,56.357,48.843933,2.3533285,536.1086,NaN,0.0,24.206451,,0 / 25,2047,2022-01-10 17:26:49:871
-3.541976,1.664208,-15.678671,9.292791,-0.39892,-3.107296,6.546254,-0.492175,6.708201,-1.787594,-10.785618,0.986006,5.0,14.1,-24.0,-6.075,184.9063,1.1418,-6.5423,1.97,56.357,48.843933,2.3533285,536.1086,NaN,0.0,24.206451,,0 / 25,2052,2022-01-10 17:26:49:876
-3.541976,1.664208,-15.678671,9.292791,-0.39892,-3.107296,6.546254,-0.492175,6.708201,-1.787594,-10.785618,0.986006,5.0,14.1,-24.0,-6.075,184.9063,1.1418,-6.5423,1.97,56.357,48.843933,2.3533285,536.1086,NaN,0.0,24.206451,,0 / 25,2057,2022-01-10 17:26:49:881
-3.541976,1.664208,-15.678671,5.475689,-0.146808,-8.134228,-3.251542,1.016525,-8.89271,-1.787594,-10.785618,0.986006,5.0,14.1,-24.0,-6.075,184.9063,1.1418,-6.5423,1.97,56.357,48.843933,2.3533285,536.1086,NaN,0.0,24.206451,,0 / 25,2061,2022-01-10 17:26:49:885
-3.541976,1.664208,-15.678671,5.475689,-0.146808,-8.134228,-3.251542,1.016525,-8.89271,-1.787594,-10.785618,0.986006,5.0,14.1,-24.0,-6.075,184.9063,1.1418,-6.5423,1.97,56.357,48.843933,2.3533285,536.1086,NaN,0.0,24.206451,,0 / 25,2066,2022-01-10 17:26:49:890
-3.541976,1.664208,-15.678671,5.475689,-0.146808,-8.134228,-3.251542,1.016525,-8.89271,-1.787594,-10.785618,0.986006,5.0,14.1,-24.0,-6.075,184.9063,1.1418,-6.5423,1.97,56.357,48.843933,2.3533285,536.1086,NaN,0.0,24.206451,,0 / 25,2071,2022-01-10 17:26:49:895
-3.541976,1.664208,-15.678671,5.475689,-0.146808,-8.134228,-3.251542,1.016525,-8.89271,-1.787594,-10.785618,0.986006,5.0,14.1,-24.0,-6.075,184.9063,1.1418,-6.5423,1.97,56.357,48.843933,2.3533285,536.1086,NaN,0.0,24.206451,,0 / 25,2077,2022-01-10 17:26:49:901
-3.541976,1.664208,-15.678671,5.475689,-0.146808,-8.134228,-3.251542,1.016525,-8.89271,-1.787594,-10.785618,0.986006,5.0,-1.875,-21.825,-6.375,192.8623,0.8578,-146.0529,1.97,56.357,48.843933,2.3533285,536.1086,NaN,0.0,24.206451,,0 / 25,2081,2022-01-10 17:26:49:905
-3.541976,1.664208,-15.678671,5.475689,-0.146808,-8.134228,-3.251542,1.016525,-8.89271,-1.787594,-10.785618,0.986006,5.0,-1.875,-21.825,-6.375,192.8623,0.8578,-146.0529,1.97,56.357,48.843933,2.3533285,536.1086,NaN,0.0,24.206451,,0 / 25,2087,2022-01-10 17:26:49:911
-3.541976,1.664208,-15.678671,5.475689,-0.146808,-8.134228,-3.251542,1.016525,-8.89271,-1.787594,-10.785618,0.986006,5.0,-1.875,-21.825,-6.375,192.8623,0.8578,-146.0529,1.97,56.357,48.843933,2.3533285,536.1086,NaN,0.0,24.206451,,0 / 25,2092,2022-01-10 17:26:49:916
-3.541976,1.664208,-15.678671,5.475689,-0.146808,-8.134228,-3.251542,1.016525,-8.89271,-1.787594,-10.785618,0.986006,5.0,-1.875,-21.825,-6.375,192.8623,0.8578,-146.0529,1.97,56.357,48.843933,2.3533285,536.1086,NaN,0.0,24.206451,,0 / 25,2097,2022-01-10 17:26:49:921
-3.541976,1.664208,-15.678671,5.475689,-0.146808,-8.134228,-3.251542,1.016525,-8.89271,-1.787594,-10.785618,0.986006,5.0,-1.875,-21.825,-6.375,192.8623,0.8578,-146.0529,1.97,56.357,48.843933,2.3533285,536.1086,NaN,0.0,24.206451,,0 / 25,2101,2022-01-10 17:26:49:925
-3.541976,1.664208,-15.678671,5.475689,-0.146808,-8.134228,-3.251542,1.016525,-8.89271,-1.787594,-10.785618,0.986006,5.0,-1.875,-21.825,-6.375,192.8623,0.8578,-146.0529,1.97,56.357,48.843933,2.3533285,536.1086,NaN,0.0,24.206451,,0 / 25,2106,2022-01-10 17:26:49:930
-3.541976,1.664208,-15.678671,5.475689,-0.146808,-8.134228,-3.251542,1.016525,-8.89271,-1.787594,-10.785618,0.986006,5.0,-1.875,-21.825,-6.375,192.8623,0.8578,-146.0529,1.97,56.357,48.843933,2.3533285,536.1086,NaN,0.0,24.206451,,0 / 25,2112,2022-01-10 17:26:49:936
-3.541976,1.664208,-15.678671,5.475689,-0.146808,-8.134228,-3.251542,1.016525,-8.89271,-1.787594,-10.785618,0.986006,5.0,-1.875,-21.825,-6.375,192.8623,0.8578,-146.0529,1.97,56.357,48.843933,2.3533285,536.1086,NaN,0.0,24.206451,,0 / 25,2117,2022-01-10 17:26:49:941
5.880661,1.324128,-11.965908,5.475689,-0.146808,-8.134228,-3.251542,1.016525,-8.89271,0.610645,0.066577,0.192275,5.0,-1.875,-21.825,-6.375,192.8623,0.8578,-146.0529,1.97,56.357,48.843933,2.3533285,536.1086,NaN,0.0,24.206451,,0 / 25,2121,2022-01-10 17:26:49:945
5.880661,1.324128,-11.965908,5.475689,-0.146808,-8.134228,-3.251542,1.016525,-8.89271,0.610645,0.066577,0.192275,5.0,-1.875,-21.825,-6.375,192.8623,0.8578,-146.0529,1.97,56.357,48.843933,2.3533285,536.1086,NaN,0.0,24.206451,,0 / 25,2127,2022-01-10 17:26:49:951
5.880661,1.324128,-11.965908,5.475689,-0.146808,-8.134228,-3.251542,1.016525,-8.89271,0.610645,0.066577,0.192275,5.0,-1.875,-21.825,-6.375,192.8623,0.8578,-146.0529,1.97,56.357,48.843933,2.3533285,536.1086,NaN,0.0,24.206451,,0 / 25,2133,2022-01-10 17:26:49:957
5.880661,1.324128,-11.965908,5.475689,-0.146808,-8.134228,-3.251542,1.016525,-8.89271,0.610645,0.066577,0.192275,5.0,-1.875,-21.825,-6.375,192.8623,0.8578,-146.0529,1.97,56.357,48.843933,2.3533285,536.1086,NaN,0.0,24.206451,,0 / 25,2137,2022-01-10 17:26:49:961
5.880661,1.324128,-11.965908,5.475689,-0.146808,-8.134228,-3.251542,1.016525,-8.89271,0.610645,0.066577,0.192275,5.0,-1.875,-21.825,-6.375,192.8623,0.8578,-146.0529,1.97,56.357,48.843933,2.3533285,536.1086,NaN,0.0,24.206451,,0 / 25,2142,2022-01-10 17:26:49:966
5.880661,1.324128,-11.965908,5.475689,-0.146808,-8.134228,-3.251542,1.016525,-8.89271,0.610645,0.066577,0.192275,5.0,-1.875,-21.825,-6.375,192.8623,0.8578,-146.0529,1.97,56.357,48.843933,2.3533285,536.1086,NaN,0.0,24.206451,,0 / 25,2147,2022-01-10 17:26:49:971
5.880661,1.324128,-11.965908,5.475689,-0.146808,-8.134228,-3.251542,1.016525,-8.89271,0.610645,0.066577,0.192275,5.0,-1.875,-21.825,-6.375,192.8623,0.8578,-146.0529,1.97,56.357,48.843933,2.3533285,536.1086,NaN,0.0,24.206451,,0 / 25,2151,2022-01-10 17:26:49:975
5.880661,1.324128,-11.965908,5.475689,-0.146808,-8.134228,-3.251542,1.016525,-8.89271,0.610645,0.066577,0.192275,5.0,-1.875,-21.825,-6.375,192.8623,0.8578,-146.0529,1.97,56.357,48.843933,2.3533285,536.1086,NaN,0.0,24.206451,,0 / 25,2156,2022-01-10 17:26:49:980
5.880661,1.324128,-11.965908,5.475689,-0.146808,-8.134228,-3.251542,1.016525,-8.89271,0.610645,0.066577,0.192275,5.0,-1.875,-21.825,-6.375,192.8623,0.8578,-146.0529,1.97,56.357,48.843933,2.3533285,536.1086,NaN,0.0,24.206451,,0 / 25,2162,2022-01-10 17:26:49:986
5.880661,1.324128,-11.965908,5.475689,-0.146808,-8.134228,-3.251542,1.016525,-8.89271,0.610645,0.066577,0.192275,5.0,-1.875,-21.825,-6.375,192.8623,0.8578,-146.0529,1.97,56.357,48.843933,2.3533285,536.1086,NaN,0.0,24.206451,,0 / 25,2166,2022-01-10 17:26:49:990
5.880661,1.324128,-11.965908,5.475689,-0.146808,-8.134228,-3.251542,1.016525,-8.89271,0.610645,0.066577,0.192275,5.0,-1.875,-21.825,-6.375,192.8623,0.8578,-146.0529,1.97,56.357,48.843933,2.3533285,536.1086,NaN,0.0,24.206451,,0 / 25,2172,2022-01-10 17:26:49:996
5.880661,1.324128,-11.965908,5.475689,-0.146808,-8.134228,-3.251542,1.016525,-8.89271,0.610645,0.066577,0.192275,5.0,-1.875,-21.825,-6.375,192.8623,0.8578,-146.0529,1.97,56.357,48.843933,2.3533285,536.1086,NaN,0.0,24.206451,,0 / 25,2177,2022-01-10 17:26:50:001
5.880661,1.324128,-11.965908,5.475689,-0.146808,-8.134228,-3.251542,1.016525,-8.89271,0.610645,0.066577,0.192275,5.0,-1.875,-21.825,-6.375,192.8623,0.8578,-146.0529,1.97,56.357,48.843933,2.3533285,536.1086,NaN,0.0,24.206451,,0 / 25,2181,2022-01-10 17:26:50:005
5.880661,1.324128,-11.965908,5.475689,-0.146808,-8.134228,-3.251542,1.016525,-8.89271,0.610645,0.066577,0.192275,5.0,-1.875,-21.825,-6.375,192.8623,0.8578,-146.0529,1.97,56.357,48.843933,2.3533285,536.1086,NaN,0.0,24.206451,,0 / 25,2187,2022-01-10 17:26:50:011
5.880661,1.324128,-11.965908,4.750562,-0.334378,-8.572675,1.275938,0.565762,-3.669771,0.610645,0.066577,0.192275,5.0,-1.875,-21.825,-6.375,192.8623,0.8578,-146.0529,1.97,56.357,48.843933,2.3533285,536.1086,NaN,0.0,24.206451,,0 / 25,2192,2022-01-10 17:26:50:016
5.880661,1.324128,-11.965908,4.750562,-0.334378,-8.572675,1.275938,0.565762,-3.669771,0.610645,0.066577,0.192275,5.0,-1.875,-21.825,-6.375,192.8623,0.8578,-146.0529,1.97,56.357,48.843933,2.3533285,536.1086,NaN,0.0,24.206451,,0 / 25,2197,2022-01-10 17:26:50:021
5.880661,1.324128,-11.965908,4.750562,-0.334378,-8.572675,1.275938,0.565762,-3.669771,0.610645,0.066577,0.192275,5.0,-1.875,-21.825,-6.375,192.8623,0.8578,-146.0529,1.97,56.357,48.843933,2.3533285,536.1086,NaN,0.0,24.206451,,0 / 25,2201,2022-01-10 17:26:50:025
0.391227,-1.601995,-12.841382,4.750562,-0.334378,-8.572675,1.275938,0.565762,-3.669771,0.610645,0.066577,0.192275,5.0,-1.875,-21.825,-6.375,192.8623,0.8578,-146.0529,1.97,56.357,48.843933,2.3533285,536.1086,NaN,0.0,24.206451,,0 / 25,2207,2022-01-10 17:26:50:031
0.391227,-1.601995,-12.841382,4.750562,-0.334378,-8.572675,1.275938,0.565762,-3.669771,0.610645,0.066577,0.192275,5.0,-1.875,-21.825,-6.375,192.8623,0.8578,-146.0529,1.97,56.357,48.843933,2.3533285,536.1086,NaN,0.0,24.206451,,0 / 25,2211,2022-01-10 17:26:50:035
0.391227,-1.601995,-12.841382,4.750562,-0.334378,-8.572675,1.275938,0.565762,-3.669771,0.610645,0.066577,0.192275,5.0,-1.875,-21.825,-6.375,192.8623,0.8578,-146.0529,1.97,56.357,48.843933,2.3533285,536.1086,NaN,0.0,24.206451,,0 / 25,2217,2022-01-10 17:26:50:041
0.391227,-1.601995,-12.841382,4.750562,-0.334378,-8.572675,1.275938,0.565762,-3.669771,0.610645,0.066577,0.192275,5.0,-1.875,-21.825,-6.375,192.8623,0.8578,-146.0529,1.97,56.357,48.843933,2.3533285,536.1086,NaN,0.0,24.206451,,0 / 25,2221,2022-01-10 17:26:50:045
0.391227,-1.601995,-12.841382,4.750562,-0.334378,-8.572675,1.275938,0.565762,-3.669771,0.610645,0.066577,0.192275,5.0,-2.1,-21.075,-2.7,188.7014,1.954,-151.0069,1.97,56.357,48.843933,2.3533285,536.1086,NaN,0.0,24.206451,,0 / 25,2227,2022-01-10 17:26:50:051
0.391227,-1.601995,-12.841382,4.750562,-0.334378,-8.572675,1.275938,0.565762,-3.669771,0.610645,0.066577,0.192275,5.0,-2.1,-21.075,-2.7,188.7014,1.954,-151.0069,1.97,56.357,48.843933,2.3533285,536.1086,NaN,0.0,24.206451,,0 / 25,2231,2022-01-10 17:26:50:055
0.391227,-1.601995,-12.841382,4.750562,-0.334378,-8.572675,1.275938,0.565762,-3.669771,0.610645,0.066577,0.192275,5.0,-2.1,-21.075,-2.7,188.7014,1.954,-151.0069,1.97,56.357,48.843933,2.3533285,536.1086,NaN,0.0,24.206451,,0 / 25,2237,2022-01-10 17:26:50:061
0.391227,-1.601995,-12.841382,4.750562,-0.334378,-8.572675,1.275938,0.565762,-3.669771,0.610645,0.066577,0.192275,5.0,-2.1,-21.075,-2.7,188.7014,1.954,-151.0069,1.97,56.357,48.843933,2.3533285,536.1086,NaN,0.0,24.206451,,0 / 25,2242,2022-01-10 17:26:50:066
0.391227,-1.601995,-12.841382,4.750562,-0.334378,-8.572675,1.275938,0.565762,-3.669771,-1.22808,-7.678732,-0.090412,5.0,-2.1,-21.075,-2.7,188.7014,1.954,-151.0069,1.97,56.357,48.843933,2.3533285,536.1086,NaN,0.0,24.206451,,0 / 25,2247,2022-01-10 17:26:50:071
0.391227,-1.601995,-12.841382,4.750562,-0.334378,-8.572675,1.275938,0.565762,-3.669771,-1.22808,-7.678732,-0.090412,5.0,-2.1,-21.075,-2.7,188.7014,1.954,-151.0069,1.97,56.357,48.843933,2.3533285,536.1086,NaN,0.0,24.206451,,0 / 25,2252,2022-01-10 17:26:50:076
0.391227,-1.601995,-12.841382,4.750562,-0.334378,-8.572675,1.275938,0.565762,-3.669771,-1.22808,-7.678732,-0.090412,5.0,-2.1,-21.075,-2.7,188.7014,1.954,-151.0069,1.97,56.357,48.843933,2.3533285,536.1086,NaN,0.0,24.206451,,0 / 25,2256,2022-01-10 17:26:50:080
0.391227,-1.601995,-12.841382,4.750562,-0.334378,-8.572675,1.275938,0.565762,-3.669771,-1.22808,-7.678732,-0.090412,5.0,-2.1,-21.075,-2.7,188.7014,1.954,-151.0069,1.97,56.357,48.843933,2.3533285,536.1086,NaN,0.0,24.206451,,0 / 25,2261,2022-01-10 17:26:50:085
0.391227,-1.601995,-12.841382,4.750562,-0.334378,-8.572675,1.275938,0.565762,-3.669771,-1.22808,-7.678732,-0.090412,5.0,-2.1,-21.075,-2.7,188.7014,1.954,-151.0069,1.97,56.357,48.843933,2.3533285,536.1086,NaN,0.0,24.206451,,0 / 25,2267,2022-01-10 17:26:50:091
0.391227,-1.601995,-12.841382,4.750562,-0.334378,-8.572675,1.275938,0.565762,-3.669771,-1.22808,-7.678732,-0.090412,5.0,-2.1,-21.075,-2.7,188.7014,1.954,-151.0069,1.97,38.11995,48.843933,2.3533285,536.1086,NaN,0.0,24.206451,,0 / 25,2272,2022-01-10 17:26:50:096
0.391227,-1.601995,-12.841382,4.750562,-0.334378,-8.572675,1.275938,0.565762,-3.669771,-1.22808,-7.678732,-0.090412,5.0,-2.1,-21.075,-2.7,188.7014,1.954,-151.0069,1.97,38.11995,48.843933,2.3533285,536.1086,NaN,0.0,24.206451,,0 / 25,2277,2022-01-10 17:26:50:101
0.391227,-1.601995,-12.841382,4.750562,-0.334378,-8.572675,1.275938,0.565762,-3.669771,-1.22808,-7.678732,-0.090412,5.0,-2.1,-21.075,-2.7,188.7014,1.954,-151.0069,1.97,38.11995,48.843933,2.3533285,536.1086,NaN,0.0,24.206451,,0 / 25,2283,2022-01-10 17:26:50:107
-7.963014,0.715753,-16.726728,4.750562,-0.334378,-8.572675,1.275938,0.565762,-3.669771,-1.22808,-7.678732,-0.090412,5.0,-2.1,-21.075,-2.7,188.7014,1.954,-151.0069,1.97,38.11995,48.843933,2.3533285,536.1086,NaN,0.0,24.206451,,0 / 25,2287,2022-01-10 17:26:50:111
-7.963014,0.715753,-16.726728,4.750562,-0.334378,-8.572675,1.275938,0.565762,-3.669771,-1.22808,-7.678732,-0.090412,5.0,-2.1,-21.075,-2.7,188.7014,1.954,-151.0069,1.97,38.11995,48.843933,2.3533285,536.1086,NaN,0.0,24.206451,,0 / 25,2292,2022-01-10 17:26:50:116
-7.963014,0.715753,-16.726728,4.750562,-0.334378,-8.572675,1.275938,0.565762,-3.669771,-1.22808,-7.678732,-0.090412,5.0,-2.1,-21.075,-2.7,188.7014,1.954,-151.0069,1.97,38.11995,48.843933,2.3533285,536.1086,NaN,0.0,24.206451,,0 / 25,2297,2022-01-10 17:26:50:121
-7.963014,0.715753,-16.726728,4.750562,-0.334378,-8.572675,1.275938,0.565762,-3.669771,-1.22808,-7.678732,-0.090412,5.0,-2.1,-21.075,-2.7,188.7014,1.954,-151.0069,1.97,38.11995,48.843933,2.3533285,536.1086,NaN,0.0,24.206451,,0 / 25,2301,2022-01-10 17:26:50:125
-7.963014,0.715753,-16.726728,-4.430038,0.637094,-8.725781,2.351838,-1.455871,-6.146795,-1.22808,-7.678732,-0.090412,5.0,-2.1,-21.075,-2.7,188.7014,1.954,-151.0069,1.97,38.11995,48.843933,2.3533285,536.1086,NaN,0.0,24.206451,,0 / 25,2307,2022-01-10 17:26:50:131
-7.963014,0.715753,-16.726728,-4.430038,0.637094,-8.725781,2.351838,-1.455871,-6.146795,-1.22808,-7.678732,-0.090412,5.0,-2.1,-21.075,-2.7,188.7014,1.954,-151.0069,1.97,38.11995,48.843933,2.3533285,536.1086,NaN,0.0,24.206451,,0 / 25,2311,2022-01-10 17:26:50:135
-7.963014,0.715753,-16.726728,-4.430038,0.637094,-8.725781,2.351838,-1.455871,-6.146795,-1.22808,-7.678732,-0.090412,5.0,-2.1,-21.075,-2.7,188.7014,1.954,-151.0069,1.97,38.11995,48.843933,2.3533285,536.1086,NaN,0.0,24.206451,,0 / 25,2317,2022-01-10 17:26:50:141
-7.963014,0.715753,-16.726728,-4.430038,0.637094,-8.725781,2.351838,-1.455871,-6.146795,-1.22808,-7.678732,-0.090412,5.0,-2.1,-21.075,-2.7,188.7014,1.954,-151.0069,1.97,38.11995,48.843933,2.3533285,536.1086,NaN,0.0,24.206451,,0 / 25,2322,2022-01-10 17:26:50:146
