ACCELEROMETER X (m/s²),ACCELEROMETER Y (m/s²),ACCELEROMETER Z (m/s²),GRAVITY X (m/s²),GRAVITY Y (m/s²),GRAVITY Z (m/s²),LINEAR ACCELERATION X (m/s²),LINEAR ACCELERATION Y (m/s²),LINEAR ACCELERATION Z (m/s²),GYROSCOPE X (rad/s),GYROSCOPE Y (rad/s),GYROSCOPE Z (rad/s),LIGHT (lux),MAGNETIC FIELD X (μT),MAGNETIC FIELD Y (μT),MAGNETIC FIELD Z (μT),ORIENTATION Z (azimuth °),ORIENTATION X (pitch °),ORIENTATION Y (roll °),PROXIMITY (i),SOUND LEVEL (dB),LOCATION Latitude : ,LOCATION Longitude : ,LOCATION Altitude ( m),LOCATION Altitude-google ( m),LOCATION Speed ( Kmh),LOCATION Accuracy ( m),LOCATION ORIENTATION (°),Satellites in range,Time since start in ms ,YYYY-MO-DD HH-MI-SS_SSS
-1.443769,3.120839,9.18156,-1.217486,2.950745,9.272606,-0.175783,0.016177,0.208444,0.006125,-0.03502,0.025033,55.0,18.9,-5.7,-32.4,287.5669,-17.6553,7.441,5.0,26.67864,48.8439,2.3533363,307.0968,NaN,,44.303226,,5 / 17,8,2022-01-10 17:04:32:537
-1.443769,3.120839,9.18156,-1.217486,2.950745,9.272606,-0.175783,0.016177,0.208444,0.006125,-0.03502,0.025033,55.0,18.9,-5.7,-32.4,287.5669,-17.6553,7.441,5.0,26.67864,48.8439,2.3533363,307.0968,NaN,,44.303226,,5 / 17,14,2022-01-10 17:04:32:543
-1.443769,3.120839,9.18156,-1.217486,2.950745,9.272606,-0.175783,0.016177,0.208444,0.006125,-0.03502,0.025033,55.0,18.9,-5.7,-32.4,287.5669,-17.6553,7.441,5.0,26.67864,48.8439,2.3533363,307.0968,NaN,,44.303226,,5 / 17,18,2022-01-10 17:04:32:547
-1.443769,3.120839,9.18156,-1.217486,2.950745,9.272606,-0.175783,0.016177,0.208444,0.006125,-0.03502,0.025033,55.0,18.9,-5.7,-32.4,287.5669,-17.6553,7.441,5.0,26.67864,48.8439,2.3533363,307.0968,NaN,,44.303226,,5 / 17,24,2022-01-10 17:04:32:553
-1.443769,3.120839,9.18156,-1.217486,2.950745,9.272606,-0.175783,0.016177,0.208444,0.006125,-0.03502,0.025033,55.0,18.9,-5.7,-32.4,287.5669,-17.6553,7.441,5.0,26.67864,48.8439,2.3533363,307.0968,NaN,,44.303226,,5 / 17,28,2022-01-10 17:04:32:557
-1.443769,3.120839,9.18156,-1.217486,2.950745,9.272606,-0.175783,0.016177,0.208444,0.006125,-0.03502,0.025033,55.0,18.9,-5.7,-32.4,287.5669,-17.6553,7.441,5.0,26.67864,48.8439,2.3533363,307.0968,NaN,,44.303226,,5 / 17,33,2022-01-10 17:04:32:562
-1.443769,3.120839,9.18156,-1.217486,2.950745,9.272606,-0.175783,0.016177,0.208444,0.006125,-0.03502,0.025033,55.0,18.9,-5.7,-32.4,287.5669,-17.6553,7.441,5.0,26.67864,48.8439,2.3533363,307.0968,NaN,,44.303226,,5 / 17,39,2022-01-10 17:04:32:568
-1.443769,3.120839,9.18156,-1.217486,2.950745,9.272606,-0.175783,0.016177,0.208444,0.006125,-0.03502,0.025033,55.0,18.9,-5.7,-32.4,287.5669,-17.6553,7.441,5.0,26.67864,48.8439,2.3533363,307.0968,NaN,,44.303226,,5 / 17,43,2022-01-10 17:04:32:572
-1.443769,3.120839,9.18156,-1.217486,2.950745,9.272606,-0.175783,0.016177,0.208444,0.006125,-0.03502,0.025033,55.0,18.9,-5.7,-32.4,287.5669,-17.6553,7.441,5.0,26.67864,48.8439,2.3533363,307.0968,NaN,,44.303226,,5 / 17,48,2022-01-10 17:04:32:577
-1.443769,3.120839,9.18156,-1.217486,2.950745,9.272606,-0.175783,0.016177,0.208444,0.006125,-0.03502,0.025033,55.0,18.9,-5.7,-32.4,287.5669,-17.6553,7.441,5.0,26.67864,48.8439,2.3533363,307.0968,NaN,,44.303226,,5 / 17,53,2022-01-10 17:04:32:582
-1.443769,3.120839,9.18156,-1.217486,2.950745,9.272606,-0.175783,0.016177,0.208444,0.006125,-0.03502,0.025033,55.0,18.9,-5.7,-32.4,287.5669,-17.6553,7.441,5.0,26.67864,48.8439,2.3533363,307.0968,NaN,,44.303226,,5 / 17,58,2022-01-10 17:04:32:587
-1.443769,3.120839,9.18156,-1.217486,2.950745,9.272606,-0.175783,0.016177,0.208444,0.006125,-0.03502,0.025033,55.0,18.9,-5.7,-32.4,287.5669,-17.6553,7.441,5.0,26.67864,48.8439,2.3533363,307.0968,NaN,,44.303226,,5 / 17,63,2022-01-10 17:04:32:592
-1.443769,3.120839,9.18156,-1.217486,2.950745,9.272606,-0.175783,0.016177,0.208444,0.006125,-0.03502,0.025033,55.0,18.9,-5.7,-32.4,287.5669,-17.6553,7.441,5.0,26.67864,48.8439,2.3533363,307.0968,NaN,,44.303226,,5 / 17,68,2022-01-10 17:04:32:597
-1.443769,3.120839,9.18156,-1.217486,2.950745,9.272606,-0.175783,0.016177,0.208444,0.006125,-0.03502,0.025033,55.0,18.9,-5.7,-32.4,287.5669,-17.6553,7.441,5.0,26.67864,48.8439,2.3533363,307.0968,NaN,,44.303226,,5 / 17,73,2022-01-10 17:04:32:602
-1.443769,3.120839,9.18156,-1.217486,2.950745,9.272606,-0.175783,0.016177,0.208444,0.006125,-0.03502,0.025033,55.0,18.9,-5.7,-32.4,287.5669,-17.6553,7.441,5.0,26.67864,48.8439,2.3533363,307.0968,NaN,,44.303226,,5 / 17,78,2022-01-10 17:04:32:607
-1.443769,3.120839,9.18156,-1.217486,2.950745,9.272606,-0.175783,0.016177,0.208444,0.006125,-0.03502,0.025033,55.0,18.9,-5.7,-32.4,287.5669,-17.6553,7.441,5.0,26.67864,48.8439,2.3533363,307.0968,NaN,,44.303226,,5 / 17,83,2022-01-10 17:04:32:612
-1.28674,2.990131,9.023335,-1.129478,2.903207,9.298713,-0.178382,0.156777,-0.159147,0.006125,-0.03502,0.025033,55.0,18.9,-5.7,-32.4,287.5669,-17.6553,7.441,5.0,26.67864,48.8439,2.3533363,307.0968,NaN,,44.303226,,5 / 17,88,2022-01-10 17:04:32:617
-1.28674,2.990131,9.023335,-1.129478,2.903207,9.298713,-0.178382,0.156777,-0.159147,0.006125,-0.03502,0.025033,55.0,18.6,-5.4,-32.55,290.6226,-17.2202,6.9256,5.0,26.67864,48.8439,2.3533363,307.0968,NaN,,44.303226,,5 / 17,93,2022-01-10 17:04:32:622
-1.28674,2.990131,9.023335,-1.129478,2.903207,9.298713,-0.178382,0.156777,-0.159147,-0.231156,-0.172035,0.162049,55.0,18.6,-5.4,-32.55,290.6226,-17.2202,6.9256,5.0,26.67864,48.8439,2.3533363,307.0968,NaN,,44.303226,,5 / 17,99,2022-01-10 17:04:32:628
-1.28674,2.990131,9.023335,-1.129478,2.903207,9.298713,-0.178382,0.156777,-0.159147,-0.231156,-0.172035,0.162049,55.0,18.6,-5.4,-32.55,290.6226,-17.2202,6.9256,5.0,26.67864,48.8439,2.3533363,307.0968,NaN,,44.303226,,5 / 17,103,2022-01-10 17:04:32:632
-1.28674,2.990131,9.023335,-1.129478,2.903207,9.298713,-0.178382,0.156777,-0.159147,-0.231156,-0.172035,0.162049,55.0,18.6,-5.4,-32.55,290.6226,-17.2202,6.9256,5.0,26.67864,48.8439,2.3533363,307.0968,NaN,,44.303226,,5 / 17,108,2022-01-10 17:04:32:637
-1.28674,2.990131,9.023335,-1.129478,2.903207,9.298713,-0.178382,0.156777,-0.159147,-0.231156,-0.172035,0.162049,55.0,18.6,-5.4,-32.55,290.6226,-17.2202,6.9256,5.0,26.67864,48.8439,2.3533363,307.0968,NaN,,44.303226,,5 / 17,113,2022-01-10 17:04:32:642
-1.28674,2.990131,9.023335,-1.129478,2.903207,9.298713,-0.178382,0.156777,-0.159147,-0.231156,-0.172035,0.162049,55.0,18.6,-5.4,-32.55,290.6226,-17.2202,6.9256,5.0,26.67864,48.8439,2.3533363,307.0968,NaN,,44.303226,,5 / 17,118,2022-01-10 17:04:32:647
-1.28674,2.990131,9.023335,-1.129478,2.903207,9.298713,-0.178382,0.156777,-0.159147,-0.231156,-0.172035,0.162049,55.0,18.6,-5.4,-32.55,290.6226,-17.2202,6.9256,5.0,26.67864,48.8439,2.3533363,307.0968,NaN,,44.303226,,5 / 17,123,2022-01-10 17:04:32:652
-1.28674,2.990131,9.023335,-1.129478,2.903207,9.298713,-0.178382,0.156777,-0.159147,-0.231156,-0.172035,0.162049,55.0,18.6,-5.4,-32.55,290.6226,-17.2202,6.9256,5.0,26.67864,48.8439,2.3533363,307.0968,NaN,,44.303226,,5 / 17,129,2022-01-10 17:04:32:658
-1.28674,2.990131,9.023335,-1.129478,2.903207,9.298713,-0.178382,0.156777,-0.159147,-0.231156,-0.172035,0.162049,55.0,18.6,-5.4,-32.55,290.6226,-17.2202,6.9256,5.0,26.67864,48.8439,2.3533363,307.0968,NaN,,44.303226,,5 / 17,132,2022-01-10 17:04:32:661
-1.28674,2.990131,9.023335,-1.129478,2.903207,9.298713,-0.178382,0.156777,-0.159147,-0.231156,-0.172035,0.162049,55.0,18.6,-5.4,-32.55,290.6226,-17.2202,6.9256,5.0,26.67864,48.8439,2.3533363,307.0968,NaN,,44.303226,,5 / 17,138,2022-01-10 17:04:32:667
-1.28674,2.990131,9.023335,-1.129478,2.903207,9.298713,-0.178382,0.156777,-0.159147,-0.231156,-0.172035,0.162049,55.0,18.6,-5.4,-32.55,290.6226,-17.2202,6.9256,5.0,26.67864,48.8439,2.3533363,307.0968,NaN,,44.303226,,5 / 17,144,2022-01-10 17:04:32:673
-1.28674,2.990131,9.023335,-1.129478,2.903207,9.298713,-0.178382,0.156777,-0.159147,-0.231156,-0.172035,0.162049,55.0,18.6,-5.4,-32.55,290.6226,-17.2202,6.9256,5.0,26.67864,48.8439,2.3533363,307.0968,NaN,,44.303226,,5 / 17,147,2022-01-10 17:04:32:676
-1.28674,2.990131,9.023335,-1.129478,2.903207,9.298713,-0.178382,0.156777,-0.159147,-0.231156,-0.172035,0.162049,55.0,18.6,-5.4,-32.55,290.6226,-17.2202,6.9256,5.0,26.67864,48.8439,2.3533363,307.0968,NaN,,44.303226,,5 / 17,153,2022-01-10 17:04:32:682
-1.28674,2.990131,9.023335,-1.129478,2.903207,9.298713,-0.178382,0.156777,-0.159147,-0.231156,-0.172035,0.162049,55.0,18.6,-5.4,-32.55,290.6226,-17.2202,6.9256,5.0,26.67864,48.8439,2.3533363,307.0968,NaN,,44.303226,,5 / 17,158,2022-01-10 17:04:32:687
-1.28674,2.990131,9.023335,-1.129478,2.903207,9.298713,-0.178382,0.156777,-0.159147,-0.231156,-0.172035,0.162049,55.0,18.6,-5.4,-32.55,290.6226,-17.2202,6.9256,5.0,26.67864,48.8439,2.3533363,307.0968,NaN,,44.303226,,5 / 17,164,2022-01-10 17:04:32:693
-1.28674,2.990131,9.023335,-1.129478,2.903207,9.298713,-0.178382,0.156777,-0.159147,-0.231156,-0.172035,0.162049,55.0,18.6,-5.4,-32.55,290.6226,-17.2202,6.9256,5.0,26.67864,48.8439,2.3533363,307.0968,NaN,,44.303226,,5 / 17,168,2022-01-10 17:04:32:697
-1.28674,2.990131,9.023335,-1.129478,2.903207,9.298713,-0.178382,0.156777,-0.159147,-0.231156,-0.172035,0.162049,55.0,18.6,-5.4,-32.55,290.6226,-17.2202,6.9256,5.0,26.67864,48.8439,2.3533363,307.0968,NaN,,44.303226,,5 / 17,173,2022-01-10 17:04:32:702
-1.28674,2.990131,9.023335,-1.129478,2.903207,9.298713,-0.178382,0.156777,-0.159147,-0.231156,-0.172035,0.162049,55.0,18.6,-5.4,-32.55,290.6226,-17.2202,6.9256,5.0,26.67864,48.8439,2.3533363,307.0968,NaN,,44.303226,,5 / 17,178,2022-01-10 17:04:32:707
-1.28674,2.990131,9.023335,-1.129478,2.903207,9.298713,-0.178382,0.156777,-0.159147,-0.231156,-0.172035,0.162049,55.0,18.6,-5.4,-32.55,290.6226,-17.2202,6.9256,5.0,26.67864,48.8439,2.3533363,307.0968,NaN,,44.303226,,5 / 17,183,2022-01-10 17:04:32:712
-1.28674,2.990131,9.023335,-1.129478,2.903207,9.298713,-0.178382,0.156777,-0.159147,-0.231156,-0.172035,0.162049,55.0,18.6,-5.4,-32.55,290.6226,-17.2202,6.9256,5.0,26.67864,48.8439,2.3533363,307.0968,NaN,,44.303226,,5 / 17,188,2022-01-10 17:04:32:717
-1.28674,2.990131,9.023335,-1.129478,2.903207,9.298713,-0.178382,0.156777,-0.159147,-0.231156,-0.172035,0.162049,55.0,18.6,-5.4,-32.55,290.6226,-17.2202,6.9256,5.0,26.67864,48.8439,2.3533363,307.0968,NaN,,44.303226,,5 / 17,194,2022-01-10 17:04:32:723
-1.28674,2.990131,9.023335,-1.129478,2.903207,9.298713,-0.178382,0.156777,-0.159147,-0.231156,-0.172035,0.162049,55.0,18.6,-5.4,-32.55,290.6226,-17.2202,6.9256,5.0,26.67864,48.8439,2.3533363,307.0968,NaN,,44.303226,,5 / 17,198,2022-01-10 17:04:32:727
-0.211167,1.826023,9.41157,-0.915438,2.622164,9.405138,0.006926,0.045654,-0.087748,-0.231156,-0.172035,0.162049,55.0,18.6,-5.4,-32.55,290.6226,-17.2202,6.9256,5.0,26.67864,48.8439,2.3533363,307.0968,NaN,,44.303226,,5 / 17,202,2022-01-10 17:04:32:731
-0.211167,1.826023,9.41157,-0.915438,2.622164,9.405138,0.006926,0.045654,-0.087748,-0.231156,-0.172035,0.162049,55.0,18.6,-5.4,-32.55,290.6226,-17.2202,6.9256,5.0,26.67864,48.8439,2.3533363,307.0968,NaN,,44.303226,,5 / 17,209,2022-01-10 17:04:32:738
-0.211167,1.826023,9.41157,-0.915438,2.622164,9.405138,0.006926,0.045654,-0.087748,-0.231156,-0.172035,0.162049,55.0,18.6,-5.4,-32.55,290.6226,-17.2202,6.9256,5.0,26.67864,48.8439,2.3533363,307.0968,NaN,,44.303226,,5 / 17,213,2022-01-10 17:04:32:742
-0.211167,1.826023,9.41157,-0.915438,2.622164,9.405138,0.006926,0.045654,-0.087748,-0.231156,-0.172035,0.162049,55.0,18.6,-5.4,-32.55,290.6226,-17.2202,6.9256,5.0,26.67864,48.8439,2.3533363,307.0968,NaN,,44.303226,,5 / 17,218,2022-01-10 17:04:32:747
-0.211167,1.826023,9.41157,-0.915438,2.622164,9.405138,0.006926,0.045654,-0.087748,-0.231156,-0.172035,0.162049,55.0,18.6,-5.4,-32.55,290.6226,-17.2202,6.9256,5.0,26.67864,48.8439,2.3533363,307.0968,NaN,,44.303226,,5 / 17,222,2022-01-10 17:04:32:751
-0.211167,1.826023,9.41157,-0.915438,2.622164,9.405138,0.006926,0.045654,-0.087748,-0.231156,-0.172035,0.162049,55.0,18.6,-5.4,-32.55,290.6226,-17.2202,6.9256,5.0,26.67864,48.8439,2.3533363,307.0968,NaN,,44.303226,,5 / 17,229,2022-01-10 17:04:32:758
-0.211167,1.826023,9.41157,-0.915438,2.622164,9.405138,0.006926,0.045654,-0.087748,-0.24527,-0.22077,0.071104,55.0,18.6,-5.4,-32.55,290.6226,-17.2202,6.9256,5.0,26.67864,48.8439,2.3533363,307.0968,NaN,,44.303226,,5 / 17,232,2022-01-10 17:04:32:761
-0.211167,1.826023,9.41157,-0.915438,2.622164,9.405138,0.006926,0.045654,-0.087748,-0.24527,-0.22077,0.071104,55.0,18.6,-5.4,-32.55,290.6226,-17.2202,6.9256,5.0,26.67864,48.8439,2.3533363,307.0968,NaN,,44.303226,,5 / 17,238,2022-01-10 17:04:32:767
-0.211167,1.826023,9.41157,-0.915438,2.622164,9.405138,0.006926,0.045654,-0.087748,-0.24527,-0.22077,0.071104,55.0,18.6,-5.4,-32.55,290.6226,-17.2202,6.9256,5.0,26.67864,48.8439,2.3533363,307.0968,NaN,,44.303226,,5 / 17,243,2022-01-10 17:04:32:772
-0.211167,1.826023,9.41157,-0.915438,2.622164,9.405138,0.006926,0.045654,-0.087748,-0.24527,-0.22077,0.071104,55.0,18.3,-4.8,-33.225,286.7529,-15.5088,5.5593,5.0,26.67864,48.8439,2.3533363,307.0968,NaN,,44.303226,,5 / 17,248,2022-01-10 17:04:32:777
-0.211167,1.826023,9.41157,-0.915438,2.622164,9.405138,0.006926,0.045654,-0.087748,-0.24527,-0.22077,0.071104,55.0,18.3,-4.8,-33.225,286.7529,-15.5088,5.5593,5.0,26.67864,48.8439,2.3533363,307.0968,NaN,,44.303226,,5 / 17,254,2022-01-10 17:04:32:783
-0.211167,1.826023,9.41157,-0.915438,2.622164,9.405138,0.006926,0.045654,-0.087748,-0.24527,-0.22077,0.071104,55.0,18.3,-4.8,-33.225,286.7529,-15.5088,5.5593,5.0,26.67864,48.8439,2.3533363,307.0968,NaN,,44.303226,,5 / 17,259,2022-01-10 17:04:32:788
-0.211167,1.826023,9.41157,-0.915438,2.622164,9.405138,0.006926,0.045654,-0.087748,-0.24527,-0.22077,0.071104,55.0,18.3,-4.8,-33.225,286.7529,-15.5088,5.5593,5.0,26.67864,48.8439,2.3533363,307.0968,NaN,,44.303226,,5 / 17,263,2022-01-10 17:04:32:792
-0.211167,1.826023,9.41157,-0.915438,2.622164,9.405138,0.006926,0.045654,-0.087748,-0.24527,-0.22077,0.071104,55.0,18.3,-4.8,-33.225,286.7529,-15.5088,5.5593,5.0,26.67864,48.8439,2.3533363,307.0968,NaN,,44.303226,,5 / 17,268,2022-01-10 17:04:32:797
-0.211167,1.826023,9.41157,-0.915438,2.622164,9.405138,0.006926,0.045654,-0.087748,-0.24527,-0.22077,0.071104,55.0,18.3,-4.8,-33.225,286.7529,-15.5088,5.5593,5.0,26.67864,48.8439,2.3533363,307.0968,NaN,,44.303226,,5 / 17,273,2022-01-10 17:04:32:802
-0.211167,1.826023,9.41157,-0.915438,2.622164,9.405138,0.006926,0.045654,-0.087748,-0.24527,-0.22077,0.071104,55.0,18.3,-4.8,-33.225,286.7529,-15.5088,5.5593,5.0,26.67864,48.8439,2.3533363,307.0968,NaN,,44.303226,,5 / 17,277,2022-01-10 17:04:32:806
-0.211167,1.826023,9.41157,-0.915438,2.622164,9.405138,0.006926,0.045654,-0.087748,-0.24527,-0.22077,0.071104,55.0,18.3,-4.8,-33.225,286.7529,-15.5088,5.5593,5.0,26.67864,48.8439,2.3533363,307.0968,NaN,,44.303226,,5 / 17,282,2022-01-10 17:04:32:811
-0.211167,1.826023,9.41157,-0.915438,2.622164,9.405138,0.006926,0.045654,-0.087748,-0.24527,-0.22077,0.071104,55.0,18.3,-4.8,-33.225,286.7529,-15.5088,5.5593,5.0,22.67624,48.8439,2.3533363,307.0968,NaN,,44.303226,,5 / 17,287,2022-01-10 17:04:32:816
-0.505783,2.295614,9.207881,-0.915438,2.622164,9.405138,0.006926,0.045654,-0.087748,-0.24527,-0.22077,0.071104,55.0,18.3,-4.8,-33.225,286.7529,-15.5088,5.5593,5.0,22.67624,48.8439,2.3533363,307.0968,NaN,,44.303226,,5 / 17,292,2022-01-10 17:04:32:821
-0.505783,2.295614,9.207881,-0.915438,2.622164,9.405138,0.006926,0.045654,-0.087748,-0.24527,-0.22077,0.071104,55.0,18.3,-4.8,-33.225,286.7529,-15.5088,5.5593,5.0,22.67624,48.8439,2.3533363,307.0968,NaN,,44.303226,,5 / 17,297,2022-01-10 17:04:32:826
-0.505783,2.295614,9.207881,-0.915438,2.622164,9.405138,0.006926,0.045654,-0.087748,-0.24527,-0.22077,0.071104,55.0,18.3,-4.8,-33.225,286.7529,-15.5088,5.5593,5.0,22.67624,48.8439,2.3533363,307.0968,NaN,,44.303226,,5 / 17,303,2022-01-10 17:04:32:832
-0.505783,2.295614,9.207881,-0.915438,2.622164,9.405138,0.006926,0.045654,-0.087748,-0.24527,-0.22077,0.071104,55.0,18.3,-4.8,-33.225,286.7529,-15.5088,5.5593,5.0,22.67624,48.8439,2.3533363,307.0968,NaN,,44.303226,,5 / 17,307,2022-01-10 17:04:32:836
-0.505783,2.295614,9.207881,-0.915438,2.622164,9.405138,0.006926,0.045654,-0.087748,-0.24527,-0.22077,0.071104,55.0,18.3,-4.8,-33.225,286.7529,-15.5088,5.5593,5.0,22.67624,48.8439,2.3533363,307.0968,NaN,,44.303226,,5 / 17,313,2022-01-10 17:04:32:842
-0.505783,2.295614,9.207881,-0.915438,2.622164,9.405138,0.006926,0.045654,-0.087748,-0.24527,-0.22077,0.071104,55.0,18.3,-4.8,-33.225,286.7529,-15.5088,5.5593,5.0,22.67624,48.8439,2.3533363,307.0968,NaN,,44.303226,,5 / 17,318,2022-01-10 17:04:32:847
-0.505783,2.295614,9.207881,-0.915438,2.622164,9.405138,0.006926,0.045654,-0.087748,-0.24527,-0.22077,0.071104,55.0,18.3,-4.8,-33.225,286.7529,-15.5088,5.5593,5.0,22.67624,48.8439,2.3533363,307.0968,NaN,,44.303226,,5 / 17,323,2022-01-10 17:04:32:852
-0.505783,2.295614,9.207881,-0.915438,2.622164,9.405138,0.006926,0.045654,-0.087748,-0.24527,-0.22077,0.071104,55.0,18.3,-4.8,-33.225,286.7529,-15.5088,5.5593,5.0,22.67624,48.8439,2.3533363,307.0968,NaN,,44.303226,,5 / 17,328,2022-01-10 17:04:32:857
-0.505783,2.295614,9.207881,-0.610151,2.261432,9.522816,0.055306,0.133919,-0.212031,-0.24527,-0.22077,0.071104,55.0,18.3,-4.8,-33.225,286.7529,-15.5088,5.5593,5.0,22.67624,48.8439,2.3533363,307.0968,NaN,,44.303226,,5 / 17,332,2022-01-10 17:04:32:861
-0.505783,2.295614,9.207881,-0.610151,2.261432,9.522816,0.055306,0.133919,-0.212031,-0.24527,-0.22077,0.071104,55.0,18.3,-4.8,-33.225,286.7529,-15.5088,5.5593,5.0,22.67624,48.8439,2.3533363,307.0968,NaN,,44.303226,,5 / 17,337,2022-01-10 17:04:32:866
-0.505783,2.295614,9.207881,-0.610151,2.261432,9.522816,0.055306,0.133919,-0.212031,-0.24527,-0.22077,0.071104,55.0,18.3,-4.8,-33.225,286.7529,-15.5088,5.5593,5.0,22.67624,48.8439,2.3533363,307.0968,NaN,,44.303226,,5 / 17,343,2022-01-10 17:04:32:872
-0.505783,2.295614,9.207881,-0.610151,2.261432,9.522816,0.055306,0.133919,-0.212031,-0.24527,-0.22077,0.071104,55.0,18.3,-4.8,-33.225,286.7529,-15.5088,5.5593,5.0,22.67624,48.8439,2.3533363,307.0968,NaN,,44.303226,,5 / 17,348,2022-01-10 17:04:32:877
-0.505783,2.295614,9.207881,-0.610151,2.261432,9.522816,0.055306,0.133919,-0.212031,-0.24527,-0.22077,0.071104,55.0,18.3,-4.8,-33.225,286.7529,-15.5088,5.5593,5.0,22.67624,48.8439,2.3533363,307.0968,NaN,,44.303226,,5 / 17,352,2022-01-10 17:04:32:881
-0.505783,2.295614,9.207881,-0.610151,2.261432,9.522816,0.055306,0.133919,-0.212031,-0.24527,-0.22077,0.071104,55.0,18.3,-4.8,-33.225,286.7529,-15.5088,5.5593,5.0,22.67624,48.8439,2.3533363,307.0968,NaN,,44.303226,,5 / 17,357,2022-01-10 17:04:32:886
-0.505783,2.295614,9.207881,-0.610151,2.261432,9.522816,0.055306,0.133919,-0.212031,-0.24527,-0.22077,0.071104,55.0,18.3,-4.8,-33.225,286.7529,-15.5088,5.5593,5.0,22.67624,48.8439,2.3533363,307.0968,NaN,,44.303226,,5 / 17,363,2022-01-10 17:04:32:892
-0.505783,2.295614,9.207881,-0.610151,2.261432,9.522816,0.055306,0.133919,-0.212031,-0.598528,-0.309983,0.08695,55.0,18.3,-4.8,-33.225,286.7529,-15.5088,5.5593,5.0,22.67624,48.8439,2.3533363,307.0968,NaN,,44.303226,,5 / 17,367,2022-01-10 17:04:32:896
-0.505783,2.295614,9.207881,-0.610151,2.261432,9.522816,0.055306,0.133919,-0.212031,-0.598528,-0.309983,0.08695,55.0,18.3,-4.8,-33.225,286.7529,-15.5088,5.5593,5.0,22.67624,48.8439,2.3533363,307.0968,NaN,,44.303226,,5 / 17,373,2022-01-10 17:04:32:902
-0.505783,2.295614,9.207881,-0.610151,2.261432,9.522816,0.055306,0.133919,-0.212031,-0.598528,-0.309983,0.08695,55.0,18.3,-4.8,-33.225,286.7529,-15.5088,5.5593,5.0,22.67624,48.8439,2.3533363,307.0968,NaN,,44.303226,,5 / 17,377,2022-01-10 17:04:32:906
-0.505783,2.295614,9.207881,-0.610151,2.261432,9.522816,0.055306,0.133919,-0.212031,-0.598528,-0.309983,0.08695,55.0,18.3,-4.8,-33.225,286.7529,-15.5088,5.5593,5.0,22.67624,48.8439,2.3533363,307.0968,NaN,,44.303226,,5 / 17,383,2022-01-10 17:04:32:912
-0.242273,1.742274,9.283255,-0.610151,2.261432,9.522816,0.055306,0.133919,-0.212031,-0.598528,-0.309983,0.08695,55.0,18.3,-4.8,-33.225,286.7529,-15.5088,5.5593,5.0,22.67624,48.8439,2.3533363,307.0968,NaN,,44.303226,,5 / 17,387,2022-01-10 17:04:32:916
-0.242273,1.742274,9.283255,-0.610151,2.261432,9.522816,0.055306,0.133919,-0.212031,-0.598528,-0.309983,0.08695,55.0,18.3,-4.8,-33.225,286.7529,-15.5088,5.5593,5.0,22.67624,48.8439,2.3533363,307.0968,NaN,,44.303226,,5 / 17,393,2022-01-10 17:04:32:922
-0.242273,1.742274,9.283255,-0.610151,2.261432,9.522816,0.055306,0.133919,-0.212031,-0.598528,-0.309983,0.08695,55.0,18.3,-4.8,-33.225,286.7529,-15.5088,5.5593,5.0,22.67624,48.8439,2.3533363,307.0968,NaN,,44.303226,,5 / 17,398,2022-01-10 17:04:32:927
-0.242273,1.742274,9.283255,-0.610151,2.261432,9.522816,0.055306,0.133919,-0.212031,-0.598528,-0.309983,0.08695,55.0,18.3,-4.8,-33.225,286.7529,-15.5088,5.5593,5.0,22.67624,48.8439,2.3533363,307.0968,NaN,,44.303226,,5 / 17,403,2022-01-10 17:04:32:932
-0.242273,1.742274,9.283255,-0.610151,2.261432,9.522816,0.055306,0.133919,-0.212031,-0.598528,-0.309983,0.08695,55.0,18.3,-4.8,-33.225,286.7529,-15.5088,5.5593,5.0,22.67624,48.8439,2.3533363,307.0968,NaN,,44.303226,,5 / 17,407,2022-01-10 17:04:32:936
-0.242273,1.742274,9.283255,-0.610151,2.261432,9.522816,0.055306,0.133919,-0.212031,-0.598528,-0.309983,0.08695,58.0,18.3,-4.8,-33.225,286.7529,-15.5088,5.5593,5.0,22.67624,48.8439,2.3533363,307.0968,NaN,,44.303226,,5 / 17,413,2022-01-10 17:04:32:942
-0.242273,1.742274,9.283255,-0.610151,2.261432,9.522816,0.055306,0.133919,-0.212031,-0.598528,-0.309983,0.08695,58.0,18.3,-4.8,-33.225,286.7529,-15.5088,5.5593,5.0,22.67624,48.8439,2.3533363,307.0968,NaN,,44.303226,,5 / 17,418,2022-01-10 17:04:32:947
-0.242273,1.742274,9.283255,-0.610151,2.261432,9.522816,0.055306,0.133919,-0.212031,-0.598528,-0.309983,0.08695,58.0,18.3,-4.8,-33.225,286.7529,-15.5088,5.5593,5.0,22.67624,48.8439,2.3533363,307.0968,NaN,,44.303226,,5 / 17,423,2022-01-10 17:04:32:952
-0.242273,1.742274,9.283255,-0.610151,2.261432,9.522816,0.055306,0.133919,-0.212031,-0.598528,-0.309983,0.08695,58.0,18.3,-4.8,-33.225,286.7529,-15.5088,5.5593,5.0,22.67624,48.8439,2.3533363,307.0968,NaN,,44.303226,,5 / 17,428,2022-01-10 17:04:32:957
-0.242273,1.742274,9.283255,-0.610151,2.261432,9.522816,0.055306,0.133919,-0.212031,-0.598528,-0.309983,0.08695,58.0,18.3,-4.8,-33.225,286.7529,-15.5088,5.5593,5.0,22.67624,48.8439,2.3533363,307.0968,NaN,,44.303226,,5 / 17,432,2022-01-10 17:04:32:961
-0.242273,1.742274,9.283255,-0.610151,2.261432,9.522816,0.055306,0.133919,-0.212031,-0.598528,-0.309983,0.08695,58.0,18.3,-4.8,-33.225,286.7529,-15.5088,5.5593,5.0,22.67624,48.8439,2.3533363,307.0968,NaN,,44.303226,,5 / 17,437,2022-01-10 17:04:32:966
-0.242273,1.742274,9.283255,-0.610151,2.261432,9.522816,0.055306,0.133919,-0.212031,-0.598528,-0.309983,0.08695,58.0,18.3,-4.8,-33.225,286.7529,-15.5088,5.5593,5.0,22.67624,48.8439,2.3533363,307.0968,NaN,,44.303226,,5 / 17,443,2022-01-10 17:04:32:972
-0.242273,1.742274,9.283255,-0.610151,2.261432,9.522816,0.055306,0.133919,-0.212031,-0.598528,-0.309983,0.08695,58.0,15.6,-9.75,-35.175,264.0124,-13.3325,3.6661,5.0,22.67624,48.8439,2.3533363,307.0968,NaN,,44.303226,,5 / 17,448,2022-01-10 17:04:32:977
-0.242273,1.742274,9.283255,-0.610151,2.261432,9.522816,0.055306,0.133919,-0.212031,-0.598528,-0.309983,0.08695,58.0,15.6,-9.75,-35.175,264.0124,-13.3325,3.6661,5.0,22.67624,48.8439,2.3533363,307.0968,NaN,,44.303226,,5 / 17,452,2022-01-10 17:04:32:981
-0.242273,1.742274,9.283255,-0.610151,2.261432,9.522816,0.055306,0.133919,-0.212031,-0.598528,-0.309983,0.08695,58.0,15.6,-9.75,-35.175,264.0124,-13.3325,3.6661,5.0,22.67624,48.8439,2.3533363,307.0968,NaN,,44.303226,,5 / 17,457,2022-01-10 17:04:32:986
-0.242273,1.742274,9.283255,-0.38775,1.527001,9.679272,0.137779,0.319781,-0.222266,-0.598528,-0.309983,0.08695,58.0,15.6,-9.75,-35.175,264.0124,-13.3325,3.6661,5.0,22.67624,48.8439,2.3533363,307.0968,NaN,,44.303226,,5 / 17,463,2022-01-10 17:04:32:992
-0.242273,1.742274,9.283255,-0.38775,1.527001,9.679272,0.137779,0.319781,-0.222266,-0.598528,-0.309983,0.08695,58.0,15.6,-9.75,-35.175,264.0124,-13.3325,3.6661,5.0,22.67624,48.8439,2.3533363,307.0968,NaN,,44.303226,,5 / 17,468,2022-01-10 17:04:32:997
-0.242273,1.742274,9.283255,-0.38775,1.527001,9.679272,0.137779,0.319781,-0.222266,-0.598528,-0.309983,0.08695,58.0,15.6,-9.75,-35.175,264.0124,-13.3325,3.6661,5.0,22.67624,48.8439,2.3533363,307.0968,NaN,,44.303226,,5 / 17,472,2022-01-10 17:04:33:001
-0.242273,1.742274,9.283255,-0.38775,1.527001,9.679272,0.137779,0.319781,-0.222266,-0.598528,-0.309983,0.08695,58.0,15.6,-9.75,-35.175,264.0124,-13.3325,3.6661,5.0,22.67624,48.8439,2.3533363,307.0968,NaN,,44.303226,,5 / 17,477,2022-01-10 17:04:33:006
-0.242273,1.742274,9.283255,-0.38775,1.527001,9.679272,0.137779,0.319781,-0.222266,-0.598528,-0.309983,0.08695,58.0,15.6,-9.75,-35.175,264.0124,-13.3325,3.6661,5.0,22.67624,48.8439,2.3533363,307.0968,NaN,,44.303226,,5 / 17,483,2022-01-10 17:04:33:012
-0.242273,1.742274,9.283255,-0.38775,1.527001,9.679272,0.137779,0.319781,-0.222266,-0.598528,-0.309983,0.08695,58.0,15.6,-9.75,-35.175,264.0124,-13.3325,3.6661,5.0,22.67624,48.8439,2.3533363,307.0968,NaN,,44.303226,,5 / 17,488,2022-01-10 17:04:33:017
-0.326022,1.130011,9.801899,-0.38775,1.527001,9.679272,0.137779,0.319781,-0.222266,-0.607183,0.08189,0.047536,58.0,15.6,-9.75,-35.175,264.0124,-13.3325,3.6661,5.0,22.67624,48.8439,2.3533363,307.0968,NaN,,44.303226,,5 / 17,492,2022-01-10 17:04:33:021
-0.326022,1.130011,9.801899,-0.38775,1.527001,9.679272,0.137779,0.319781,-0.222266,-0.607183,0.08189,0.047536,58.0,15.6,-9.75,-35.175,264.0124,-13.3325,3.6661,5.0,22.67624,48.8439,2.3533363,307.0968,NaN,,44.303226,,5 / 17,497,2022-01-10 17:04:33:026
-0.326022,1.130011,9.801899,-0.38775,1.527001,9.679272,0.137779,0.319781,-0.222266,-0.607183,0.08189,0.047536,58.0,15.6,-9.75,-35.175,264.0124,-13.3325,3.6661,5.0,22.67624,48.8439,2.3533363,307.0968,NaN,,44.303226,,5 / 17,502,2022-01-10 17:04:33:031
-0.326022,1.130011,9.801899,-0.412605,0.894469,9.757051,0.119096,0.053025,0.223814,-0.607183,0.08189,0.047536,58.0,15.6,-9.75,-35.175,264.0124,-13.3325,3.6661,5.0,22.67624,48.8439,2.3533363,307.0968,NaN,,44.303226,,5 / 17,575,2022-01-10 17:04:33:104
-0.326022,1.130011,9.801899,-0.412605,0.894469,9.757051,0.119096,0.053025,0.223814,-0.607183,0.08189,0.047536,58.0,15.6,-9.75,-35.175,264.0124,-13.3325,3.6661,5.0,22.67624,48.8439,2.3533363,307.0968,NaN,,44.303226,,5 / 17,576,2022-01-10 17:04:33:105
-0.326022,1.130011,9.801899,-0.412605,0.894469,9.757051,0.119096,0.053025,0.223814,-0.607183,0.08189,0.047536,58.0,15.6,-9.75,-35.175,264.0124,-13.3325,3.6661,5.0,22.67624,48.8439,2.3533363,307.0968,NaN,,44.303226,,5 / 17,576,2022-01-10 17:04:33:105
-0.326022,1.130011,9.801899,-0.412605,0.894469,9.757051,0.119096,0.053025,0.223814,-0.607183,0.08189,0.047536,58.0,15.6,-9.75,-35.175,264.0124,-13.3325,3.6661,5.0,22.67624,48.8439,2.3533363,307.0968,NaN,,44.303226,,5 / 17,577,2022-01-10 17:04:33:106
-0.326022,1.130011,9.801899,-0.412605,0.894469,9.757051,0.119096,0.053025,0.223814,-0.607183,0.08189,0.047536,58.0,15.6,-9.75,-35.175,264.0124,-13.3325,3.6661,5.0,22.67624,48.8439,2.3533363,307.0968,NaN,,44.303226,,5 / 17,577,2022-01-10 17:04:33:106
-0.326022,1.130011,9.801899,-0.412605,0.894469,9.757051,0.119096,0.053025,0.223814,-0.607183,0.08189,0.047536,58.0,15.6,-9.75,-35.175,264.0124,-13.3325,3.6661,5.0,22.67624,48.8439,2.3533363,307.0968,NaN,,44.303226,,5 / 17,577,2022-01-10 17:04:33:106
-0.326022,1.130011,9.801899,-0.412605,0.894469,9.757051,0.119096,0.053025,0.223814,-0.607183,0.08189,0.047536,58.0,15.6,-9.75,-35.175,264.0124,-13.3325,3.6661,5.0,22.67624,48.8439,2.3533363,307.0968,NaN,,44.303226,,5 / 17,577,2022-01-10 17:04:33:106
-0.326022,1.130011,9.801899,-0.412605,0.894469,9.757051,0.119096,0.053025,0.223814,-0.607183,0.08189,0.047536,58.0,15.6,-9.75,-35.175,264.0124,-13.3325,3.6661,5.0,22.67624,48.8439,2.3533363,307.0968,NaN,,44.303226,,5 / 17,578,2022-01-10 17:04:33:107
-0.326022,1.130011,9.801899,-0.412605,0.894469,9.757051,0.119096,0.053025,0.223814,-0.607183,0.08189,0.047536,58.0,15.6,-9.75,-35.175,264.0124,-13.3325,3.6661,5.0,22.67624,48.8439,2.3533363,307.0968,NaN,,44.303226,,5 / 17,578,2022-01-10 17:04:33:107
-0.326022,1.130011,9.801899,-0.412605,0.894469,9.757051,0.119096,0.053025,0.223814,-0.607183,0.08189,0.047536,58.0,15.6,-9.75,-35.175,264.0124,-13.3325,3.6661,5.0,22.67624,48.8439,2.3533363,307.0968,NaN,,44.303226,,5 / 17,578,2022-01-10 17:04:33:107
-0.326022,1.130011,9.801899,-0.412605,0.894469,9.757051,0.119096,0.053025,0.223814,-0.607183,0.08189,0.047536,58.0,15.6,-9.75,-35.175,264.0124,-13.3325,3.6661,5.0,22.67624,48.8439,2.3533363,307.0968,NaN,,44.303226,,5 / 17,579,2022-01-10 17:04:33:108
-0.326022,1.130011,9.801899,-0.412605,0.894469,9.757051,0.119096,0.053025,0.223814,-0.607183,0.08189,0.047536,58.0,15.6,-9.75,-35.175,264.0124,-13.3325,3.6661,5.0,22.67624,48.8439,2.3533363,307.0968,NaN,,44.303226,,5 / 17,579,2022-01-10 17:04:33:108
-0.326022,1.130011,9.801899,-0.412605,0.894469,9.757051,0.119096,0.053025,0.223814,-0.607183,0.08189,0.047536,58.0,15.6,-9.75,-35.175,264.0124,-13.3325,3.6661,5.0,22.67624,48.8439,2.3533363,307.0968,NaN,,44.303226,,5 / 17,579,2022-01-10 17:04:33:108
-0.326022,1.130011,9.801899,-0.412605,0.894469,9.757051,0.119096,0.053025,0.223814,-0.607183,0.08189,0.047536,58.0,15.6,-9.75,-35.175,264.0124,-13.3325,3.6661,5.0,22.67624,48.8439,2.3533363,307.0968,NaN,,44.303226,,5 / 17,579,2022-01-10 17:04:33:108
-0.326022,1.130011,9.801899,-0.412605,0.894469,9.757051,0.119096,0.053025,0.223814,-0.607183,0.08189,0.047536,58.0,15.6,-9.75,-35.175,264.0124,-13.3325,3.6661,5.0,22.67624,48.8439,2.3533363,307.0968,NaN,,44.303226,,5 / 17,580,2022-01-10 17:04:33:109
-0.326022,1.130011,9.801899,-0.412605,0.894469,9.757051,0.119096,0.053025,0.223814,-0.607183,0.08189,0.047536,58.0,15.6,-9.75,-35.175,264.0124,-13.3325,3.6661,5.0,22.67624,48.8439,2.3533363,307.0968,NaN,,44.303226,,5 / 17,582,2022-01-10 17:04:33:111
-0.326022,1.130011,9.801899,-0.412605,0.894469,9.757051,0.119096,0.053025,0.223814,-0.607183,0.08189,0.047536,58.0,15.6,-9.75,-35.175,264.0124,-13.3325,3.6661,5.0,22.67624,48.8439,2.3533363,307.0968,NaN,,44.303226,,5 / 17,588,2022-01-10 17:04:33:117
-0.326022,1.130011,9.801899,-0.412605,0.894469,9.757051,0.119096,0.053025,0.223814,-0.607183,0.08189,0.047536,58.0,15.6,-9.75,-35.175,264.0124,-13.3325,3.6661,5.0,22.67624,48.8439,2.3533363,307.0968,NaN,,44.303226,,5 / 17,593,2022-01-10 17:04:33:122
-0.326022,1.130011,9.801899,-0.412605,0.894469,9.757051,0.119096,0.053025,0.223814,-0.607183,0.08189,0.047536,58.0,15.6,-9.75,-35.175,264.0124,-13.3325,3.6661,5.0,22.67624,48.8439,2.3533363,307.0968,NaN,,44.303226,,5 / 17,598,2022-01-10 17:04:33:127
-0.326022,1.130011,9.801899,-0.412605,0.894469,9.757051,0.119096,0.053025,0.223814,-0.607183,0.08189,0.047536,58.0,15.6,-9.75,-35.175,264.0124,-13.3325,3.6661,5.0,22.67624,48.8439,2.3533363,307.0968,NaN,,44.303226,,5 / 17,602,2022-01-10 17:04:33:131
-0.326022,1.130011,9.801899,-0.412605,0.894469,9.757051,0.119096,0.053025,0.223814,-0.607183,0.08189,0.047536,58.0,15.6,-9.75,-35.175,264.0124,-13.3325,3.6661,5.0,22.67624,48.8439,2.3533363,307.0968,NaN,,44.303226,,5 / 17,607,2022-01-10 17:04:33:136
-0.326022,1.130011,9.801899,-0.412605,0.894469,9.757051,0.119096,0.053025,0.223814,-0.607183,0.08189,0.047536,58.0,15.6,-9.75,-35.175,264.0124,-13.3325,3.6661,5.0,22.67624,48.8439,2.3533363,307.0968,NaN,,44.303226,,5 / 17,613,2022-01-10 17:04:33:142
-0.326022,1.130011,9.801899,-0.412605,0.894469,9.757051,0.119096,0.053025,0.223814,-0.607183,0.08189,0.047536,58.0,15.6,-9.75,-35.175,264.0124,-13.3325,3.6661,5.0,24.07158,48.8439,2.3533363,307.0968,NaN,,44.303226,,5 / 17,617,2022-01-10 17:04:33:146
-0.326022,1.130011,9.801899,-0.412605,0.894469,9.757051,0.119096,0.053025,0.223814,-0.607183,0.08189,0.047536,58.0,15.6,-9.75,-35.175,264.0124,-13.3325,3.6661,5.0,24.07158,48.8439,2.3533363,307.0968,NaN,,44.303226,,5 / 17,622,2022-01-10 17:04:33:151
-0.257827,0.725324,10.039087,-0.412605,0.894469,9.757051,0.119096,0.053025,0.223814,0.003595,-0.158587,-0.02956,58.0,15.6,-9.75,-35.175,264.0124,-13.3325,3.6661,5.0,24.07158,48.8439,2.3533363,307.0968,NaN,,44.303226,,5 / 17,628,2022-01-10 17:04:33:157
-0.257827,0.725324,10.039087,-0.412605,0.894469,9.757051,0.119096,0.053025,0.223814,0.003595,-0.158587,-0.02956,58.0,15.6,-9.75,-35.175,264.0124,-13.3325,3.6661,5.0,24.07158,48.8439,2.3533363,307.0968,NaN,,44.303226,,5 / 17,635,2022-01-10 17:04:33:164
-0.257827,0.725324,10.039087,-0.412605,0.894469,9.757051,0.119096,0.053025,0.223814,0.003595,-0.158587,-0.02956,58.0,15.6,-9.75,-35.175,264.0124,-13.3325,3.6661,5.0,24.07158,48.8439,2.3533363,307.0968,NaN,,44.303226,,5 / 17,637,2022-01-10 17:04:33:166
-0.257827,0.725324,10.039087,-0.412605,0.894469,9.757051,0.119096,0.053025,0.223814,0.003595,-0.158587,-0.02956,58.0,15.6,-9.75,-35.175,264.0124,-13.3325,3.6661,5.0,24.07158,48.8439,2.3533363,307.0968,NaN,,44.303226,,5 / 17,643,2022-01-10 17:04:33:172
-0.257827,0.725324,10.039087,-0.412605,0.894469,9.757051,0.119096,0.053025,0.223814,0.003595,-0.158587,-0.02956,58.0,14.175,-6.9,-35.925,253.7391,-5.2332,2.4215,5.0,24.07158,48.8439,2.3533363,307.0968,NaN,,44.303226,,5 / 17,649,2022-01-10 17:04:33:178
-0.257827,0.725324,10.039087,-0.412605,0.894469,9.757051,0.119096,0.053025,0.223814,0.003595,-0.158587,-0.02956,58.0,14.175,-6.9,-35.925,253.7391,-5.2332,2.4215,5.0,24.07158,48.8439,2.3533363,307.0968,NaN,,44.303226,,5 / 17,652,2022-01-10 17:04:33:181
-0.257827,0.725324,10.039087,-0.412605,0.894469,9.757051,0.119096,0.053025,0.223814,0.003595,-0.158587,-0.02956,58.0,14.175,-6.9,-35.925,253.7391,-5.2332,2.4215,5.0,24.07158,48.8439,2.3533363,307.0968,NaN,,44.303226,,5 / 17,658,2022-01-10 17:04:33:187
-0.257827,0.725324,10.039087,-0.412605,0.894469,9.757051,0.119096,0.053025,0.223814,0.003595,-0.158587,-0.02956,58.0,14.175,-6.9,-35.925,253.7391,-5.2332,2.4215,5.0,24.07158,48.8439,2.3533363,307.0968,NaN,,44.303226,,5 / 17,662,2022-01-10 17:04:33:191
-0.257827,0.725324,10.039087,-0.412605,0.894469,9.757051,0.119096,0.053025,0.223814,0.003595,-0.158587,-0.02956,58.0,14.175,-6.9,-35.925,253.7391,-5.2332,2.4215,5.0,24.07158,48.8439,2.3533363,307.0968,NaN,,44.303226,,5 / 17,667,2022-01-10 17:04:33:196
-0.257827,0.725324,10.039087,-0.412605,0.894469,9.757051,0.119096,0.053025,0.223814,0.003595,-0.158587,-0.02956,58.0,14.175,-6.9,-35.925,253.7391,-5.2332,2.4215,5.0,24.07158,48.8439,2.3533363,307.0968,NaN,,44.303226,,5 / 17,673,2022-01-10 17:04:33:202
-0.257827,0.725324,10.039087,-0.412605,0.894469,9.757051,0.119096,0.053025,0.223814,0.003595,-0.158587,-0.02956,58.0,14.175,-6.9,-35.925,253.7391,-5.2332,2.4215,5.0,24.07158,48.8439,2.3533363,307.0968,NaN,,44.303226,,5 / 17,678,2022-01-10 17:04:33:207
-0.257827,0.725324,10.039087,-0.412605,0.894469,9.757051,0.119096,0.053025,0.223814,0.003595,-0.158587,-0.02956,58.0,14.175,-6.9,-35.925,253.7391,-5.2332,2.4215,5.0,24.07158,48.8439,2.3533363,307.0968,NaN,,44.303226,,5 / 17,683,2022-01-10 17:04:33:212
-0.257827,0.725324,10.039087,-0.412605,0.894469,9.757051,0.119096,0.053025,0.223814,0.003595,-0.158587,-0.02956,58.0,14.175,-6.9,-35.925,253.7391,-5.2332,2.4215,5.0,24.07158,48.8439,2.3533363,307.0968,NaN,,44.303226,,5 / 17,687,2022-01-10 17:04:33:216
-0.257827,0.725324,10.039087,-0.412605,0.894469,9.757051,0.119096,0.053025,0.223814,0.003595,-0.158587,-0.02956,58.0,14.175,-6.9,-35.925,253.7391,-5.2332,2.4215,5.0,24.07158,48.8439,2.3533363,307.0968,NaN,,44.303226,,5 / 17,693,2022-01-10 17:04:33:222
-0.257827,0.725324,10.039087,-0.296512,0.916133,9.759261,0.154331,-0.126054,0.261385,0.003595,-0.158587,-0.02956,58.0,14.175,-6.9,-35.925,253.7391,-5.2332,2.4215,5.0,24.07158,48.8439,2.3533363,307.0968,NaN,,44.303226,,5 / 17,697,2022-01-10 17:04:33:226
-0.257827,0.725324,10.039087,-0.296512,0.916133,9.759261,0.154331,-0.126054,0.261385,0.003595,-0.158587,-0.02956,58.0,14.175,-6.9,-35.925,253.7391,-5.2332,2.4215,5.0,24.07158,48.8439,2.3533363,307.0968,NaN,,44.303226,,5 / 17,703,2022-01-10 17:04:33:232
-0.257827,0.725324,10.039087,-0.296512,0.916133,9.759261,0.154331,-0.126054,0.261385,0.003595,-0.158587,-0.02956,58.0,14.175,-6.9,-35.925,253.7391,-5.2332,2.4215,5.0,24.07158,48.8439,2.3533363,307.0968,NaN,,44.303226,,5 / 17,708,2022-01-10 17:04:33:237
-0.257827,0.725324,10.039087,-0.296512,0.916133,9.759261,0.154331,-0.126054,0.261385,0.003595,-0.158587,-0.02956,58.0,14.175,-6.9,-35.925,253.7391,-5.2332,2.4215,5.0,24.07158,48.8439,2.3533363,307.0968,NaN,,44.303226,,5 / 17,713,2022-01-10 17:04:33:242
-0.257827,0.725324,10.039087,-0.296512,0.916133,9.759261,0.154331,-0.126054,0.261385,0.003595,-0.158587,-0.02956,58.0,14.175,-6.9,-35.925,253.7391,-5.2332,2.4215,5.0,24.07158,48.8439,2.3533363,307.0968,NaN,,44.303226,,5 / 17,718,2022-01-10 17:04:33:247
-0.257827,0.725324,10.039087,-0.296512,0.916133,9.759261,0.154331,-0.126054,0.261385,0.003595,-0.158587,-0.02956,58.0,14.175,-6.9,-35.925,253.7391,-5.2332,2.4215,5.0,24.07158,48.8439,2.3533363,307.0968,NaN,,44.303226,,5 / 17,723,2022-01-10 17:04:33:252
-0.257827,0.725324,10.039087,-0.296512,0.916133,9.759261,0.154331,-0.126054,0.261385,0.003595,-0.158587,-0.02956,58.0,14.175,-6.9,-35.925,253.7391,-5.2332,2.4215,5.0,24.07158,48.8439,2.3533363,307.0968,NaN,,44.303226,,5 / 17,728,2022-01-10 17:04:33:257
-0.257827,0.725324,10.039087,-0.296512,0.916133,9.759261,0.154331,-0.126054,0.261385,0.003595,-0.158587,-0.02956,58.0,14.175,-6.9,-35.925,253.7391,-5.2332,2.4215,5.0,24.07158,48.8439,2.3533363,307.0968,NaN,,44.303226,,5 / 17,732,2022-01-10 17:04:33:261
-0.257827,0.725324,10.039087,-0.296512,0.916133,9.759261,0.154331,-0.126054,0.261385,0.003595,-0.158587,-0.02956,58.0,14.175,-6.9,-35.925,253.7391,-5.2332,2.4215,5.0,24.07158,48.8439,2.3533363,307.0968,NaN,,44.303226,,5 / 17,738,2022-01-10 17:04:33:267
-0.257827,0.725324,10.039087,-0.296512,0.916133,9.759261,0.154331,-0.126054,0.261385,0.003595,-0.158587,-0.02956,58.0,14.175,-6.9,-35.925,253.7391,-5.2332,2.4215,5.0,24.07158,48.8439,2.3533363,307.0968,NaN,,44.303226,,5 / 17,742,2022-01-10 17:04:33:271
-0.108275,0.847358,9.605389,-0.296512,0.916133,9.759261,0.154331,-0.126054,0.261385,0.003595,-0.158587,-0.02956,58.0,14.175,-6.9,-35.925,253.7391,-5.2332,2.4215,5.0,24.07158,48.8439,2.3533363,307.0968,NaN,,44.303226,,5 / 17,747,2022-01-10 17:04:33:276
-0.108275,0.847358,9.605389,-0.296512,0.916133,9.759261,0.154331,-0.126054,0.261385,0.003595,-0.158587,-0.02956,58.0,14.175,-6.9,-35.925,253.7391,-5.2332,2.4215,5.0,24.07158,48.8439,2.3533363,307.0968,NaN,,44.303226,,5 / 17,753,2022-01-10 17:04:33:282
-0.108275,0.847358,9.605389,-0.296512,0.916133,9.759261,0.154331,-0.126054,0.261385,0.003595,-0.158587,-0.02956,58.0,14.175,-6.9,-35.925,253.7391,-5.2332,2.4215,5.0,24.07158,48.8439,2.3533363,307.0968,NaN,,44.303226,,5 / 17,757,2022-01-10 17:04:33:286
-0.108275,0.847358,9.605389,-0.296512,0.916133,9.759261,0.154331,-0.126054,0.261385,0.003595,-0.158587,-0.02956,58.0,14.175,-6.9,-35.925,253.7391,-5.2332,2.4215,5.0,24.07158,48.8439,2.3533363,307.0968,NaN,,44.303226,,5 / 17,763,2022-01-10 17:04:33:292
-0.108275,0.847358,9.605389,-0.296512,0.916133,9.759261,0.154331,-0.126054,0.261385,0.003595,-0.158587,-0.02956,58.0,14.175,-6.9,-35.925,253.7391,-5.2332,2.4215,5.0,24.07158,48.8439,2.3533363,307.0968,NaN,,44.303226,,5 / 17,769,2022-01-10 17:04:33:298
-0.108275,0.847358,9.605389,-0.296512,0.916133,9.759261,0.154331,-0.126054,0.261385,0.003595,-0.158587,-0.02956,58.0,14.175,-6.9,-35.925,253.7391,-5.2332,2.4215,5.0,24.07158,48.8439,2.3533363,307.0968,NaN,,44.303226,,5 / 17,773,2022-01-10 17:04:33:302
-0.108275,0.847358,9.605389,-0.296512,0.916133,9.759261,0.154331,-0.126054,0.261385,0.003595,-0.158587,-0.02956,58.0,14.175,-6.9,-35.925,253.7391,-5.2332,2.4215,5.0,24.07158,48.8439,2.3533363,307.0968,NaN,,44.303226,,5 / 17,777,2022-01-10 17:04:33:306
-0.108275,0.847358,9.605389,-0.296512,0.916133,9.759261,0.154331,-0.126054,0.261385,0.03209,-0.037017,0.025832,58.0,14.175,-6.9,-35.925,253.7391,-5.2332,2.4215,5.0,24.07158,48.8439,2.3533363,307.0968,NaN,,44.303226,,5 / 17,783,2022-01-10 17:04:33:312
-0.108275,0.847358,9.605389,-0.296512,0.916133,9.759261,0.154331,-0.126054,0.261385,0.03209,-0.037017,0.025832,58.0,14.175,-6.9,-35.925,253.7391,-5.2332,2.4215,5.0,24.07158,48.8439,2.3533363,307.0968,NaN,,44.303226,,5 / 17,788,2022-01-10 17:04:33:317
-0.108275,0.847358,9.605389,-0.296512,0.916133,9.759261,0.154331,-0.126054,0.261385,0.03209,-0.037017,0.025832,58.0,14.175,-6.9,-35.925,253.7391,-5.2332,2.4215,5.0,24.07158,48.8439,2.3533363,307.0968,NaN,,44.303226,,5 / 17,793,2022-01-10 17:04:33:322
-0.108275,0.847358,9.605389,-0.296512,0.916133,9.759261,0.154331,-0.126054,0.261385,0.03209,-0.037017,0.025832,58.0,14.175,-6.9,-35.925,253.7391,-5.2332,2.4215,5.0,24.07158,48.8439,2.3533363,307.0968,NaN,,44.303226,,5 / 17,798,2022-01-10 17:04:33:327
-0.108275,0.847358,9.605389,-0.296512,0.916133,9.759261,0.154331,-0.126054,0.261385,0.03209,-0.037017,0.025832,58.0,14.175,-6.9,-35.925,253.7391,-5.2332,2.4215,5.0,24.07158,48.8439,2.3533363,307.0968,NaN,,44.303226,,5 / 17,802,2022-01-10 17:04:33:331
-0.108275,0.847358,9.605389,-0.296512,0.916133,9.759261,0.154331,-0.126054,0.261385,0.03209,-0.037017,0.025832,58.0,14.175,-6.9,-35.925,253.7391,-5.2332,2.4215,5.0,24.07158,48.8439,2.3533363,307.0968,NaN,,44.303226,,5 / 17,807,2022-01-10 17:04:33:336
-0.108275,0.847358,9.605389,-0.296512,0.916133,9.759261,0.154331,-0.126054,0.261385,0.03209,-0.037017,0.025832,58.0,14.175,-6.9,-35.925,253.7391,-5.2332,2.4215,5.0,24.07158,48.8439,2.3533363,307.0968,NaN,,44.303226,,5 / 17,813,2022-01-10 17:04:33:342
-0.108275,0.847358,9.605389,-0.296512,0.916133,9.759261,0.154331,-0.126054,0.261385,0.03209,-0.037017,0.025832,58.0,14.175,-6.9,-35.925,253.7391,-5.2332,2.4215,5.0,24.07158,48.8439,2.3533363,307.0968,NaN,,44.303226,,5 / 17,818,2022-01-10 17:04:33:347
-0.108275,0.847358,9.605389,-0.215571,0.934963,9.759598,0.047431,-0.04771,-0.068197,0.03209,-0.037017,0.025832,58.0,14.175,-6.9,-35.925,253.7391,-5.2332,2.4215,5.0,24.07158,48.8439,2.3533363,307.0968,NaN,,44.303226,,5 / 17,822,2022-01-10 17:04:33:351
-0.108275,0.847358,9.605389,-0.215571,0.934963,9.759598,0.047431,-0.04771,-0.068197,0.03209,-0.037017,0.025832,58.0,14.175,-6.9,-35.925,253.7391,-5.2332,2.4215,5.0,24.07158,48.8439,2.3533363,307.0968,NaN,,44.303226,,5 / 17,827,2022-01-10 17:04:33:356
-0.314058,1.179362,9.975677,-0.215571,0.934963,9.759598,0.047431,-0.04771,-0.068197,0.03209,-0.037017,0.025832,58.0,14.175,-6.9,-35.925,253.7391,-5.2332,2.4215,5.0,24.07158,48.8439,2.3533363,307.0968,NaN,,44.303226,,5 / 17,833,2022-01-10 17:04:33:362
-0.314058,1.179362,9.975677,-0.215571,0.934963,9.759598,0.047431,-0.04771,-0.068197,0.03209,-0.037017,0.025832,58.0,14.175,-6.9,-35.925,253.7391,-5.2332,2.4215,5.0,24.07158,48.8439,2.3533363,307.0968,NaN,,44.303226,,5 / 17,839,2022-01-10 17:04:33:368
-0.314058,1.179362,9.975677,-0.215571,0.934963,9.759598,0.047431,-0.04771,-0.068197,0.03209,-0.037017,0.025832,58.0,14.175,-6.9,-35.925,253.7391,-5.2332,2.4215,5.0,24.07158,48.8439,2.3533363,307.0968,NaN,,44.303226,,5 / 17,843,2022-01-10 17:04:33:372
-0.314058,1.179362,9.975677,-0.215571,0.934963,9.759598,0.047431,-0.04771,-0.068197,0.03209,-0.037017,0.025832,58.0,13.05,-4.65,-36.6,263.3355,-5.4709,1.2653,5.0,24.07158,48.8439,2.3533363,307.0968,NaN,,44.303226,,5 / 17,849,2022-01-10 17:04:33:378
-0.314058,1.179362,9.975677,-0.215571,0.934963,9.759598,0.047431,-0.04771,-0.068197,0.03209,-0.037017,0.025832,58.0,13.05,-4.65,-36.6,263.3355,-5.4709,1.2653,5.0,24.07158,48.8439,2.3533363,307.0968,NaN,,44.303226,,0 / 17,853,2022-01-10 17:04:33:382
-0.314058,1.179362,9.975677,-0.215571,0.934963,9.759598,0.047431,-0.04771,-0.068197,0.03209,-0.037017,0.025832,58.0,13.05,-4.65,-36.6,263.3355,-5.4709,1.2653,5.0,24.07158,48.8439,2.3533363,307.0968,NaN,,44.303226,,0 / 17,858,2022-01-10 17:04:33:387
-0.314058,1.179362,9.975677,-0.215571,0.934963,9.759598,0.047431,-0.04771,-0.068197,0.03209,-0.037017,0.025832,58.0,13.05,-4.65,-36.6,263.3355,-5.4709,1.2653,5.0,24.07158,48.8439,2.3533363,307.0968,NaN,,44.303226,,0 / 17,862,2022-01-10 17:04:33:391
-0.314058,1.179362,9.975677,-0.215571,0.934963,9.759598,0.047431,-0.04771,-0.068197,0.03209,-0.037017,0.025832,58.0,13.05,-4.65,-36.6,263.3355,-5.4709,1.2653,5.0,24.07158,48.8439,2.3533363,307.0968,NaN,,44.303226,,0 / 17,868,2022-01-10 17:04:33:397
-0.314058,1.179362,9.975677,-0.215571,0.934963,9.759598,0.047431,-0.04771,-0.068197,0.03209,-0.037017,0.025832,58.0,13.05,-4.65,-36.6,263.3355,-5.4709,1.2653,5.0,24.07158,48.8439,2.3533363,307.0968,NaN,,44.303226,,0 / 17,872,2022-01-10 17:04:33:401
-0.314058,1.179362,9.975677,-0.215571,0.934963,9.759598,0.047431,-0.04771,-0.068197,0.03209,-0.037017,0.025832,58.0,13.05,-4.65,-36.6,263.3355,-5.4709,1.2653,5.0,24.07158,48.8439,2.3533363,307.0968,NaN,,44.303226,,0 / 17,877,2022-01-10 17:04:33:406
-0.314058,1.179362,9.975677,-0.215571,0.934963,9.759598,0.047431,-0.04771,-0.068197,0.03209,-0.037017,0.025832,57.0,13.05,-4.65,-36.6,263.3355,-5.4709,1.2653,5.0,24.07158,48.8439,2.3533363,307.0968,NaN,,44.303226,,0 / 17,883,2022-01-10 17:04:33:412
-0.314058,1.179362,9.975677,-0.215571,0.934963,9.759598,0.047431,-0.04771,-0.068197,0.03209,-0.037017,0.025832,57.0,13.05,-4.65,-36.6,263.3355,-5.4709,1.2653,5.0,24.07158,48.8439,2.3533363,307.0968,NaN,,44.303226,,0 / 17,887,2022-01-10 17:04:33:416
-0.314058,1.179362,9.975677,-0.215571,0.934963,9.759598,0.047431,-0.04771,-0.068197,0.03209,-0.037017,0.025832,57.0,13.05,-4.65,-36.6,263.3355,-5.4709,1.2653,5.0,24.07158,48.8439,2.3533363,307.0968,NaN,,44.303226,,0 / 17,892,2022-01-10 17:04:33:421
-0.314058,1.179362,9.975677,-0.215571,0.934963,9.759598,0.047431,-0.04771,-0.068197,0.03209,-0.037017,0.025832,57.0,13.05,-4.65,-36.6,263.3355,-5.4709,1.2653,5.0,24.07158,48.8439,2.3533363,307.0968,NaN,,44.303226,,0 / 17,897,2022-01-10 17:04:33:426
-0.314058,1.179362,9.975677,-0.215571,0.934963,9.759598,0.047431,-0.04771,-0.068197,0.03209,-0.037017,0.025832,57.0,13.05,-4.65,-36.6,263.3355,-5.4709,1.2653,5.0,24.07158,48.8439,2.3533363,307.0968,NaN,,44.303226,,0 / 17,903,2022-01-10 17:04:33:432
-0.314058,1.179362,9.975677,-0.215571,0.934963,9.759598,0.047431,-0.04771,-0.068197,0.03209,-0.037017,0.025832,57.0,13.05,-4.65,-36.6,263.3355,-5.4709,1.2653,5.0,24.07158,48.8439,2.3533363,307.0968,NaN,,44.303226,,0 / 17,909,2022-01-10 17:04:33:438
-0.314058,1.179362,9.975677,-0.215571,0.934963,9.759598,0.047431,-0.04771,-0.068197,-0.149399,-1.178281,0.522364,57.0,13.05,-4.65,-36.6,263.3355,-5.4709,1.2653,5.0,24.07158,48.8439,2.3533363,307.0968,NaN,,44.303226,,0 / 17,913,2022-01-10 17:04:33:442
-0.314058,1.179362,9.975677,-0.215571,0.934963,9.759598,0.047431,-0.04771,-0.068197,-0.149399,-1.178281,0.522364,57.0,13.05,-4.65,-36.6,263.3355,-5.4709,1.2653,5.0,24.07158,48.8439,2.3533363,307.0968,NaN,,44.303226,,0 / 17,917,2022-01-10 17:04:33:446
-0.314058,1.179362,9.975677,-0.215571,0.934963,9.759598,0.047431,-0.04771,-0.068197,-0.149399,-1.178281,0.522364,57.0,13.05,-4.65,-36.6,263.3355,-5.4709,1.2653,5.0,24.07158,48.8439,2.3533363,307.0968,NaN,,44.303226,,0 / 17,922,2022-01-10 17:04:33:451
-0.314058,1.179362,9.975677,-0.215571,0.934963,9.759598,0.047431,-0.04771,-0.068197,-0.149399,-1.178281,0.522364,57.0,13.05,-4.65,-36.6,263.3355,-5.4709,1.2653,5.0,24.07158,48.8439,2.3533363,307.0968,NaN,,44.303226,,0 / 17,928,2022-01-10 17:04:33:457
-0.314058,1.179362,9.975677,-0.215571,0.934963,9.759598,0.047431,-0.04771,-0.068197,-0.149399,-1.178281,0.522364,57.0,13.05,-4.65,-36.6,263.3355,-5.4709,1.2653,5.0,24.07158,48.8439,2.3533363,307.0968,NaN,,44.303226,,0 / 17,932,2022-01-10 17:04:33:461
0.448654,1.095315,9.911968,0.970256,0.768167,9.728253,-0.981795,0.476152,0.643933,-0.149399,-1.178281,0.522364,57.0,13.05,-4.65,-36.6,263.3355,-5.4709,1.2653,5.0,22.68343,48.8439,2.3533363,307.0968,NaN,,44.303226,,0 / 17,937,2022-01-10 17:04:33:466
0.448654,1.095315,9.911968,0.970256,0.768167,9.728253,-0.981795,0.476152,0.643933,-0.149399,-1.178281,0.522364,57.0,13.05,-4.65,-36.6,263.3355,-5.4709,1.2653,5.0,22.68343,48.8439,2.3533363,307.0968,NaN,,44.303226,,0 / 17,944,2022-01-10 17:04:33:473
0.448654,1.095315,9.911968,0.970256,0.768167,9.728253,-0.981795,0.476152,0.643933,-0.149399,-1.178281,0.522364,57.0,13.05,-4.65,-36.6,263.3355,-5.4709,1.2653,5.0,22.68343,48.8439,2.3533363,307.0968,NaN,,44.303226,,0 / 17,948,2022-01-10 17:04:33:477
0.448654,1.095315,9.911968,0.970256,0.768167,9.728253,-0.981795,0.476152,0.643933,-0.149399,-1.178281,0.522364,57.0,13.05,-4.65,-36.6,263.3355,-5.4709,1.2653,5.0,22.68343,48.8439,2.3533363,307.0968,NaN,,44.303226,,0 / 17,953,2022-01-10 17:04:33:482
0.448654,1.095315,9.911968,0.970256,0.768167,9.728253,-0.981795,0.476152,0.643933,-0.149399,-1.178281,0.522364,57.0,13.05,-4.65,-36.6,263.3355,-5.4709,1.2653,5.0,22.68343,48.8439,2.3533363,307.0968,NaN,,44.303226,,0 / 17,958,2022-01-10 17:04:33:487
0.448654,1.095315,9.911968,0.970256,0.768167,9.728253,-0.981795,0.476152,0.643933,-0.149399,-1.178281,0.522364,57.0,13.05,-4.65,-36.6,263.3355,-5.4709,1.2653,5.0,22.68343,48.8439,2.3533363,307.0968,NaN,,44.303226,,0 / 17,963,2022-01-10 17:04:33:492
0.448654,1.095315,9.911968,0.970256,0.768167,9.728253,-0.981795,0.476152,0.643933,-0.149399,-1.178281,0.522364,57.0,13.05,-4.65,-36.6,263.3355,-5.4709,1.2653,5.0,22.68343,48.8439,2.3533363,307.0968,NaN,,44.303226,,0 / 17,968,2022-01-10 17:04:33:497
0.448654,1.095315,9.911968,0.970256,0.768167,9.728253,-0.981795,0.476152,0.643933,-0.149399,-1.178281,0.522364,57.0,13.05,-4.65,-36.6,263.3355,-5.4709,1.2653,5.0,22.68343,48.8439,2.3533363,307.0968,NaN,,44.303226,,0 / 17,974,2022-01-10 17:04:33:503
0.448654,1.095315,9.911968,0.970256,0.768167,9.728253,-0.981795,0.476152,0.643933,-0.149399,-1.178281,0.522364,57.0,13.05,-4.65,-36.6,263.3355,-5.4709,1.2653,5.0,22.68343,48.8439,2.3533363,307.0968,NaN,,44.303226,,0 / 17,978,2022-01-10 17:04:33:507
0.448654,1.095315,9.911968,0.970256,0.768167,9.728253,-0.981795,0.476152,0.643933,-0.149399,-1.178281,0.522364,57.0,13.05,-4.65,-36.6,263.3355,-5.4709,1.2653,5.0,22.68343,48.8439,2.3533363,307.0968,NaN,,44.303226,,0 / 17,983,2022-01-10 17:04:33:512
0.448654,1.095315,9.911968,0.970256,0.768167,9.728253,-0.981795,0.476152,0.643933,-0.149399,-1.178281,0.522364,57.0,13.05,-4.65,-36.6,263.3355,-5.4709,1.2653,5.0,22.68343,48.8439,2.3533363,307.0968,NaN,,44.303226,,0 / 17,988,2022-01-10 17:04:33:517
0.448654,1.095315,9.911968,0.970256,0.768167,9.728253,-0.981795,0.476152,0.643933,-0.149399,-1.178281,0.522364,57.0,13.05,-4.65,-36.6,263.3355,-5.4709,1.2653,5.0,22.68343,48.8439,2.3533363,307.0968,NaN,,44.303226,,0 / 17,992,2022-01-10 17:04:33:521
0.448654,1.095315,9.911968,0.970256,0.768167,9.728253,-0.981795,0.476152,0.643933,-0.149399,-1.178281,0.522364,57.0,13.05,-4.65,-36.6,263.3355,-5.4709,1.2653,5.0,22.68343,48.8439,2.3533363,307.0968,NaN,,44.303226,,0 / 17,998,2022-01-10 17:04:33:527
0.448654,1.095315,9.911968,0.970256,0.768167,9.728253,-0.981795,0.476152,0.643933,-0.149399,-1.178281,0.522364,57.0,13.05,-4.65,-36.6,263.3355,-5.4709,1.2653,5.0,22.68343,48.8439,2.3533363,307.0968,NaN,,44.303226,,0 / 17,1003,2022-01-10 17:04:33:532
0.448654,1.095315,9.911968,0.970256,0.768167,9.728253,-0.981795,0.476152,0.643933,-0.149399,-1.178281,0.522364,57.0,13.05,-4.65,-36.6,263.3355,-5.4709,1.2653,5.0,22.68343,48.8439,2.3533363,307.0968,NaN,,44.303226,,0 / 17,1011,2022-01-10 17:04:33:540
0.448654,1.095315,9.911968,0.970256,0.768167,9.728253,-0.981795,0.476152,0.643933,-0.149399,-1.178281,0.522364,57.0,13.05,-4.65,-36.6,263.3355,-5.4709,1.2653,5.0,22.68343,48.8439,2.3533363,307.0968,NaN,,44.303226,,0 / 17,1012,2022-01-10 17:04:33:541
0.448654,1.095315,9.911968,0.970256,0.768167,9.728253,-0.981795,0.476152,0.643933,-0.149399,-1.178281,0.522364,57.0,13.05,-4.65,-36.6,263.3355,-5.4709,1.2653,5.0,22.68343,48.8439,2.3533363,307.0968,NaN,,44.303226,,0 / 17,1017,2022-01-10 17:04:33:546
0.448654,1.095315,9.911968,0.970256,0.768167,9.728253,-0.981795,0.476152,0.643933,-0.149399,-1.178281,0.522364,57.0,13.05,-4.65,-36.6,263.3355,-5.4709,1.2653,5.0,22.68343,48.8439,2.3533363,307.0968,NaN,,44.303226,,0 / 17,1023,2022-01-10 17:04:33:552
0.448654,1.095315,9.911968,0.970256,0.768167,9.728253,-0.981795,0.476152,0.643933,-0.149399,-1.178281,0.522364,57.0,13.05,-4.65,-36.6,263.3355,-5.4709,1.2653,5.0,22.68343,48.8439,2.3533363,307.0968,NaN,,44.303226,,0 / 17,1028,2022-01-10 17:04:33:557
0.448654,1.095315,9.911968,0.970256,0.768167,9.728253,-0.981795,0.476152,0.643933,-0.149399,-1.178281,0.522364,57.0,13.05,-4.65,-36.6,263.3355,-5.4709,1.2653,5.0,22.68343,48.8439,2.3533363,307.0968,NaN,,44.303226,,0 / 17,1033,2022-01-10 17:04:33:562
0.448654,1.095315,9.911968,0.970256,0.768167,9.728253,-0.981795,0.476152,0.643933,-0.149399,-1.178281,0.522364,57.0,13.05,-4.65,-36.6,263.3355,-5.4709,1.2653,5.0,22.68343,48.8439,2.3533363,307.0968,NaN,,44.303226,,0 / 17,1038,2022-01-10 17:04:33:567
0.448654,1.095315,9.911968,0.970256,0.768167,9.728253,-0.981795,0.476152,0.643933,-0.149399,-1.178281,0.522364,57.0,13.05,-4.65,-36.6,263.3355,-5.4709,1.2653,5.0,22.68343,48.8439,2.3533363,307.0968,NaN,,44.303226,,0 / 17,1042,2022-01-10 17:04:33:571
0.448654,1.095315,9.911968,0.970256,0.768167,9.728253,-0.981795,0.476152,0.643933,-0.149399,-1.178281,0.522364,57.0,13.05,-4.65,-36.6,263.3355,-5.4709,1.2653,5.0,22.68343,48.8439,2.3533363,307.0968,NaN,,44.303226,,0 / 17,1048,2022-01-10 17:04:33:577
0.448654,1.095315,9.911968,0.970256,0.768167,9.728253,-0.981795,0.476152,0.643933,-0.149399,-1.178281,0.522364,57.0,13.05,-4.65,-36.6,263.3355,-5.4709,1.2653,5.0,22.68343,48.8439,2.3533363,307.0968,NaN,,44.303226,,0 / 17,1052,2022-01-10 17:04:33:581
0.448654,1.095315,9.911968,0.970256,0.768167,9.728253,-0.981795,0.476152,0.643933,-0.149399,-1.178281,0.522364,57.0,13.05,-4.65,-36.6,263.3355,-5.4709,1.2653,5.0,22.68343,48.8439,2.3533363,307.0968,NaN,,44.303226,,0 / 17,1058,2022-01-10 17:04:33:587
0.448654,1.095315,9.911968,0.970256,0.768167,9.728253,-0.981795,0.476152,0.643933,-0.149399,-1.178281,0.522364,57.0,13.05,-4.65,-36.6,263.3355,-5.4709,1.2653,5.0,22.68343,48.8439,2.3533363,307.0968,NaN,,44.303226,,0 / 17,1062,2022-01-10 17:04:33:591
0.448654,1.095315,9.911968,0.970256,0.768167,9.728253,-0.981795,0.476152,0.643933,-0.149399,-1.178281,0.522364,57.0,13.05,-4.65,-36.6,263.3355,-5.4709,1.2653,5.0,22.68343,48.8439,2.3533363,307.0968,NaN,,44.303226,,0 / 17,1068,2022-01-10 17:04:33:597
0.973281,0.527617,9.387342,1.956562,0.363566,9.602608,-0.274343,-0.122748,-0.480686,-0.347532,-0.685744,-0.053128,30.0,10.2,-3.3,-37.875,269.5548,-4.4927,-5.6956,5.0,22.68343,48.8439,2.3533363,307.0968,NaN,,44.303226,,0 / 17,1073,2022-01-10 17:04:33:602
0.973281,0.527617,9.387342,1.956562,0.363566,9.602608,-0.274343,-0.122748,-0.480686,-0.347532,-0.685744,-0.053128,30.0,10.2,-3.3,-37.875,269.5548,-4.4927,-5.6956,5.0,22.68343,48.8439,2.3533363,307.0968,NaN,,44.303226,,0 / 17,1077,2022-01-10 17:04:33:606
0.973281,0.527617,9.387342,1.956562,0.363566,9.602608,-0.274343,-0.122748,-0.480686,-0.347532,-0.685744,-0.053128,30.0,10.2,-3.3,-37.875,269.5548,-4.4927,-5.6956,5.0,22.68343,48.8439,2.3533363,307.0968,NaN,,44.303226,,0 / 17,1083,2022-01-10 17:04:33:612
0.973281,0.527617,9.387342,1.956562,0.363566,9.602608,-0.274343,-0.122748,-0.480686,-0.347532,-0.685744,-0.053128,30.0,10.2,-3.3,-37.875,269.5548,-4.4927,-5.6956,5.0,22.68343,48.8439,2.3533363,307.0968,NaN,,44.303226,,0 / 17,1087,2022-01-10 17:04:33:616
0.973281,0.527617,9.387342,1.956562,0.363566,9.602608,-0.274343,-0.122748,-0.480686,-0.347532,-0.685744,-0.053128,30.0,10.2,-3.3,-37.875,269.5548,-4.4927,-5.6956,5.0,22.68343,48.8439,2.3533363,307.0968,NaN,,44.303226,,0 / 17,1093,2022-01-10 17:04:33:622
0.973281,0.527617,9.387342,1.956562,0.363566,9.602608,-0.274343,-0.122748,-0.480686,-0.347532,-0.685744,-0.053128,30.0,10.2,-3.3,-37.875,269.5548,-4.4927,-5.6956,5.0,22.68343,48.8439,2.3533363,307.0968,NaN,,44.303226,,0 / 17,1098,2022-01-10 17:04:33:627
0.973281,0.527617,9.387342,1.956562,0.363566,9.602608,-0.274343,-0.122748,-0.480686,-0.347532,-0.685744,-0.053128,30.0,10.2,-3.3,-37.875,269.5548,-4.4927,-5.6956,5.0,22.68343,48.8439,2.3533363,307.0968,NaN,,44.303226,,0 / 17,1102,2022-01-10 17:04:33:631
0.973281,0.527617,9.387342,1.956562,0.363566,9.602608,-0.274343,-0.122748,-0.480686,-0.347532,-0.685744,-0.053128,30.0,10.2,-3.3,-37.875,269.5548,-4.4927,-5.6956,5.0,22.68343,48.8439,2.3533363,307.0968,NaN,,44.303226,,0 / 17,1108,2022-01-10 17:04:33:637
0.973281,0.527617,9.387342,1.956562,0.363566,9.602608,-0.274343,-0.122748,-0.480686,-0.347532,-0.685744,-0.053128,30.0,10.2,-3.3,-37.875,269.5548,-4.4927,-5.6956,5.0,22.68343,48.8439,2.3533363,307.0968,NaN,,44.303226,,0 / 17,1113,2022-01-10 17:04:33:642
0.973281,0.527617,9.387342,1.956562,0.363566,9.602608,-0.274343,-0.122748,-0.480686,-0.347532,-0.685744,-0.053128,30.0,10.2,-3.3,-37.875,269.5548,-4.4927,-5.6956,5.0,22.68343,48.8439,2.3533363,307.0968,NaN,,44.303226,,0 / 17,1117,2022-01-10 17:04:33:646
0.973281,0.527617,9.387342,1.956562,0.363566,9.602608,-0.274343,-0.122748,-0.480686,-0.347532,-0.685744,-0.053128,30.0,10.2,-3.3,-37.875,269.5548,-4.4927,-5.6956,5.0,22.68343,48.8439,2.3533363,307.0968,NaN,,44.303226,,0 / 17,1124,2022-01-10 17:04:33:653
0.973281,0.527617,9.387342,1.956562,0.363566,9.602608,-0.274343,-0.122748,-0.480686,-0.347532,-0.685744,-0.053128,30.0,10.2,-3.3,-37.875,269.5548,-4.4927,-5.6956,5.0,22.68343,48.8439,2.3533363,307.0968,NaN,,44.303226,,0 / 17,1128,2022-01-10 17:04:33:657
0.973281,0.527617,9.387342,1.956562,0.363566,9.602608,-0.274343,-0.122748,-0.480686,-0.347532,-0.685744,-0.053128,30.0,10.2,-3.3,-37.875,269.5548,-4.4927,-5.6956,5.0,22.68343,48.8439,2.3533363,307.0968,NaN,,44.303226,,0 / 17,1133,2022-01-10 17:04:33:662
0.973281,0.527617,9.387342,1.956562,0.363566,9.602608,-0.274343,-0.122748,-0.480686,-0.347532,-0.685744,-0.053128,30.0,10.2,-3.3,-37.875,269.5548,-4.4927,-5.6956,5.0,22.68343,48.8439,2.3533363,307.0968,NaN,,44.303226,,0 / 17,1138,2022-01-10 17:04:33:667
0.973281,0.527617,9.387342,1.956562,0.363566,9.602608,-0.274343,-0.122748,-0.480686,-0.347532,-0.685744,-0.053128,30.0,10.2,-3.3,-37.875,269.5548,-4.4927,-5.6956,5.0,22.68343,48.8439,2.3533363,307.0968,NaN,,44.303226,,0 / 17,1144,2022-01-10 17:04:33:673
0.973281,0.527617,9.387342,1.956562,0.363566,9.602608,-0.274343,-0.122748,-0.480686,-0.347532,-0.685744,-0.053128,30.0,10.2,-3.3,-37.875,269.5548,-4.4927,-5.6956,5.0,22.68343,48.8439,2.3533363,307.0968,NaN,,44.303226,,0 / 17,1147,2022-01-10 17:04:33:676
0.973281,0.527617,9.387342,1.956562,0.363566,9.602608,-0.274343,-0.122748,-0.480686,-0.347532,-0.685744,-0.053128,30.0,10.2,-3.3,-37.875,269.5548,-4.4927,-5.6956,5.0,22.68343,48.8439,2.3533363,307.0968,NaN,,44.303226,,0 / 17,1153,2022-01-10 17:04:33:682
0.973281,0.527617,9.387342,1.956562,0.363566,9.602608,-0.274343,-0.122748,-0.480686,-0.347532,-0.685744,-0.053128,30.0,10.2,-3.3,-37.875,269.5548,-4.4927,-5.6956,5.0,22.68343,48.8439,2.3533363,307.0968,NaN,,44.303226,,0 / 17,1157,2022-01-10 17:04:33:686
0.973281,0.527617,9.387342,1.956562,0.363566,9.602608,-0.274343,-0.122748,-0.480686,-0.347532,-0.685744,-0.053128,30.0,10.2,-3.3,-37.875,269.5548,-4.4927,-5.6956,5.0,22.68343,48.8439,2.3533363,307.0968,NaN,,44.303226,,0 / 17,1162,2022-01-10 17:04:33:691
2.159223,1.159024,9.125328,1.956562,0.363566,9.602608,-0.274343,-0.122748,-0.480686,-0.347532,-0.685744,-0.053128,30.0,10.2,-3.3,-37.875,269.5548,-4.4927,-5.6956,5.0,22.68343,48.8439,2.3533363,307.0968,NaN,,44.303226,,0 / 17,1168,2022-01-10 17:04:33:697
2.159223,1.159024,9.125328,1.956562,0.363566,9.602608,-0.274343,-0.122748,-0.480686,-0.347532,-0.685744,-0.053128,30.0,10.2,-3.3,-37.875,269.5548,-4.4927,-5.6956,5.0,22.68343,48.8439,2.3533363,307.0968,NaN,,44.303226,,0 / 17,1173,2022-01-10 17:04:33:702
2.159223,1.159024,9.125328,1.956562,0.363566,9.602608,-0.274343,-0.122748,-0.480686,-0.347532,-0.685744,-0.053128,30.0,10.2,-3.3,-37.875,269.5548,-4.4927,-5.6956,5.0,22.68343,48.8439,2.3533363,307.0968,NaN,,44.303226,,0 / 17,1178,2022-01-10 17:04:33:707
2.159223,1.159024,9.125328,1.068044,1.467662,9.6372,-0.274343,-0.122748,-0.480686,-0.347532,-0.685744,-0.053128,30.0,10.2,-3.3,-37.875,269.5548,-4.4927,-5.6956,5.0,22.68343,48.8439,2.3533363,307.0968,NaN,,44.303226,,0 / 17,1182,2022-01-10 17:04:33:711
2.159223,1.159024,9.125328,1.068044,1.467662,9.6372,1.483835,-0.532441,-0.838088,-0.347532,-0.685744,-0.053128,30.0,10.2,-3.3,-37.875,269.5548,-4.4927,-5.6956,5.0,22.68343,48.8439,2.3533363,307.0968,NaN,,44.303226,,0 / 17,1189,2022-01-10 17:04:33:718
2.159223,1.159024,9.125328,1.068044,1.467662,9.6372,1.483835,-0.532441,-0.838088,-0.347532,-0.685744,-0.053128,30.0,10.2,-3.3,-37.875,269.5548,-4.4927,-5.6956,5.0,22.68343,48.8439,2.3533363,307.0968,NaN,,44.303226,,0 / 17,1193,2022-01-10 17:04:33:722
2.159223,1.159024,9.125328,1.068044,1.467662,9.6372,1.483835,-0.532441,-0.838088,-0.347532,-0.685744,-0.053128,30.0,10.2,-3.3,-37.875,269.5548,-4.4927,-5.6956,5.0,22.68343,48.8439,2.3533363,307.0968,NaN,,44.303226,,0 / 17,1197,2022-01-10 17:04:33:726
2.159223,1.159024,9.125328,1.068044,1.467662,9.6372,1.483835,-0.532441,-0.838088,-0.347532,-0.685744,-0.053128,30.0,10.2,-3.3,-37.875,269.5548,-4.4927,-5.6956,5.0,22.68343,48.8439,2.3533363,307.0968,NaN,,44.303226,,0 / 17,1203,2022-01-10 17:04:33:732
2.159223,1.159024,9.125328,1.068044,1.467662,9.6372,1.483835,-0.532441,-0.838088,-0.347532,-0.685744,-0.053128,30.0,10.2,-3.3,-37.875,269.5548,-4.4927,-5.6956,5.0,22.68343,48.8439,2.3533363,307.0968,NaN,,44.303226,,0 / 17,1208,2022-01-10 17:04:33:737
2.159223,1.159024,9.125328,1.068044,1.467662,9.6372,1.483835,-0.532441,-0.838088,-0.347532,-0.685744,-0.053128,30.0,10.2,-3.3,-37.875,269.5548,-4.4927,-5.6956,5.0,22.68343,48.8439,2.3533363,307.0968,NaN,,44.303226,,0 / 17,1212,2022-01-10 17:04:33:741
2.159223,1.159024,9.125328,1.068044,1.467662,9.6372,1.483835,-0.532441,-0.838088,-0.347532,-0.685744,-0.053128,30.0,10.2,-3.3,-37.875,269.5548,-4.4927,-5.6956,5.0,22.68343,48.8439,2.3533363,307.0968,NaN,,44.303226,,0 / 17,1218,2022-01-10 17:04:33:747
2.159223,1.159024,9.125328,1.068044,1.467662,9.6372,1.483835,-0.532441,-0.838088,-0.347532,-0.685744,-0.053128,30.0,10.2,-3.3,-37.875,269.5548,-4.4927,-5.6956,5.0,22.68343,48.8439,2.3533363,307.0968,NaN,,44.303226,,0 / 17,1222,2022-01-10 17:04:33:751
2.159223,1.159024,9.125328,1.068044,1.467662,9.6372,1.483835,-0.532441,-0.838088,-0.347532,-0.685744,-0.053128,30.0,10.2,-3.3,-37.875,269.5548,-4.4927,-5.6956,5.0,22.68343,48.8439,2.3533363,307.0968,NaN,,44.303226,,0 / 17,1228,2022-01-10 17:04:33:757
2.159223,1.159024,9.125328,1.068044,1.467662,9.6372,1.483835,-0.532441,-0.838088,-0.347532,-0.685744,-0.053128,30.0,10.2,-3.3,-37.875,269.5548,-4.4927,-5.6956,5.0,22.68343,48.8439,2.3533363,307.0968,NaN,,44.303226,,0 / 17,1232,2022-01-10 17:04:33:761
2.159223,1.159024,9.125328,1.068044,1.467662,9.6372,1.483835,-0.532441,-0.838088,-0.347532,-0.685744,-0.053128,30.0,10.2,-3.3,-37.875,269.5548,-4.4927,-5.6956,5.0,22.68343,48.8439,2.3533363,307.0968,NaN,,44.303226,,0 / 17,1238,2022-01-10 17:04:33:767
2.159223,1.159024,9.125328,1.068044,1.467662,9.6372,1.483835,-0.532441,-0.838088,-0.169239,-0.184418,-0.587742,30.0,7.575,-4.575,-39.0,273.3908,-8.6072,-6.324,5.0,22.68343,48.8439,2.3533363,307.0968,NaN,,44.303226,,0 / 17,1242,2022-01-10 17:04:33:771
2.159223,1.159024,9.125328,1.068044,1.467662,9.6372,1.483835,-0.532441,-0.838088,-0.169239,-0.184418,-0.587742,30.0,7.575,-4.575,-39.0,273.3908,-8.6072,-6.324,5.0,22.68343,48.8439,2.3533363,307.0968,NaN,,44.303226,,0 / 17,1248,2022-01-10 17:04:33:777
2.159223,1.159024,9.125328,1.068044,1.467662,9.6372,1.483835,-0.532441,-0.838088,-0.169239,-0.184418,-0.587742,30.0,7.575,-4.575,-39.0,273.3908,-8.6072,-6.324,5.0,22.68343,48.8439,2.3533363,307.0968,NaN,,44.303226,,0 / 17,1253,2022-01-10 17:04:33:782
2.159223,1.159024,9.125328,1.068044,1.467662,9.6372,1.483835,-0.532441,-0.838088,-0.169239,-0.184418,-0.587742,30.0,7.575,-4.575,-39.0,273.3908,-8.6072,-6.324,5.0,31.12351,48.8439,2.3533363,307.0968,NaN,,44.303226,,0 / 17,1258,2022-01-10 17:04:33:787
2.159223,1.159024,9.125328,1.068044,1.467662,9.6372,1.483835,-0.532441,-0.838088,-0.169239,-0.184418,-0.587742,30.0,7.575,-4.575,-39.0,273.3908,-8.6072,-6.324,5.0,31.12351,48.8439,2.3533363,307.0968,NaN,,44.303226,,0 / 17,1263,2022-01-10 17:04:33:792
2.159223,1.159024,9.125328,1.068044,1.467662,9.6372,1.483835,-0.532441,-0.838088,-0.169239,-0.184418,-0.587742,30.0,7.575,-4.575,-39.0,273.3908,-8.6072,-6.324,5.0,31.12351,48.8439,2.3533363,307.0968,NaN,,44.303226,,0 / 17,1268,2022-01-10 17:04:33:797
2.159223,1.159024,9.125328,1.068044,1.467662,9.6372,1.483835,-0.532441,-0.838088,-0.169239,-0.184418,-0.587742,30.0,7.575,-4.575,-39.0,273.3908,-8.6072,-6.324,5.0,31.12351,48.8439,2.3533363,307.0968,NaN,,44.303226,,0 / 17,1273,2022-01-10 17:04:33:802
2.159223,1.159024,9.125328,1.068044,1.467662,9.6372,1.483835,-0.532441,-0.838088,-0.169239,-0.184418,-0.587742,30.0,7.575,-4.575,-39.0,273.3908,-8.6072,-6.324,5.0,31.12351,48.8439,2.3533363,307.0968,NaN,,44.303226,,0 / 17,1278,2022-01-10 17:04:33:807
2.159223,1.159024,9.125328,1.068044,1.467662,9.6372,1.483835,-0.532441,-0.838088,-0.169239,-0.184418,-0.587742,30.0,7.575,-4.575,-39.0,273.3908,-8.6072,-6.324,5.0,31.12351,48.8439,2.3533363,307.0968,NaN,,44.303226,,0 / 17,1282,2022-01-10 17:04:33:811
2.159223,1.159024,9.125328,1.068044,1.467662,9.6372,1.483835,-0.532441,-0.838088,-0.169239,-0.184418,-0.587742,30.0,7.575,-4.575,-39.0,273.3908,-8.6072,-6.324,5.0,31.12351,48.8439,2.3533363,307.0968,NaN,,44.303226,,0 / 17,1288,2022-01-10 17:04:33:817
2.762813,1.869094,12.649058,1.068044,1.467662,9.6372,1.483835,-0.532441,-0.838088,-0.169239,-0.184418,-0.587742,30.0,7.575,-4.575,-39.0,273.3908,-8.6072,-6.324,5.0,31.12351,48.8439,2.3533363,307.0968,NaN,,44.303226,,0 / 17,1292,2022-01-10 17:04:33:821
2.762813,1.869094,12.649058,1.247482,1.506846,9.609557,0.422663,-0.228153,0.941187,-0.169239,-0.184418,-0.587742,30.0,7.575,-4.575,-39.0,273.3908,-8.6072,-6.324,5.0,31.12351,48.8439,2.3533363,307.0968,NaN,,44.303226,,0 / 17,1298,2022-01-10 17:04:33:827
2.762813,1.869094,12.649058,1.247482,1.506846,9.609557,0.422663,-0.228153,0.941187,-0.169239,-0.184418,-0.587742,30.0,7.575,-4.575,-39.0,273.3908,-8.6072,-6.324,5.0,31.12351,48.8439,2.3533363,307.0968,NaN,,44.303226,,0 / 17,1303,2022-01-10 17:04:33:832
2.762813,1.869094,12.649058,1.247482,1.506846,9.609557,0.422663,-0.228153,0.941187,-0.169239,-0.184418,-0.587742,30.0,7.575,-4.575,-39.0,273.3908,-8.6072,-6.324,5.0,31.12351,48.8439,2.3533363,307.0968,NaN,,44.303226,,0 / 17,1308,2022-01-10 17:04:33:837
2.762813,1.869094,12.649058,1.247482,1.506846,9.609557,0.422663,-0.228153,0.941187,-0.169239,-0.184418,-0.587742,30.0,7.575,-4.575,-39.0,273.3908,-8.6072,-6.324,5.0,31.12351,48.8439,2.3533363,307.0968,NaN,,44.303226,,0 / 17,1313,2022-01-10 17:04:33:842
2.762813,1.869094,12.649058,1.247482,1.506846,9.609557,0.422663,-0.228153,0.941187,-0.169239,-0.184418,-0.587742,30.0,7.575,-4.575,-39.0,273.3908,-8.6072,-6.324,5.0,31.12351,48.8439,2.3533363,307.0968,NaN,,44.303226,,0 / 17,1317,2022-01-10 17:04:33:846
2.762813,1.869094,12.649058,1.247482,1.506846,9.609557,0.422663,-0.228153,0.941187,-0.169239,-0.184418,-0.587742,30.0,7.575,-4.575,-39.0,273.3908,-8.6072,-6.324,5.0,31.12351,48.8439,2.3533363,307.0968,NaN,,44.303226,,0 / 17,1324,2022-01-10 17:04:33:853
2.762813,1.869094,12.649058,1.247482,1.506846,9.609557,0.422663,-0.228153,0.941187,-0.169239,-0.184418,-0.587742,30.0,7.575,-4.575,-39.0,273.3908,-8.6072,-6.324,5.0,31.12351,48.8439,2.3533363,307.0968,NaN,,44.303226,,0 / 17,1328,2022-01-10 17:04:33:857
2.762813,1.869094,12.649058,1.247482,1.506846,9.609557,0.422663,-0.228153,0.941187,-0.169239,-0.184418,-0.587742,30.0,7.575,-4.575,-39.0,273.3908,-8.6072,-6.324,5.0,31.12351,48.8439,2.3533363,307.0968,NaN,,44.303226,,0 / 17,1332,2022-01-10 17:04:33:861
2.762813,1.869094,12.649058,1.247482,1.506846,9.609557,0.422663,-0.228153,0.941187,-0.169239,-0.184418,-0.587742,30.0,7.575,-4.575,-39.0,273.3908,-8.6072,-6.324,5.0,31.12351,48.8439,2.3533363,307.0968,NaN,,44.303226,,0 / 17,1338,2022-01-10 17:04:33:867
2.762813,1.869094,12.649058,1.247482,1.506846,9.609557,0.422663,-0.228153,0.941187,-0.169239,-0.184418,-0.587742,30.0,7.575,-4.575,-39.0,273.3908,-8.6072,-6.324,5.0,31.12351,48.8439,2.3533363,307.0968,NaN,,44.303226,,0 / 17,1343,2022-01-10 17:04:33:872
2.762813,1.869094,12.649058,1.247482,1.506846,9.609557,0.422663,-0.228153,0.941187,-0.169239,-0.184418,-0.587742,30.0,6.0,-6.075,-39.525,273.3908,-8.6072,-6.324,5.0,31.12351,48.8439,2.3533363,307.0968,NaN,,44.303226,,0 / 17,1348,2022-01-10 17:04:33:877
2.762813,1.869094,12.649058,1.247482,1.506846,9.609557,0.422663,-0.228153,0.941187,-0.169239,-0.184418,-0.587742,26.0,6.0,-6.075,-39.525,273.3908,-8.6072,-6.324,5.0,31.12351,48.8439,2.3533363,307.0968,NaN,,44.303226,,0 / 17,1353,2022-01-10 17:04:33:882
2.762813,1.869094,12.649058,1.247482,1.506846,9.609557,0.422663,-0.228153,0.941187,-0.169239,-0.184418,-0.587742,26.0,6.0,-6.075,-39.525,273.3908,-8.6072,-6.324,5.0,31.12351,48.8439,2.3533363,307.0968,NaN,,44.303226,,0 / 17,1358,2022-01-10 17:04:33:887
2.762813,1.869094,12.649058,1.247482,1.506846,9.609557,0.422663,-0.228153,0.941187,-0.169239,-0.184418,-0.587742,26.0,6.0,-6.075,-39.525,273.3908,-8.6072,-6.324,5.0,31.12351,48.8439,2.3533363,307.0968,NaN,,44.303226,,0 / 17,1364,2022-01-10 17:04:33:893
2.762813,1.869094,12.649058,1.247482,1.506846,9.609557,0.422663,-0.228153,0.941187,-0.169239,-0.184418,-0.587742,26.0,6.0,-6.075,-39.525,273.3908,-8.6072,-6.324,5.0,31.12351,48.8439,2.3533363,307.0968,NaN,,44.303226,,0 / 17,1367,2022-01-10 17:04:33:896
2.762813,1.869094,12.649058,1.247482,1.506846,9.609557,0.422663,-0.228153,0.941187,-0.169239,-0.184418,-0.587742,26.0,6.0,-6.075,-39.525,273.3908,-8.6072,-6.324,5.0,31.12351,48.8439,2.3533363,307.0968,NaN,,44.303226,,0 / 17,1374,2022-01-10 17:04:33:903
2.762813,1.869094,12.649058,1.247482,1.506846,9.609557,0.422663,-0.228153,0.941187,-0.169239,-0.184418,-0.587742,26.0,6.0,-6.075,-39.525,273.3908,-8.6072,-6.324,5.0,31.12351,48.8439,2.3533363,307.0968,NaN,,44.303226,,0 / 17,1378,2022-01-10 17:04:33:907
2.762813,1.869094,12.649058,1.247482,1.506846,9.609557,0.422663,-0.228153,0.941187,1.475614,-0.330888,-0.177494,26.0,6.0,-6.075,-39.525,273.3908,-8.6072,-6.324,5.0,31.12351,48.8439,2.3533363,307.0968,NaN,,44.303226,,0 / 17,1382,2022-01-10 17:04:33:911
2.181955,2.296811,12.774682,1.247482,1.506846,9.609557,0.422663,-0.228153,0.941187,1.475614,-0.330888,-0.177494,26.0,6.0,-6.075,-39.525,273.3908,-8.6072,-6.324,5.0,31.12351,48.8439,2.3533363,307.0968,NaN,,44.303226,,0 / 17,1389,2022-01-10 17:04:33:918
2.181955,2.296811,12.774682,1.247482,1.506846,9.609557,0.422663,-0.228153,0.941187,1.475614,-0.330888,-0.177494,26.0,6.0,-6.075,-39.525,273.3908,-8.6072,-6.324,5.0,31.12351,48.8439,2.3533363,307.0968,NaN,,44.303226,,0 / 17,1393,2022-01-10 17:04:33:922
2.181955,2.296811,12.774682,1.247482,1.506846,9.609557,0.422663,-0.228153,0.941187,1.475614,-0.330888,-0.177494,26.0,6.0,-6.075,-39.525,273.3908,-8.6072,-6.324,5.0,31.12351,48.8439,2.3533363,307.0968,NaN,,44.303226,,0 / 17,1398,2022-01-10 17:04:33:927
2.181955,2.296811,12.774682,1.247482,1.506846,9.609557,0.422663,-0.228153,0.941187,1.475614,-0.330888,-0.177494,26.0,6.0,-6.075,-39.525,273.3908,-8.6072,-6.324,5.0,31.12351,48.8439,2.3533363,307.0968,NaN,,44.303226,,0 / 17,1402,2022-01-10 17:04:33:931
2.181955,2.296811,12.774682,1.247482,1.506846,9.609557,0.422663,-0.228153,0.941187,1.475614,-0.330888,-0.177494,26.0,6.0,-6.075,-39.525,273.3908,-8.6072,-6.324,5.0,31.12351,48.8439,2.3533363,307.0968,NaN,,44.303226,,0 / 17,1408,2022-01-10 17:04:33:937
2.181955,2.296811,12.774682,1.247482,1.506846,9.609557,0.422663,-0.228153,0.941187,1.475614,-0.330888,-0.177494,26.0,6.0,-6.075,-39.525,273.3908,-8.6072,-6.324,5.0,31.12351,48.8439,2.3533363,307.0968,NaN,,44.303226,,0 / 17,1413,2022-01-10 17:04:33:942
2.181955,2.296811,12.774682,1.247482,1.506846,9.609557,0.422663,-0.228153,0.941187,1.475614,-0.330888,-0.177494,26.0,6.0,-6.075,-39.525,273.3908,-8.6072,-6.324,5.0,31.12351,48.8439,2.3533363,307.0968,NaN,,44.303226,,0 / 17,1418,2022-01-10 17:04:33:947
2.181955,2.296811,12.774682,1.247482,1.506846,9.609557,0.422663,-0.228153,0.941187,1.475614,-0.330888,-0.177494,26.0,6.0,-6.075,-39.525,273.3908,-8.6072,-6.324,5.0,31.12351,48.8439,2.3533363,307.0968,NaN,,44.303226,,0 / 17,1422,2022-01-10 17:04:33:951
2.181955,2.296811,12.774682,1.61437,3.371619,9.066222,0.410488,-1.014296,2.820013,1.475614,-0.330888,-0.177494,26.0,6.0,-6.075,-39.525,273.3908,-8.6072,-6.324,5.0,31.12351,48.8439,2.3533363,307.0968,NaN,,44.303226,,0 / 17,1427,2022-01-10 17:04:33:956
2.181955,2.296811,12.774682,1.61437,3.371619,9.066222,0.410488,-1.014296,2.820013,1.475614,-0.330888,-0.177494,26.0,6.0,-6.075,-39.525,273.3908,-8.6072,-6.324,5.0,31.12351,48.8439,2.3533363,307.0968,NaN,,44.303226,,0 / 17,1432,2022-01-10 17:04:33:961
2.181955,2.296811,12.774682,1.61437,3.371619,9.066222,0.410488,-1.014296,2.820013,1.475614,-0.330888,-0.177494,26.0,6.0,-6.075,-39.525,273.3908,-8.6072,-6.324,5.0,31.12351,48.8439,2.3533363,307.0968,NaN,,44.303226,,0 / 17,1437,2022-01-10 17:04:33:966
2.181955,2.296811,12.774682,1.61437,3.371619,9.066222,0.410488,-1.014296,2.820013,1.475614,-0.330888,-0.177494,26.0,6.0,-6.075,-39.525,273.3908,-8.6072,-6.324,5.0,31.12351,48.8439,2.3533363,307.0968,NaN,,44.303226,,0 / 17,1442,2022-01-10 17:04:33:971
2.181955,2.296811,12.774682,1.61437,3.371619,9.066222,0.410488,-1.014296,2.820013,1.475614,-0.330888,-0.177494,26.0,6.0,-6.075,-39.525,273.3908,-8.6072,-6.324,5.0,31.12351,48.8439,2.3533363,307.0968,NaN,,44.303226,,0 / 17,1449,2022-01-10 17:04:33:978
2.181955,2.296811,12.774682,1.61437,3.371619,9.066222,0.410488,-1.014296,2.820013,1.475614,-0.330888,-0.177494,26.0,6.0,-6.075,-39.525,273.3908,-8.6072,-6.324,5.0,31.12351,48.8439,2.3533363,307.0968,NaN,,44.303226,,0 / 17,1453,2022-01-10 17:04:33:982
2.181955,2.296811,12.774682,1.61437,3.371619,9.066222,0.410488,-1.014296,2.820013,1.475614,-0.330888,-0.177494,26.0,6.0,-6.075,-39.525,273.3908,-8.6072,-6.324,5.0,31.12351,48.8439,2.3533363,307.0968,NaN,,44.303226,,0 / 17,1458,2022-01-10 17:04:33:987
2.181955,2.296811,12.774682,1.61437,3.371619,9.066222,0.410488,-1.014296,2.820013,1.475614,-0.330888,-0.177494,26.0,6.0,-6.075,-39.525,273.3908,-8.6072,-6.324,5.0,31.12351,48.8439,2.3533363,307.0968,NaN,,44.303226,,0 / 17,1462,2022-01-10 17:04:33:991
2.181955,2.296811,12.774682,1.61437,3.371619,9.066222,0.410488,-1.014296,2.820013,1.475614,-0.330888,-0.177494,26.0,6.0,-6.075,-39.525,273.3908,-8.6072,-6.324,5.0,31.12351,48.8439,2.3533363,307.0968,NaN,,44.303226,,0 / 17,1467,2022-01-10 17:04:33:996
2.181955,2.296811,12.774682,1.61437,3.371619,9.066222,0.410488,-1.014296,2.820013,1.475614,-0.330888,-0.177494,26.0,6.0,-6.075,-39.525,273.3908,-8.6072,-6.324,5.0,31.12351,48.8439,2.3533363,307.0968,NaN,,44.303226,,0 / 17,1473,2022-01-10 17:04:34:002
2.181955,2.296811,12.774682,1.61437,3.371619,9.066222,0.410488,-1.014296,2.820013,1.475614,-0.330888,-0.177494,26.0,6.0,-6.075,-39.525,273.3908,-8.6072,-6.324,5.0,31.12351,48.8439,2.3533363,307.0968,NaN,,44.303226,,0 / 17,1477,2022-01-10 17:04:34:006
2.181955,2.296811,12.774682,1.61437,3.371619,9.066222,0.410488,-1.014296,2.820013,1.475614,-0.330888,-0.177494,26.0,6.0,-6.075,-39.525,273.3908,-8.6072,-6.324,5.0,31.12351,48.8439,2.3533363,307.0968,NaN,,44.303226,,0 / 17,1483,2022-01-10 17:04:34:012
3.879065,2.379363,11.023734,1.61437,3.371619,9.066222,0.410488,-1.014296,2.820013,1.475614,-0.330888,-0.177494,26.0,6.0,-6.075,-39.525,273.3908,-8.6072,-6.324,5.0,31.12351,48.8439,2.3533363,307.0968,NaN,,44.303226,,0 / 17,1487,2022-01-10 17:04:34:016
3.879065,2.379363,11.023734,1.61437,3.371619,9.066222,0.410488,-1.014296,2.820013,1.475614,-0.330888,-0.177494,26.0,6.225,-10.725,-37.875,279.8017,-20.1091,-10.0965,5.0,31.12351,48.8439,2.3533363,307.0968,NaN,,44.303226,,0 / 17,1492,2022-01-10 17:04:34:021
3.879065,2.379363,11.023734,1.61437,3.371619,9.066222,0.410488,-1.014296,2.820013,1.475614,-0.330888,-0.177494,26.0,6.225,-10.725,-37.875,279.8017,-20.1091,-10.0965,5.0,31.12351,48.8439,2.3533363,307.0968,NaN,,44.303226,,0 / 17,1497,2022-01-10 17:04:34:026
3.879065,2.379363,11.023734,1.61437,3.371619,9.066222,0.410488,-1.014296,2.820013,1.475614,-0.330888,-0.177494,26.0,6.225,-10.725,-37.875,279.8017,-20.1091,-10.0965,5.0,31.12351,48.8439,2.3533363,307.0968,NaN,,44.303226,,0 / 17,1503,2022-01-10 17:04:34:032
3.879065,2.379363,11.023734,1.61437,3.371619,9.066222,0.410488,-1.014296,2.820013,1.475614,-0.330888,-0.177494,26.0,6.225,-10.725,-37.875,279.8017,-20.1091,-10.0965,5.0,31.12351,48.8439,2.3533363,307.0968,NaN,,44.303226,,0 / 17,1510,2022-01-10 17:04:34:039
3.879065,2.379363,11.023734,1.61437,3.371619,9.066222,0.410488,-1.014296,2.820013,4.491289,1.427545,-1.181743,26.0,6.225,-10.725,-37.875,279.8017,-20.1091,-10.0965,5.0,31.12351,48.8439,2.3533363,307.0968,NaN,,44.303226,,0 / 17,1512,2022-01-10 17:04:34:041
3.879065,2.379363,11.023734,1.61437,3.371619,9.066222,0.410488,-1.014296,2.820013,4.491289,1.427545,-1.181743,26.0,6.225,-10.725,-37.875,279.8017,-20.1091,-10.0965,5.0,31.12351,48.8439,2.3533363,307.0968,NaN,,44.303226,,0 / 17,1517,2022-01-10 17:04:34:046
3.879065,2.379363,11.023734,1.61437,3.371619,9.066222,0.410488,-1.014296,2.820013,4.491289,1.427545,-1.181743,26.0,6.225,-10.725,-37.875,279.8017,-20.1091,-10.0965,5.0,31.12351,48.8439,2.3533363,307.0968,NaN,,44.303226,,0 / 17,1522,2022-01-10 17:04:34:051
3.879065,2.379363,11.023734,1.61437,3.371619,9.066222,0.410488,-1.014296,2.820013,4.491289,1.427545,-1.181743,26.0,6.225,-10.725,-37.875,279.8017,-20.1091,-10.0965,5.0,31.12351,48.8439,2.3533363,307.0968,NaN,,44.303226,,0 / 17,1528,2022-01-10 17:04:34:057
3.879065,2.379363,11.023734,1.61437,3.371619,9.066222,0.410488,-1.014296,2.820013,4.491289,1.427545,-1.181743,26.0,6.225,-10.725,-37.875,279.8017,-20.1091,-10.0965,5.0,31.12351,48.8439,2.3533363,307.0968,NaN,,44.303226,,0 / 17,1532,2022-01-10 17:04:34:061
3.879065,2.379363,11.023734,1.61437,3.371619,9.066222,0.410488,-1.014296,2.820013,4.491289,1.427545,-1.181743,26.0,6.225,-10.725,-37.875,279.8017,-20.1091,-10.0965,5.0,31.12351,48.8439,2.3533363,307.0968,NaN,,44.303226,,0 / 17,1537,2022-01-10 17:04:34:066
3.879065,2.379363,11.023734,1.61437,3.371619,9.066222,0.410488,-1.014296,2.820013,4.491289,1.427545,-1.181743,26.0,6.225,-10.725,-37.875,279.8017,-20.1091,-10.0965,5.0,31.12351,48.8439,2.3533363,307.0968,NaN,,44.303226,,0 / 17,1543,2022-01-10 17:04:34:072
3.879065,2.379363,11.023734,1.61437,3.371619,9.066222,0.410488,-1.014296,2.820013,4.491289,1.427545,-1.181743,26.0,6.225,-10.725,-37.875,279.8017,-20.1091,-10.0965,5.0,31.12351,48.8439,2.3533363,307.0968,NaN,,44.303226,,0 / 17,1547,2022-01-10 17:04:34:076
3.879065,2.379363,11.023734,-0.409544,7.592335,6.193474,2.926488,-4.884502,3.856185,4.491289,1.427545,-1.181743,26.0,6.225,-10.725,-37.875,279.8017,-20.1091,-10.0965,5.0,31.12351,48.8439,2.3533363,307.0968,NaN,,44.303226,,0 / 17,1553,2022-01-10 17:04:34:082
3.879065,2.379363,11.023734,-0.409544,7.592335,6.193474,2.926488,-4.884502,3.856185,4.491289,1.427545,-1.181743,26.0,6.225,-10.725,-37.875,279.8017,-20.1091,-10.0965,5.0,31.12351,48.8439,2.3533363,307.0968,NaN,,44.303226,,0 / 17,1558,2022-01-10 17:04:34:087
3.879065,2.379363,11.023734,-0.409544,7.592335,6.193474,2.926488,-4.884502,3.856185,4.491289,1.427545,-1.181743,26.0,6.225,-10.725,-37.875,279.8017,-20.1091,-10.0965,5.0,31.12351,48.8439,2.3533363,307.0968,NaN,,44.303226,,0 / 17,1563,2022-01-10 17:04:34:092
3.879065,2.379363,11.023734,-0.409544,7.592335,6.193474,2.926488,-4.884502,3.856185,4.491289,1.427545,-1.181743,26.0,6.225,-10.725,-37.875,279.8017,-20.1091,-10.0965,5.0,31.12351,48.8439,2.3533363,307.0968,NaN,,44.303226,,0 / 17,1567,2022-01-10 17:04:34:096
3.879065,2.379363,11.023734,-0.409544,7.592335,6.193474,2.926488,-4.884502,3.856185,4.491289,1.427545,-1.181743,26.0,6.225,-10.725,-37.875,279.8017,-20.1091,-10.0965,5.0,31.12351,48.8439,2.3533363,307.0968,NaN,,44.303226,,0 / 17,1572,2022-01-10 17:04:34:101
3.879065,2.379363,11.023734,-0.409544,7.592335,6.193474,2.926488,-4.884502,3.856185,4.491289,1.427545,-1.181743,26.0,6.225,-10.725,-37.875,279.8017,-20.1091,-10.0965,5.0,31.12351,48.8439,2.3533363,307.0968,NaN,,44.303226,,0 / 17,1578,2022-01-10 17:04:34:107
1.497907,3.823731,3.325724,-0.409544,7.592335,6.193474,2.926488,-4.884502,3.856185,4.491289,1.427545,-1.181743,26.0,6.225,-10.725,-37.875,279.8017,-20.1091,-10.0965,5.0,25.41071,48.8439,2.3533363,307.0968,NaN,,44.303226,,0 / 17,1582,2022-01-10 17:04:34:111
1.497907,3.823731,3.325724,-0.409544,7.592335,6.193474,2.926488,-4.884502,3.856185,4.491289,1.427545,-1.181743,26.0,6.225,-10.725,-37.875,279.8017,-20.1091,-10.0965,5.0,25.41071,48.8439,2.3533363,307.0968,NaN,,44.303226,,0 / 17,1587,2022-01-10 17:04:34:116
1.497907,3.823731,3.325724,-0.409544,7.592335,6.193474,2.926488,-4.884502,3.856185,4.491289,1.427545,-1.181743,26.0,6.225,-10.725,-37.875,279.8017,-20.1091,-10.0965,5.0,25.41071,48.8439,2.3533363,307.0968,NaN,,44.303226,,0 / 17,1593,2022-01-10 17:04:34:122
1.497907,3.823731,3.325724,-0.409544,7.592335,6.193474,2.926488,-4.884502,3.856185,4.491289,1.427545,-1.181743,26.0,6.225,-10.725,-37.875,279.8017,-20.1091,-10.0965,5.0,25.41071,48.8439,2.3533363,307.0968,NaN,,44.303226,,0 / 17,1597,2022-01-10 17:04:34:126
1.497907,3.823731,3.325724,-0.409544,7.592335,6.193474,2.926488,-4.884502,3.856185,4.491289,1.427545,-1.181743,26.0,6.225,-10.725,-37.875,279.8017,-20.1091,-10.0965,5.0,25.41071,48.8439,2.3533363,307.0968,NaN,,44.303226,,0 / 17,1602,2022-01-10 17:04:34:131
1.497907,3.823731,3.325724,-0.409544,7.592335,6.193474,2.926488,-4.884502,3.856185,4.491289,1.427545,-1.181743,26.0,6.225,-10.725,-37.875,279.8017,-20.1091,-10.0965,5.0,25.41071,48.8439,2.3533363,307.0968,NaN,,44.303226,,0 / 17,1608,2022-01-10 17:04:34:137
1.497907,3.823731,3.325724,-0.409544,7.592335,6.193474,2.926488,-4.884502,3.856185,4.491289,1.427545,-1.181743,26.0,6.225,-10.725,-37.875,279.8017,-20.1091,-10.0965,5.0,25.41071,48.8439,2.3533363,307.0968,NaN,,44.303226,,0 / 17,1613,2022-01-10 17:04:34:142
1.497907,3.823731,3.325724,-0.409544,7.592335,6.193474,2.926488,-4.884502,3.856185,4.491289,1.427545,-1.181743,26.0,6.225,-10.725,-37.875,279.8017,-20.1091,-10.0965,5.0,25.41071,48.8439,2.3533363,307.0968,NaN,,44.303226,,0 / 17,1617,2022-01-10 17:04:34:146
1.497907,3.823731,3.325724,-0.409544,7.592335,6.193474,2.926488,-4.884502,3.856185,4.491289,1.427545,-1.181743,26.0,6.225,-10.725,-37.875,279.8017,-20.1091,-10.0965,5.0,25.41071,48.8439,2.3533363,307.0968,NaN,,44.303226,,0 / 17,1622,2022-01-10 17:04:34:151
1.497907,3.823731,3.325724,-0.409544,7.592335,6.193474,2.926488,-4.884502,3.856185,4.491289,1.427545,-1.181743,26.0,6.225,-10.725,-37.875,279.8017,-20.1091,-10.0965,5.0,25.41071,48.8439,2.3533363,307.0968,NaN,,44.303226,,0 / 17,1628,2022-01-10 17:04:34:157
1.497907,3.823731,3.325724,-0.409544,7.592335,6.193474,2.926488,-4.884502,3.856185,7.073813,3.821124,-3.658942,26.0,6.225,-10.725,-37.875,279.8017,-20.1091,-10.0965,5.0,25.41071,48.8439,2.3533363,307.0968,NaN,,44.303226,,0 / 17,1636,2022-01-10 17:04:34:165
1.497907,3.823731,3.325724,-0.409544,7.592335,6.193474,2.926488,-4.884502,3.856185,7.073813,3.821124,-3.658942,26.0,6.225,-10.725,-37.875,279.8017,-20.1091,-10.0965,5.0,25.41071,48.8439,2.3533363,307.0968,NaN,,44.303226,,0 / 17,1638,2022-01-10 17:04:34:167
1.497907,3.823731,3.325724,-0.409544,7.592335,6.193474,2.926488,-4.884502,3.856185,7.073813,3.821124,-3.658942,26.0,6.225,-10.725,-37.875,279.8017,-20.1091,-10.0965,5.0,25.41071,48.8439,2.3533363,307.0968,NaN,,44.303226,,0 / 17,1642,2022-01-10 17:04:34:171
1.497907,3.823731,3.325724,-0.409544,7.592335,6.193474,2.926488,-4.884502,3.856185,7.073813,3.821124,-3.658942,26.0,10.875,-18.075,-30.15,323.9157,-50.7328,3.7832,5.0,25.41071,48.8439,2.3533363,307.0968,NaN,,44.303226,,0 / 17,1647,2022-01-10 17:04:34:176
1.497907,3.823731,3.325724,-0.409544,7.592335,6.193474,2.926488,-4.884502,3.856185,7.073813,3.821124,-3.658942,26.0,10.875,-18.075,-30.15,323.9157,-50.7328,3.7832,5.0,25.41071,48.8439,2.3533363,307.0968,NaN,,44.303226,,0 / 17,1653,2022-01-10 17:04:34:182
1.497907,3.823731,3.325724,-0.409544,7.592335,6.193474,2.926488,-4.884502,3.856185,7.073813,3.821124,-3.658942,26.0,10.875,-18.075,-30.15,323.9157,-50.7328,3.7832,5.0,25.41071,48.8439,2.3533363,307.0968,NaN,,44.303226,,0 / 17,1658,2022-01-10 17:04:34:187
1.497907,3.823731,3.325724,-0.409544,7.592335,6.193474,2.926488,-4.884502,3.856185,7.073813,3.821124,-3.658942,26.0,10.875,-18.075,-30.15,323.9157,-50.7328,3.7832,5.0,25.41071,48.8439,2.3533363,307.0968,NaN,,44.303226,,0 / 17,1662,2022-01-10 17:04:34:191
1.497907,3.823731,3.325724,-0.409544,7.592335,6.193474,2.926488,-4.884502,3.856185,7.073813,3.821124,-3.658942,26.0,10.875,-18.075,-30.15,323.9157,-50.7328,3.7832,5.0,25.41071,48.8439,2.3533363,307.0968,NaN,,44.303226,,0 / 17,1668,2022-01-10 17:04:34:197
-0.318844,0.384048,-4.615156,-4.797391,8.28219,-2.135596,6.591592,-4.493242,5.519097,7.073813,3.821124,-3.658942,26.0,10.875,-18.075,-30.15,323.9157,-50.7328,3.7832,5.0,25.41071,48.8439,2.3533363,307.0968,NaN,,44.303226,,0 / 17,1674,2022-01-10 17:04:34:203
-0.318844,0.384048,-4.615156,-4.797391,8.28219,-2.135596,6.591592,-4.493242,5.519097,7.073813,3.821124,-3.658942,26.0,10.875,-18.075,-30.15,323.9157,-50.7328,3.7832,5.0,25.41071,48.8439,2.3533363,307.0968,NaN,,44.303226,,0 / 17,1678,2022-01-10 17:04:34:207
-0.318844,0.384048,-4.615156,-4.797391,8.28219,-2.135596,6.591592,-4.493242,5.519097,7.073813,3.821124,-3.658942,26.0,10.875,-18.075,-30.15,323.9157,-50.7328,3.7832,5.0,25.41071,48.8439,2.3533363,307.0968,NaN,,44.303226,,0 / 17,1685,2022-01-10 17:04:34:214
-0.318844,0.384048,-4.615156,-4.797391,8.28219,-2.135596,6.591592,-4.493242,5.519097,7.073813,3.821124,-3.658942,26.0,10.875,-18.075,-30.15,323.9157,-50.7328,3.7832,5.0,25.41071,48.8439,2.3533363,307.0968,NaN,,44.303226,,0 / 17,1688,2022-01-10 17:04:34:217
-0.318844,0.384048,-4.615156,-4.797391,8.28219,-2.135596,6.591592,-4.493242,5.519097,7.073813,3.821124,-3.658942,26.0,10.875,-18.075,-30.15,323.9157,-50.7328,3.7832,5.0,25.41071,48.8439,2.3533363,307.0968,NaN,,44.303226,,0 / 17,1693,2022-01-10 17:04:34:222
-0.318844,0.384048,-4.615156,-4.797391,8.28219,-2.135596,6.591592,-4.493242,5.519097,7.073813,3.821124,-3.658942,26.0,10.875,-18.075,-30.15,323.9157,-50.7328,3.7832,5.0,25.41071,48.8439,2.3533363,307.0968,NaN,,44.303226,,0 / 17,1698,2022-01-10 17:04:34:227
-0.318844,0.384048,-4.615156,-4.797391,8.28219,-2.135596,6.591592,-4.493242,5.519097,7.073813,3.821124,-3.658942,26.0,10.875,-18.075,-30.15,323.9157,-50.7328,3.7832,5.0,25.41071,48.8439,2.3533363,307.0968,NaN,,44.303226,,0 / 17,1703,2022-01-10 17:04:34:232
-0.318844,0.384048,-4.615156,-4.797391,8.28219,-2.135596,6.591592,-4.493242,5.519097,7.073813,3.821124,-3.658942,26.0,10.875,-18.075,-30.15,323.9157,-50.7328,3.7832,5.0,25.41071,48.8439,2.3533363,307.0968,NaN,,44.303226,,0 / 17,1708,2022-01-10 17:04:34:237
-0.318844,0.384048,-4.615156,-4.797391,8.28219,-2.135596,6.591592,-4.493242,5.519097,7.073813,3.821124,-3.658942,26.0,10.875,-18.075,-30.15,323.9157,-50.7328,3.7832,5.0,25.41071,48.8439,2.3533363,307.0968,NaN,,44.303226,,0 / 17,1712,2022-01-10 17:04:34:241
-0.318844,0.384048,-4.615156,-4.797391,8.28219,-2.135596,6.591592,-4.493242,5.519097,7.073813,3.821124,-3.658942,26.0,10.875,-18.075,-30.15,323.9157,-50.7328,3.7832,5.0,25.41071,48.8439,2.3533363,307.0968,NaN,,44.303226,,0 / 17,1718,2022-01-10 17:04:34:247
-0.318844,0.384048,-4.615156,-4.797391,8.28219,-2.135596,6.591592,-4.493242,5.519097,7.073813,3.821124,-3.658942,26.0,10.875,-18.075,-30.15,323.9157,-50.7328,3.7832,5.0,25.41071,48.8439,2.3533363,307.0968,NaN,,44.303226,,0 / 17,1723,2022-01-10 17:04:34:252
-0.318844,0.384048,-4.615156,-4.797391,8.28219,-2.135596,6.591592,-4.493242,5.519097,7.073813,3.821124,-3.658942,26.0,10.875,-18.075,-30.15,323.9157,-50.7328,3.7832,5.0,25.41071,48.8439,2.3533363,307.0968,NaN,,44.303226,,0 / 17,1728,2022-01-10 17:04:34:257
-0.318844,0.384048,-4.615156,-4.797391,8.28219,-2.135596,6.591592,-4.493242,5.519097,7.073813,3.821124,-3.658942,26.0,10.875,-18.075,-30.15,323.9157,-50.7328,3.7832,5.0,25.41071,48.8439,2.3533363,307.0968,NaN,,44.303226,,0 / 17,1733,2022-01-10 17:04:34:262
-0.318844,0.384048,-4.615156,-4.797391,8.28219,-2.135596,6.591592,-4.493242,5.519097,7.073813,3.821124,-3.658942,26.0,10.875,-18.075,-30.15,323.9157,-50.7328,3.7832,5.0,25.41071,48.8439,2.3533363,307.0968,NaN,,44.303226,,0 / 17,1738,2022-01-10 17:04:34:267
-0.318844,0.384048,-4.615156,-4.797391,8.28219,-2.135596,6.591592,-4.493242,5.519097,7.073813,3.821124,-3.658942,26.0,10.875,-18.075,-30.15,323.9157,-50.7328,3.7832,5.0,25.41071,48.8439,2.3533363,307.0968,NaN,,44.303226,,0 / 17,1743,2022-01-10 17:04:34:272
-0.318844,0.384048,-4.615156,-4.797391,8.28219,-2.135596,6.591592,-4.493242,5.519097,7.073813,3.821124,-3.658942,26.0,10.875,-18.075,-30.15,323.9157,-50.7328,3.7832,5.0,25.41071,48.8439,2.3533363,307.0968,NaN,,44.303226,,0 / 17,1748,2022-01-10 17:04:34:277
-0.318844,0.384048,-4.615156,-4.797391,8.28219,-2.135596,6.591592,-4.493242,5.519097,7.073813,3.821124,-3.658942,26.0,10.875,-18.075,-30.15,323.9157,-50.7328,3.7832,5.0,25.41071,48.8439,2.3533363,307.0968,NaN,,44.303226,,0 / 17,1752,2022-01-10 17:04:34:281
-6.181857,-3.551846,-10.147662,-4.797391,8.28219,-2.135596,6.591592,-4.493242,5.519097,7.073813,3.821124,-3.658942,9.0,10.875,-18.075,-30.15,323.9157,-50.7328,3.7832,5.0,25.41071,48.8439,2.3533363,307.0968,NaN,,44.303226,,0 / 17,1757,2022-01-10 17:04:34:286
-6.181857,-3.551846,-10.147662,-4.797391,8.28219,-2.135596,6.591592,-4.493242,5.519097,7.073813,3.821124,-3.658942,9.0,10.875,-18.075,-30.15,323.9157,-50.7328,3.7832,5.0,25.41071,48.8439,2.3533363,307.0968,NaN,,44.303226,,0 / 17,1762,2022-01-10 17:04:34:291
-6.181857,-3.551846,-10.147662,-4.797391,8.28219,-2.135596,6.591592,-4.493242,5.519097,7.073813,3.821124,-3.658942,9.0,10.875,-18.075,-30.15,323.9157,-50.7328,3.7832,5.0,25.41071,48.8439,2.3533363,307.0968,NaN,,44.303226,,0 / 17,1768,2022-01-10 17:04:34:297
-6.181857,-3.551846,-10.147662,-4.797391,8.28219,-2.135596,6.591592,-4.493242,5.519097,5.177033,-0.813039,-6.301386,9.0,10.875,-18.075,-30.15,323.9157,-50.7328,3.7832,5.0,25.41071,48.8439,2.3533363,307.0968,NaN,,44.303226,,0 / 17,1773,2022-01-10 17:04:34:302
-6.181857,-3.551846,-10.147662,-4.797391,8.28219,-2.135596,6.591592,-4.493242,5.519097,5.177033,-0.813039,-6.301386,9.0,10.875,-18.075,-30.15,323.9157,-50.7328,3.7832,5.0,25.41071,48.8439,2.3533363,307.0968,NaN,,44.303226,,0 / 17,1777,2022-01-10 17:04:34:306
-6.181857,-3.551846,-10.147662,-4.797391,8.28219,-2.135596,6.591592,-4.493242,5.519097,5.177033,-0.813039,-6.301386,9.0,10.875,-18.075,-30.15,323.9157,-50.7328,3.7832,5.0,25.41071,48.8439,2.3533363,307.0968,NaN,,44.303226,,0 / 17,1782,2022-01-10 17:04:34:311
-6.181857,-3.551846,-10.147662,-8.102129,0.172475,-5.522331,4.018255,-2.260204,-0.037021,5.177033,-0.813039,-6.301386,9.0,10.875,-18.075,-30.15,323.9157,-50.7328,3.7832,5.0,25.41071,48.8439,2.3533363,307.0968,NaN,,44.303226,,0 / 17,1787,2022-01-10 17:04:34:316
-6.181857,-3.551846,-10.147662,-8.102129,0.172475,-5.522331,4.018255,-2.260204,-0.037021,5.177033,-0.813039,-6.301386,9.0,10.875,-18.075,-30.15,323.9157,-50.7328,3.7832,5.0,25.41071,48.8439,2.3533363,307.0968,NaN,,44.303226,,0 / 17,1792,2022-01-10 17:04:34:321
-6.181857,-3.551846,-10.147662,-8.102129,0.172475,-5.522331,4.018255,-2.260204,-0.037021,5.177033,-0.813039,-6.301386,9.0,10.875,-18.075,-30.15,323.9157,-50.7328,3.7832,5.0,25.41071,48.8439,2.3533363,307.0968,NaN,,44.303226,,0 / 17,1800,2022-01-10 17:04:34:329
-6.181857,-3.551846,-10.147662,-8.102129,0.172475,-5.522331,4.018255,-2.260204,-0.037021,5.177033,-0.813039,-6.301386,9.0,10.875,-18.075,-30.15,323.9157,-50.7328,3.7832,5.0,25.41071,48.8439,2.3533363,307.0968,NaN,,44.303226,,0 / 17,1805,2022-01-10 17:04:34:334
-6.181857,-3.551846,-10.147662,-8.102129,0.172475,-5.522331,4.018255,-2.260204,-0.037021,5.177033,-0.813039,-6.301386,9.0,10.875,-18.075,-30.15,323.9157,-50.7328,3.7832,5.0,25.41071,48.8439,2.3533363,307.0968,NaN,,44.303226,,0 / 17,1808,2022-01-10 17:04:34:337
-6.181857,-3.551846,-10.147662,-8.102129,0.172475,-5.522331,4.018255,-2.260204,-0.037021,5.177033,-0.813039,-6.301386,9.0,10.875,-18.075,-30.15,323.9157,-50.7328,3.7832,5.0,25.41071,48.8439,2.3533363,307.0968,NaN,,44.303226,,0 / 17,1812,2022-01-10 17:04:34:341
-6.181857,-3.551846,-10.147662,-8.102129,0.172475,-5.522331,4.018255,-2.260204,-0.037021,5.177033,-0.813039,-6.301386,9.0,10.875,-18.075,-30.15,323.9157,-50.7328,3.7832,5.0,25.41071,48.8439,2.3533363,307.0968,NaN,,44.303226,,0 / 17,1817,2022-01-10 17:04:34:346
-6.181857,-3.551846,-10.147662,-8.102129,0.172475,-5.522331,4.018255,-2.260204,-0.037021,5.177033,-0.813039,-6.301386,9.0,10.875,-18.075,-30.15,323.9157,-50.7328,3.7832,5.0,25.41071,48.8439,2.3533363,307.0968,NaN,,44.303226,,0 / 17,1823,2022-01-10 17:04:34:352
-6.181857,-3.551846,-10.147662,-8.102129,0.172475,-5.522331,4.018255,-2.260204,-0.037021,5.177033,-0.813039,-6.301386,9.0,10.875,-18.075,-30.15,323.9157,-50.7328,3.7832,5.0,25.41071,48.8439,2.3533363,307.0968,NaN,,44.303226,,0 / 17,1828,2022-01-10 17:04:34:357
-6.181857,-3.551846,-10.147662,-8.102129,0.172475,-5.522331,4.018255,-2.260204,-0.037021,5.177033,-0.813039,-6.301386,9.0,10.875,-18.075,-30.15,323.9157,-50.7328,3.7832,5.0,25.41071,48.8439,2.3533363,307.0968,NaN,,44.303226,,0 / 17,1833,2022-01-10 17:04:34:362
-6.181857,-3.551846,-10.147662,-8.102129,0.172475,-5.522331,4.018255,-2.260204,-0.037021,5.177033,-0.813039,-6.301386,9.0,10.875,-18.075,-30.15,323.9157,-50.7328,3.7832,5.0,25.41071,48.8439,2.3533363,307.0968,NaN,,44.303226,,0 / 17,1838,2022-01-10 17:04:34:367
-8.84806,-6.66102,-2.368296,-8.102129,0.172475,-5.522331,4.018255,-2.260204,-0.037021,5.177033,-0.813039,-6.301386,9.0,21.225,-13.725,-6.15,129.3276,-1.0077,124.278,5.0,25.41071,48.8439,2.3533363,307.0968,NaN,,44.303226,,0 / 17,1843,2022-01-10 17:04:34:372
-8.84806,-6.66102,-2.368296,-8.102129,0.172475,-5.522331,4.018255,-2.260204,-0.037021,5.177033,-0.813039,-6.301386,9.0,21.225,-13.725,-6.15,129.3276,-1.0077,124.278,5.0,25.41071,48.8439,2.3533363,307.0968,NaN,,44.303226,,0 / 17,1849,2022-01-10 17:04:34:378
-8.84806,-6.66102,-2.368296,-8.102129,0.172475,-5.522331,4.018255,-2.260204,-0.037021,5.177033,-0.813039,-6.301386,9.0,21.225,-13.725,-6.15,129.3276,-1.0077,124.278,5.0,25.41071,48.8439,2.3533363,307.0968,NaN,,44.303226,,0 / 17,1852,2022-01-10 17:04:34:381
-8.84806,-6.66102,-2.368296,-8.102129,0.172475,-5.522331,4.018255,-2.260204,-0.037021,5.177033,-0.813039,-6.301386,9.0,21.225,-13.725,-6.15,129.3276,-1.0077,124.278,5.0,25.41071,48.8439,2.3533363,307.0968,NaN,,44.303226,,0 / 17,1858,2022-01-10 17:04:34:387
-8.84806,-6.66102,-2.368296,-8.102129,0.172475,-5.522331,4.018255,-2.260204,-0.037021,5.177033,-0.813039,-6.301386,9.0,21.225,-13.725,-6.15,129.3276,-1.0077,124.278,5.0,25.41071,48.8439,2.3533363,307.0968,NaN,,44.303226,,0 / 17,1863,2022-01-10 17:04:34:392
-8.84806,-6.66102,-2.368296,-8.102129,0.172475,-5.522331,4.018255,-2.260204,-0.037021,5.177033,-0.813039,-6.301386,9.0,21.225,-13.725,-6.15,129.3276,-1.0077,124.278,5.0,25.41071,48.8439,2.3533363,307.0968,NaN,,44.303226,,0 / 17,1867,2022-01-10 17:04:34:396
-8.84806,-6.66102,-2.368296,-8.102129,0.172475,-5.522331,4.018255,-2.260204,-0.037021,5.177033,-0.813039,-6.301386,9.0,21.225,-13.725,-6.15,129.3276,-1.0077,124.278,5.0,25.41071,48.8439,2.3533363,307.0968,NaN,,44.303226,,0 / 17,1873,2022-01-10 17:04:34:402
-8.84806,-6.66102,-2.368296,-8.102129,0.172475,-5.522331,4.018255,-2.260204,-0.037021,5.177033,-0.813039,-6.301386,9.0,21.225,-13.725,-6.15,129.3276,-1.0077,124.278,5.0,25.41071,48.8439,2.3533363,307.0968,NaN,,44.303226,,0 / 17,1878,2022-01-10 17:04:34:407
-8.84806,-6.66102,-2.368296,-8.102129,0.172475,-5.522331,4.018255,-2.260204,-0.037021,5.177033,-0.813039,-6.301386,9.0,21.225,-13.725,-6.15,129.3276,-1.0077,124.278,5.0,25.41071,48.8439,2.3533363,307.0968,NaN,,44.303226,,0 / 17,1882,2022-01-10 17:04:34:411
-8.84806,-6.66102,-2.368296,-8.102129,0.172475,-5.522331,4.018255,-2.260204,-0.037021,5.177033,-0.813039,-6.301386,9.0,21.225,-13.725,-6.15,129.3276,-1.0077,124.278,5.0,25.41071,48.8439,2.3533363,307.0968,NaN,,44.303226,,0 / 17,1889,2022-01-10 17:04:34:418
-8.84806,-6.66102,-2.368296,-8.102129,0.172475,-5.522331,4.018255,-2.260204,-0.037021,5.177033,-0.813039,-6.301386,9.0,21.225,-13.725,-6.15,129.3276,-1.0077,124.278,5.0,25.41071,48.8439,2.3533363,307.0968,NaN,,44.303226,,0 / 17,1893,2022-01-10 17:04:34:422
-8.84806,-6.66102,-2.368296,-8.102129,0.172475,-5.522331,4.018255,-2.260204,-0.037021,2.688382,-2.357893,-3.733642,9.0,21.225,-13.725,-6.15,129.3276,-1.0077,124.278,5.0,25.41071,48.8439,2.3533363,307.0968,NaN,,44.303226,,0 / 17,1898,2022-01-10 17:04:34:427
-8.84806,-6.66102,-2.368296,-8.102129,0.172475,-5.522331,4.018255,-2.260204,-0.037021,2.688382,-2.357893,-3.733642,9.0,21.225,-13.725,-6.15,129.3276,-1.0077,124.278,5.0,25.41071,48.8439,2.3533363,307.0968,NaN,,44.303226,,0 / 17,1903,2022-01-10 17:04:34:432
-8.84806,-6.66102,-2.368296,-8.102129,0.172475,-5.522331,4.018255,-2.260204,-0.037021,2.688382,-2.357893,-3.733642,9.0,21.225,-13.725,-6.15,129.3276,-1.0077,124.278,5.0,25.41071,48.8439,2.3533363,307.0968,NaN,,44.303226,,0 / 17,1907,2022-01-10 17:04:34:436
-8.84806,-6.66102,-2.368296,-8.102129,0.172475,-5.522331,4.018255,-2.260204,-0.037021,2.688382,-2.357893,-3.733642,9.0,21.225,-13.725,-6.15,129.3276,-1.0077,124.278,5.0,25.41071,48.8439,2.3533363,307.0968,NaN,,44.303226,,0 / 17,1912,2022-01-10 17:04:34:441
-8.84806,-6.66102,-2.368296,-8.102129,0.172475,-5.522331,4.018255,-2.260204,-0.037021,2.688382,-2.357893,-3.733642,9.0,21.225,-13.725,-6.15,129.3276,-1.0077,124.278,5.0,25.41071,48.8439,2.3533363,307.0968,NaN,,44.303226,,0 / 17,1917,2022-01-10 17:04:34:446
-8.84806,-6.66102,-2.368296,-7.349438,-5.956651,-2.583492,-0.245506,-0.604075,-1.187883,2.688382,-2.357893,-3.733642,9.0,21.225,-13.725,-6.15,129.3276,-1.0077,124.278,5.0,27.05614,48.8439,2.3533363,307.0968,NaN,,44.303226,,0 / 17,1923,2022-01-10 17:04:34:452
-8.84806,-6.66102,-2.368296,-7.349438,-5.956651,-2.583492,-0.245506,-0.604075,-1.187883,2.688382,-2.357893,-3.733642,9.0,21.225,-13.725,-6.15,129.3276,-1.0077,124.278,5.0,27.05614,48.8439,2.3533363,307.0968,NaN,,44.303226,,0 / 17,1928,2022-01-10 17:04:34:457
-8.84806,-6.66102,-2.368296,-7.349438,-5.956651,-2.583492,-0.245506,-0.604075,-1.187883,2.688382,-2.357893,-3.733642,9.0,21.225,-13.725,-6.15,129.3276,-1.0077,124.278,5.0,27.05614,48.8439,2.3533363,307.0968,NaN,,44.303226,,0 / 17,1933,2022-01-10 17:04:34:462
-8.84806,-6.66102,-2.368296,-7.349438,-5.956651,-2.583492,-0.245506,-0.604075,-1.187883,2.688382,-2.357893,-3.733642,5.0,21.225,-13.725,-6.15,129.3276,-1.0077,124.278,5.0,27.05614,48.8439,2.3533363,307.0968,NaN,,44.303226,,0 / 17,1943,2022-01-10 17:04:34:472
-13.244871,-4.218845,-5.681159,-7.349438,-5.956651,-2.583492,-0.245506,-0.604075,-1.187883,2.688382,-2.357893,-3.733642,5.0,21.225,-13.725,-6.15,129.3276,-1.0077,124.278,5.0,27.05614,48.8439,2.3533363,307.0968,NaN,,44.303226,,0 / 17,1945,2022-01-10 17:04:34:474
-13.244871,-4.218845,-5.681159,-7.349438,-5.956651,-2.583492,-0.245506,-0.604075,-1.187883,2.688382,-2.357893,-3.733642,5.0,21.225,-13.725,-6.15,129.3276,-1.0077,124.278,5.0,27.05614,48.8439,2.3533363,307.0968,NaN,,44.303226,,0 / 17,1948,2022-01-10 17:04:34:477
-13.244871,-4.218845,-5.681159,-7.349438,-5.956651,-2.583492,-0.245506,-0.604075,-1.187883,2.688382,-2.357893,-3.733642,5.0,21.225,-13.725,-6.15,129.3276,-1.0077,124.278,5.0,27.05614,48.8439,2.3533363,307.0968,NaN,,44.303226,,0 / 17,1953,2022-01-10 17:04:34:482
-13.244871,-4.218845,-5.681159,-7.349438,-5.956651,-2.583492,-0.245506,-0.604075,-1.187883,2.688382,-2.357893,-3.733642,5.0,21.225,-13.725,-6.15,129.3276,-1.0077,124.278,5.0,27.05614,48.8439,2.3533363,307.0968,NaN,,44.303226,,0 / 17,1957,2022-01-10 17:04:34:486
-13.244871,-4.218845,-5.681159,-7.349438,-5.956651,-2.583492,-0.245506,-0.604075,-1.187883,2.688382,-2.357893,-3.733642,5.0,21.225,-13.725,-6.15,129.3276,-1.0077,124.278,5.0,27.05614,48.8439,2.3533363,307.0968,NaN,,44.303226,,0 / 17,1963,2022-01-10 17:04:34:492
-13.244871,-4.218845,-5.681159,-7.349438,-5.956651,-2.583492,-0.245506,-0.604075,-1.187883,2.688382,-2.357893,-3.733642,5.0,21.225,-13.725,-6.15,129.3276,-1.0077,124.278,5.0,27.05614,48.8439,2.3533363,307.0968,NaN,,44.303226,,0 / 17,1968,2022-01-10 17:04:34:497
-13.244871,-4.218845,-5.681159,-7.349438,-5.956651,-2.583492,-0.245506,-0.604075,-1.187883,2.688382,-2.357893,-3.733642,5.0,21.225,-13.725,-6.15,129.3276,-1.0077,124.278,5.0,27.05614,48.8439,2.3533363,307.0968,NaN,,44.303226,,0 / 17,1972,2022-01-10 17:04:34:501
-13.244871,-4.218845,-5.681159,-7.349438,-5.956651,-2.583492,-0.245506,-0.604075,-1.187883,2.688382,-2.357893,-3.733642,5.0,21.225,-13.725,-6.15,129.3276,-1.0077,124.278,5.0,27.05614,48.8439,2.3533363,307.0968,NaN,,44.303226,,0 / 17,1978,2022-01-10 17:04:34:507
-13.244871,-4.218845,-5.681159,-7.349438,-5.956651,-2.583492,-0.245506,-0.604075,-1.187883,2.688382,-2.357893,-3.733642,5.0,21.225,-13.725,-6.15,129.3276,-1.0077,124.278,5.0,27.05614,48.8439,2.3533363,307.0968,NaN,,44.303226,,0 / 17,1983,2022-01-10 17:04:34:512
-13.244871,-4.218845,-5.681159,-7.349438,-5.956651,-2.583492,-0.245506,-0.604075,-1.187883,2.688382,-2.357893,-3.733642,5.0,21.225,-13.725,-6.15,129.3276,-1.0077,124.278,5.0,27.05614,48.8439,2.3533363,307.0968,NaN,,44.303226,,0 / 17,1988,2022-01-10 17:04:34:517
-13.244871,-4.218845,-5.681159,-7.349438,-5.956651,-2.583492,-0.245506,-0.604075,-1.187883,2.688382,-2.357893,-3.733642,5.0,21.225,-13.725,-6.15,129.3276,-1.0077,124.278,5.0,27.05614,48.8439,2.3533363,307.0968,NaN,,44.303226,,0 / 17,1992,2022-01-10 17:04:34:521
-13.244871,-4.218845,-5.681159,-7.349438,-5.956651,-2.583492,-0.245506,-0.604075,-1.187883,2.688382,-2.357893,-3.733642,5.0,21.225,-13.725,-6.15,129.3276,-1.0077,124.278,5.0,27.05614,48.8439,2.3533363,307.0968,NaN,,44.303226,,0 / 17,1998,2022-01-10 17:04:34:527
-13.244871,-4.218845,-5.681159,-7.349438,-5.956651,-2.583492,-0.245506,-0.604075,-1.187883,2.688382,-2.357893,-3.733642,5.0,21.225,-13.725,-6.15,129.3276,-1.0077,124.278,5.0,27.05614,48.8439,2.3533363,307.0968,NaN,,44.303226,,0 / 17,2003,2022-01-10 17:04:34:532
-13.244871,-4.218845,-5.681159,-7.349438,-5.956651,-2.583492,-0.245506,-0.604075,-1.187883,2.688382,-2.357893,-3.733642,5.0,21.225,-13.725,-6.15,129.3276,-1.0077,124.278,5.0,27.05614,48.8439,2.3533363,307.0968,NaN,,44.303226,,0 / 17,2009,2022-01-10 17:04:34:538
-13.244871,-4.218845,-5.681159,-7.349438,-5.956651,-2.583492,-0.245506,-0.604075,-1.187883,2.688382,-2.357893,-3.733642,5.0,21.225,-13.725,-6.15,129.3276,-1.0077,124.278,5.0,27.05614,48.8439,2.3533363,307.0968,NaN,,44.303226,,0 / 17,2013,2022-01-10 17:04:34:542
-13.244871,-4.218845,-5.681159,-7.349438,-5.956651,-2.583492,-0.245506,-0.604075,-1.187883,2.688382,-2.357893,-3.733642,5.0,21.225,-13.725,-6.15,129.3276,-1.0077,124.278,5.0,27.05614,48.8439,2.3533363,307.0968,NaN,,44.303226,,0 / 17,2018,2022-01-10 17:04:34:547
-13.244871,-4.218845,-5.681159,-7.349438,-5.956651,-2.583492,-0.245506,-0.604075,-1.187883,2.688382,-2.357893,-3.733642,5.0,21.225,-13.725,-6.15,129.3276,-1.0077,124.278,5.0,27.05614,48.8439,2.3533363,307.0968,NaN,,44.303226,,0 / 17,2023,2022-01-10 17:04:34:552
-13.244871,-4.218845,-5.681159,-7.349438,-5.956651,-2.583492,-0.245506,-0.604075,-1.187883,2.688382,-2.357893,-3.733642,5.0,21.225,-13.725,-6.15,129.3276,-1.0077,124.278,5.0,27.05614,48.8439,2.3533363,307.0968,NaN,,44.303226,,0 / 17,2028,2022-01-10 17:04:34:557
-14.228322,-4.85743,-0.547657,-8.547172,-4.795168,0.350164,-4.692502,0.274498,-4.528536,-1.386933,-2.693442,3.538704,5.0,21.225,-13.725,-6.15,129.3276,-1.0077,124.278,5.0,27.05614,48.8439,2.3533363,307.0968,NaN,,44.303226,,0 / 17,2033,2022-01-10 17:04:34:562
-14.228322,-4.85743,-0.547657,-8.547172,-4.795168,0.350164,-4.692502,0.274498,-4.528536,-1.386933,-2.693442,3.538704,5.0,21.225,-13.725,-6.15,129.3276,-1.0077,124.278,5.0,27.05614,48.8439,2.3533363,307.0968,NaN,,44.303226,,0 / 17,2038,2022-01-10 17:04:34:567
-14.228322,-4.85743,-0.547657,-8.547172,-4.795168,0.350164,-4.692502,0.274498,-4.528536,-1.386933,-2.693442,3.538704,5.0,21.225,-13.725,-6.15,129.3276,-1.0077,124.278,5.0,27.05614,48.8439,2.3533363,307.0968,NaN,,44.303226,,0 / 17,2043,2022-01-10 17:04:34:572
-14.228322,-4.85743,-0.547657,-8.547172,-4.795168,0.350164,-4.692502,0.274498,-4.528536,-1.386933,-2.693442,3.538704,5.0,27.6,7.125,9.15,129.3276,-1.0077,124.278,5.0,27.05614,48.8439,2.3533363,307.0968,NaN,,44.303226,,0 / 17,2048,2022-01-10 17:04:34:577
-14.228322,-4.85743,-0.547657,-8.547172,-4.795168,0.350164,-4.692502,0.274498,-4.528536,-1.386933,-2.693442,3.538704,5.0,27.6,7.125,9.15,233.899,29.273,87.654,5.0,27.05614,48.8439,2.3533363,307.0968,NaN,,44.303226,,0 / 17,2053,2022-01-10 17:04:34:582
-14.228322,-4.85743,-0.547657,-8.547172,-4.795168,0.350164,-4.692502,0.274498,-4.528536,-1.386933,-2.693442,3.538704,5.0,27.6,7.125,9.15,233.899,29.273,87.654,5.0,27.05614,48.8439,2.3533363,307.0968,NaN,,44.303226,,0 / 17,2058,2022-01-10 17:04:34:587
-14.228322,-4.85743,-0.547657,-8.547172,-4.795168,0.350164,-4.692502,0.274498,-4.528536,-1.386933,-2.693442,3.538704,5.0,27.6,7.125,9.15,233.899,29.273,87.654,5.0,27.05614,48.8439,2.3533363,307.0968,NaN,,44.303226,,0 / 17,2063,2022-01-10 17:04:34:592
-14.228322,-4.85743,-0.547657,-8.547172,-4.795168,0.350164,-4.692502,0.274498,-4.528536,-1.386933,-2.693442,3.538704,5.0,27.6,7.125,9.15,233.899,29.273,87.654,5.0,27.05614,48.8439,2.3533363,307.0968,NaN,,44.303226,,0 / 17,2067,2022-01-10 17:04:34:596
-14.228322,-4.85743,-0.547657,-8.547172,-4.795168,0.350164,-4.692502,0.274498,-4.528536,-1.386933,-2.693442,3.538704,5.0,27.6,7.125,9.15,233.899,29.273,87.654,5.0,27.05614,48.8439,2.3533363,307.0968,NaN,,44.303226,,0 / 17,2074,2022-01-10 17:04:34:603
-14.228322,-4.85743,-0.547657,-8.547172,-4.795168,0.350164,-4.692502,0.274498,-4.528536,-1.386933,-2.693442,3.538704,5.0,27.6,7.125,9.15,233.899,29.273,87.654,5.0,27.05614,48.8439,2.3533363,307.0968,NaN,,44.303226,,0 / 17,2078,2022-01-10 17:04:34:607
-14.228322,-4.85743,-0.547657,-8.547172,-4.795168,0.350164,-4.692502,0.274498,-4.528536,-1.386933,-2.693442,3.538704,5.0,27.6,7.125,9.15,233.899,29.273,87.654,5.0,27.05614,48.8439,2.3533363,307.0968,NaN,,44.303226,,0 / 17,2084,2022-01-10 17:04:34:613
-14.228322,-4.85743,-0.547657,-8.547172,-4.795168,0.350164,-4.692502,0.274498,-4.528536,-1.386933,-2.693442,3.538704,5.0,27.6,7.125,9.15,233.899,29.273,87.654,5.0,27.05614,48.8439,2.3533363,307.0968,NaN,,44.303226,,0 / 17,2088,2022-01-10 17:04:34:617
-14.228322,-4.85743,-0.547657,-8.547172,-4.795168,0.350164,-4.692502,0.274498,-4.528536,-1.386933,-2.693442,3.538704,5.0,27.6,7.125,9.15,233.899,29.273,87.654,5.0,27.05614,48.8439,2.3533363,307.0968,NaN,,44.303226,,0 / 17,2092,2022-01-10 17:04:34:621
-14.228322,-4.85743,-0.547657,-8.547172,-4.795168,0.350164,-4.692502,0.274498,-4.528536,-1.386933,-2.693442,3.538704,5.0,27.6,7.125,9.15,233.899,29.273,87.654,5.0,27.05614,48.8439,2.3533363,307.0968,NaN,,44.303226,,0 / 17,2099,2022-01-10 17:04:34:628
-14.228322,-4.85743,-0.547657,-8.547172,-4.795168,0.350164,-4.692502,0.274498,-4.528536,-1.386933,-2.693442,3.538704,5.0,27.6,7.125,9.15,233.899,29.273,87.654,5.0,27.05614,48.8439,2.3533363,307.0968,NaN,,44.303226,,0 / 17,2103,2022-01-10 17:04:34:632
-14.228322,-4.85743,-0.547657,-8.547172,-4.795168,0.350164,-4.692502,0.274498,-4.528536,-1.386933,-2.693442,3.538704,5.0,27.6,7.125,9.15,233.899,29.273,87.654,5.0,27.05614,48.8439,2.3533363,307.0968,NaN,,44.303226,,0 / 17,2107,2022-01-10 17:04:34:636
-14.228322,-4.85743,-0.547657,-8.547172,-4.795168,0.350164,-4.692502,0.274498,-4.528536,-1.386933,-2.693442,3.538704,5.0,27.6,7.125,9.15,233.899,29.273,87.654,5.0,27.05614,48.8439,2.3533363,307.0968,NaN,,44.303226,,0 / 17,2112,2022-01-10 17:04:34:641
-14.228322,-4.85743,-0.547657,-8.547172,-4.795168,0.350164,-4.692502,0.274498,-4.528536,-1.386933,-2.693442,3.538704,19.0,27.6,7.125,9.15,233.899,29.273,87.654,5.0,27.05614,48.8439,2.3533363,307.0968,NaN,,44.303226,,0 / 17,2117,2022-01-10 17:04:34:646
-14.228322,-4.85743,-0.547657,-8.547172,-4.795168,0.350164,-4.692502,0.274498,-4.528536,-1.386933,-2.693442,3.538704,19.0,27.6,7.125,9.15,233.899,29.273,87.654,5.0,27.05614,48.8439,2.3533363,307.0968,NaN,,44.303226,,0 / 17,2122,2022-01-10 17:04:34:651
-14.228322,-4.85743,-0.547657,-8.547172,-4.795168,0.350164,-4.692502,0.274498,-4.528536,-1.386933,-2.693442,3.538704,19.0,27.6,7.125,9.15,233.899,29.273,87.654,5.0,27.05614,48.8439,2.3533363,307.0968,NaN,,44.303226,,0 / 17,2128,2022-01-10 17:04:34:657
-14.228322,-4.85743,-0.547657,-8.547172,-4.795168,0.350164,-4.692502,0.274498,-4.528536,-1.386933,-2.693442,3.538704,19.0,27.6,7.125,9.15,233.899,29.273,87.654,5.0,27.05614,48.8439,2.3533363,307.0968,NaN,,44.303226,,0 / 17,2132,2022-01-10 17:04:34:661
-14.228322,-4.85743,-0.547657,-8.547172,-4.795168,0.350164,-4.692502,0.274498,-4.528536,-1.386933,-2.693442,3.538704,19.0,27.6,7.125,9.15,233.899,29.273,87.654,5.0,27.05614,48.8439,2.3533363,307.0968,NaN,,44.303226,,0 / 17,2141,2022-01-10 17:04:34:670
-14.228322,-4.85743,-0.547657,-8.547172,-4.795168,0.350164,-4.692502,0.274498,-4.528536,-1.386933,-2.693442,3.538704,19.0,27.6,7.125,9.15,233.899,29.273,87.654,5.0,27.05614,48.8439,2.3533363,307.0968,NaN,,44.303226,,0 / 17,2142,2022-01-10 17:04:34:671
-11.78495,-1.339682,-3.002992,-8.547172,-4.795168,0.350164,-4.692502,0.274498,-4.528536,-1.386933,-2.693442,3.538704,19.0,27.6,7.125,9.15,233.899,29.273,87.654,5.0,27.05614,48.8439,2.3533363,307.0968,NaN,,44.303226,,0 / 17,2149,2022-01-10 17:04:34:678
-11.78495,-1.339682,-3.002992,-8.547172,-4.795168,0.350164,-4.692502,0.274498,-4.528536,-1.386933,-2.693442,3.538704,19.0,27.6,7.125,9.15,233.899,29.273,87.654,5.0,27.05614,48.8439,2.3533363,307.0968,NaN,,44.303226,,0 / 17,2153,2022-01-10 17:04:34:682
-11.78495,-1.339682,-3.002992,-8.547172,-4.795168,0.350164,-4.692502,0.274498,-4.528536,-1.386933,-2.693442,3.538704,19.0,27.6,7.125,9.15,233.899,29.273,87.654,5.0,27.05614,48.8439,2.3533363,307.0968,NaN,,44.303226,,0 / 17,2158,2022-01-10 17:04:34:687
-11.78495,-1.339682,-3.002992,-9.223763,1.164494,3.120343,-2.611957,-4.615991,-5.760658,-5.553992,-2.959483,7.159698,19.0,27.6,7.125,9.15,233.899,29.273,87.654,5.0,27.05614,48.8439,2.3533363,307.0968,NaN,,44.303226,,0 / 17,2162,2022-01-10 17:04:34:691
-11.78495,-1.339682,-3.002992,-9.223763,1.164494,3.120343,-2.611957,-4.615991,-5.760658,-5.553992,-2.959483,7.159698,19.0,27.6,7.125,9.15,233.899,29.273,87.654,5.0,27.05614,48.8439,2.3533363,307.0968,NaN,,44.303226,,0 / 17,2168,2022-01-10 17:04:34:697
-11.78495,-1.339682,-3.002992,-9.223763,1.164494,3.120343,-2.611957,-4.615991,-5.760658,-5.553992,-2.959483,7.159698,19.0,27.6,7.125,9.15,233.899,29.273,87.654,5.0,27.05614,48.8439,2.3533363,307.0968,NaN,,44.303226,,0 / 17,2172,2022-01-10 17:04:34:701
-11.78495,-1.339682,-3.002992,-9.223763,1.164494,3.120343,-2.611957,-4.615991,-5.760658,-5.553992,-2.959483,7.159698,19.0,27.6,7.125,9.15,233.899,29.273,87.654,5.0,27.05614,48.8439,2.3533363,307.0968,NaN,,44.303226,,0 / 17,2178,2022-01-10 17:04:34:707
-11.78495,-1.339682,-3.002992,-9.223763,1.164494,3.120343,-2.611957,-4.615991,-5.760658,-5.553992,-2.959483,7.159698,19.0,27.6,7.125,9.15,233.899,29.273,87.654,5.0,27.05614,48.8439,2.3533363,307.0968,NaN,,44.303226,,0 / 17,2184,2022-01-10 17:04:34:713
-11.78495,-1.339682,-3.002992,-9.223763,1.164494,3.120343,-2.611957,-4.615991,-5.760658,-5.553992,-2.959483,7.159698,19.0,27.6,7.125,9.15,233.899,29.273,87.654,5.0,27.05614,48.8439,2.3533363,307.0968,NaN,,44.303226,,0 / 17,2187,2022-01-10 17:04:34:716
-11.78495,-1.339682,-3.002992,-9.223763,1.164494,3.120343,-2.611957,-4.615991,-5.760658,-5.553992,-2.959483,7.159698,19.0,27.6,7.125,9.15,233.899,29.273,87.654,5.0,27.05614,48.8439,2.3533363,307.0968,NaN,,44.303226,,0 / 17,2192,2022-01-10 17:04:34:721
-11.78495,-1.339682,-3.002992,-9.223763,1.164494,3.120343,-2.611957,-4.615991,-5.760658,-5.553992,-2.959483,7.159698,19.0,27.6,7.125,9.15,233.899,29.273,87.654,5.0,27.05614,48.8439,2.3533363,307.0968,NaN,,44.303226,,0 / 17,2198,2022-01-10 17:04:34:727
-11.78495,-1.339682,-3.002992,-9.223763,1.164494,3.120343,-2.611957,-4.615991,-5.760658,-5.553992,-2.959483,7.159698,19.0,27.6,7.125,9.15,233.899,29.273,87.654,5.0,27.05614,48.8439,2.3533363,307.0968,NaN,,44.303226,,0 / 17,2203,2022-01-10 17:04:34:732
-11.78495,-1.339682,-3.002992,-9.223763,1.164494,3.120343,-2.611957,-4.615991,-5.760658,-5.553992,-2.959483,7.159698,19.0,27.6,7.125,9.15,233.899,29.273,87.654,5.0,27.05614,48.8439,2.3533363,307.0968,NaN,,44.303226,,0 / 17,2208,2022-01-10 17:04:34:737
-11.78495,-1.339682,-3.002992,-9.223763,1.164494,3.120343,-2.611957,-4.615991,-5.760658,-5.553992,-2.959483,7.159698,19.0,27.6,7.125,9.15,233.899,29.273,87.654,5.0,27.05614,48.8439,2.3533363,307.0968,NaN,,44.303226,,0 / 17,2213,2022-01-10 17:04:34:742
-11.78495,-1.339682,-3.002992,-9.223763,1.164494,3.120343,-2.611957,-4.615991,-5.760658,-5.553992,-2.959483,7.159698,19.0,27.6,7.125,9.15,233.899,29.273,87.654,5.0,27.05614,48.8439,2.3533363,307.0968,NaN,,44.303226,,0 / 17,2219,2022-01-10 17:04:34:748
-11.78495,-1.339682,-3.002992,-9.223763,1.164494,3.120343,-2.611957,-4.615991,-5.760658,-5.553992,-2.959483,7.159698,19.0,27.6,7.125,9.15,233.899,29.273,87.654,5.0,27.05614,48.8439,2.3533363,307.0968,NaN,,44.303226,,0 / 17,2223,2022-01-10 17:04:34:752
-11.78495,-1.339682,-3.002992,-9.223763,1.164494,3.120343,-2.611957,-4.615991,-5.760658,-5.553992,-2.959483,7.159698,19.0,27.6,7.125,9.15,233.899,29.273,87.654,5.0,27.05614,48.8439,2.3533363,307.0968,NaN,,44.303226,,0 / 17,2228,2022-01-10 17:04:34:757
-1.567,-2.703889,11.703894,-9.223763,1.164494,3.120343,-2.611957,-4.615991,-5.760658,-5.553992,-2.959483,7.159698,19.0,27.6,7.125,9.15,233.899,29.273,87.654,5.0,28.20659,48.8439,2.3533363,307.0968,NaN,,44.303226,,0 / 17,2233,2022-01-10 17:04:34:762
-1.567,-2.703889,11.703894,-9.223763,1.164494,3.120343,-2.611957,-4.615991,-5.760658,-5.553992,-2.959483,7.159698,19.0,27.6,7.125,9.15,233.899,29.273,87.654,5.0,28.20659,48.8439,2.3533363,307.0968,NaN,,44.303226,,0 / 17,2238,2022-01-10 17:04:34:767
-1.567,-2.703889,11.703894,-9.223763,1.164494,3.120343,-2.611957,-4.615991,-5.760658,-5.553992,-2.959483,7.159698,19.0,27.6,7.125,9.15,233.899,29.273,87.654,5.0,28.20659,48.8439,2.3533363,307.0968,NaN,,44.303226,,0 / 17,2243,2022-01-10 17:04:34:772
-1.567,-2.703889,11.703894,-9.223763,1.164494,3.120343,-2.611957,-4.615991,-5.760658,-5.553992,-2.959483,7.159698,19.0,33.75,20.7,1.875,332.5291,-6.8197,71.3096,5.0,28.20659,48.8439,2.3533363,307.0968,NaN,,44.303226,,0 / 17,2248,2022-01-10 17:04:34:777
-1.567,-2.703889,11.703894,-9.223763,1.164494,3.120343,-2.611957,-4.615991,-5.760658,-5.553992,-2.959483,7.159698,19.0,33.75,20.7,1.875,332.5291,-6.8197,71.3096,5.0,28.20659,48.8439,2.3533363,307.0968,NaN,,44.303226,,0 / 17,2257,2022-01-10 17:04:34:786
-1.567,-2.703889,11.703894,-9.223763,1.164494,3.120343,-2.611957,-4.615991,-5.760658,-5.553992,-2.959483,7.159698,19.0,33.75,20.7,1.875,332.5291,-6.8197,71.3096,5.0,28.20659,48.8439,2.3533363,307.0968,NaN,,44.303226,,0 / 17,2258,2022-01-10 17:04:34:787
-1.567,-2.703889,11.703894,-9.223763,1.164494,3.120343,-2.611957,-4.615991,-5.760658,-5.553992,-2.959483,7.159698,19.0,33.75,20.7,1.875,332.5291,-6.8197,71.3096,5.0,28.20659,48.8439,2.3533363,307.0968,NaN,,44.303226,,0 / 17,2262,2022-01-10 17:04:34:791
-1.567,-2.703889,11.703894,-9.223763,1.164494,3.120343,-2.611957,-4.615991,-5.760658,-5.553992,-2.959483,7.159698,19.0,33.75,20.7,1.875,332.5291,-6.8197,71.3096,5.0,28.20659,48.8439,2.3533363,307.0968,NaN,,44.303226,,0 / 17,2267,2022-01-10 17:04:34:796
-1.567,-2.703889,11.703894,-9.223763,1.164494,3.120343,-2.611957,-4.615991,-5.760658,-5.553992,-2.959483,7.159698,19.0,33.75,20.7,1.875,332.5291,-6.8197,71.3096,5.0,28.20659,48.8439,2.3533363,307.0968,NaN,,44.303226,,0 / 17,2273,2022-01-10 17:04:34:802
-1.567,-2.703889,11.703894,-4.121975,3.44656,8.203716,-3.851954,-7.861336,-3.256658,-5.553992,-2.959483,7.159698,19.0,33.75,20.7,1.875,332.5291,-6.8197,71.3096,5.0,28.20659,48.8439,2.3533363,307.0968,NaN,,44.303226,,0 / 17,2277,2022-01-10 17:04:34:806
-1.567,-2.703889,11.703894,-4.121975,3.44656,8.203716,-3.851954,-7.861336,-3.256658,-5.553992,-2.959483,7.159698,19.0,33.75,20.7,1.875,332.5291,-6.8197,71.3096,5.0,28.20659,48.8439,2.3533363,307.0968,NaN,,44.303226,,0 / 17,2283,2022-01-10 17:04:34:812
-1.567,-2.703889,11.703894,-4.121975,3.44656,8.203716,-3.851954,-7.861336,-3.256658,-5.553992,-2.959483,7.159698,19.0,33.75,20.7,1.875,332.5291,-6.8197,71.3096,5.0,28.20659,48.8439,2.3533363,307.0968,NaN,,44.303226,,0 / 17,2288,2022-01-10 17:04:34:817
-1.567,-2.703889,11.703894,-4.121975,3.44656,8.203716,-3.851954,-7.861336,-3.256658,-2.747103,-3.927514,4.920445,19.0,33.75,20.7,1.875,332.5291,-6.8197,71.3096,5.0,28.20659,48.8439,2.3533363,307.0968,NaN,,44.303226,,0 / 17,2292,2022-01-10 17:04:34:821
-1.567,-2.703889,11.703894,-4.121975,3.44656,8.203716,-3.851954,-7.861336,-3.256658,-2.747103,-3.927514,4.920445,19.0,33.75,20.7,1.875,332.5291,-6.8197,71.3096,5.0,28.20659,48.8439,2.3533363,307.0968,NaN,,44.303226,,0 / 17,2297,2022-01-10 17:04:34:826
-1.567,-2.703889,11.703894,-4.121975,3.44656,8.203716,-3.851954,-7.861336,-3.256658,-2.747103,-3.927514,4.920445,19.0,33.75,20.7,1.875,332.5291,-6.8197,71.3096,5.0,28.20659,48.8439,2.3533363,307.0968,NaN,,44.303226,,0 / 17,2303,2022-01-10 17:04:34:832
-1.567,-2.703889,11.703894,-4.121975,3.44656,8.203716,-3.851954,-7.861336,-3.256658,-2.747103,-3.927514,4.920445,19.0,33.75,20.7,1.875,332.5291,-6.8197,71.3096,5.0,28.20659,48.8439,2.3533363,307.0968,NaN,,44.303226,,0 / 17,2307,2022-01-10 17:04:34:836
-1.567,-2.703889,11.703894,-4.121975,3.44656,8.203716,-3.851954,-7.861336,-3.256658,-2.747103,-3.927514,4.920445,19.0,33.75,20.7,1.875,332.5291,-6.8197,71.3096,5.0,28.20659,48.8439,2.3533363,307.0968,NaN,,44.303226,,0 / 17,2313,2022-01-10 17:04:34:842
-1.567,-2.703889,11.703894,-4.121975,3.44656,8.203716,-3.851954,-7.861336,-3.256658,-2.747103,-3.927514,4.920445,19.0,33.75,20.7,1.875,332.5291,-6.8197,71.3096,5.0,28.20659,48.8439,2.3533363,307.0968,NaN,,44.303226,,0 / 17,2317,2022-01-10 17:04:34:846
-1.567,-2.703889,11.703894,-4.121975,3.44656,8.203716,-3.851954,-7.861336,-3.256658,-2.747103,-3.927514,4.920445,19.0,33.75,20.7,1.875,332.5291,-6.8197,71.3096,5.0,28.20659,48.8439,2.3533363,307.0968,NaN,,44.303226,,0 / 17,2323,2022-01-10 17:04:34:852
-1.567,-2.703889,11.703894,-4.121975,3.44656,8.203716,-3.851954,-7.861336,-3.256658,-2.747103,-3.927514,4.920445,19.0,33.75,20.7,1.875,332.5291,-6.8197,71.3096,5.0,28.20659,48.8439,2.3533363,307.0968,NaN,,44.303226,,0 / 17,2328,2022-01-10 17:04:34:857
-1.567,-2.703889,11.703894,-4.121975,3.44656,8.203716,-3.851954,-7.861336,-3.256658,-2.747103,-3.927514,4.920445,19.0,33.75,20.7,1.875,332.5291,-6.8197,71.3096,5.0,28.20659,48.8439,2.3533363,307.0968,NaN,,44.303226,,0 / 17,2332,2022-01-10 17:04:34:861
-1.567,-2.703889,11.703894,-4.121975,3.44656,8.203716,-3.851954,-7.861336,-3.256658,-2.747103,-3.927514,4.920445,19.0,33.75,20.7,1.875,332.5291,-6.8197,71.3096,5.0,28.20659,48.8439,2.3533363,307.0968,NaN,,44.303226,,0 / 17,2337,2022-01-10 17:04:34:866
-1.274776,1.842773,15.255141,-4.121975,3.44656,8.203716,-3.851954,-7.861336,-3.256658,-2.747103,-3.927514,4.920445,70.0,33.75,20.7,1.875,332.5291,-6.8197,71.3096,5.0,28.20659,48.8439,2.3533363,307.0968,NaN,,44.303226,,0 / 17,2342,2022-01-10 17:04:34:871
-1.274776,1.842773,15.255141,-4.121975,3.44656,8.203716,-3.851954,-7.861336,-3.256658,-2.747103,-3.927514,4.920445,70.0,33.75,20.7,1.875,332.5291,-6.8197,71.3096,5.0,28.20659,48.8439,2.3533363,307.0968,NaN,,44.303226,,0 / 17,2348,2022-01-10 17:04:34:877
-1.274776,1.842773,15.255141,-4.121975,3.44656,8.203716,-3.851954,-7.861336,-3.256658,-2.747103,-3.927514,4.920445,70.0,33.75,20.7,1.875,332.5291,-6.8197,71.3096,5.0,28.20659,48.8439,2.3533363,307.0968,NaN,,44.303226,,0 / 17,2352,2022-01-10 17:04:34:881
-1.274776,1.842773,15.255141,-4.121975,3.44656,8.203716,-3.851954,-7.861336,-3.256658,-2.747103,-3.927514,4.920445,70.0,33.75,20.7,1.875,332.5291,-6.8197,71.3096,5.0,28.20659,48.8439,2.3533363,307.0968,NaN,,44.303226,,0 / 17,2357,2022-01-10 17:04:34:886
-1.274776,1.842773,15.255141,-4.121975,3.44656,8.203716,-3.851954,-7.861336,-3.256658,-2.747103,-3.927514,4.920445,70.0,33.75,20.7,1.875,332.5291,-6.8197,71.3096,5.0,28.20659,48.8439,2.3533363,307.0968,NaN,,44.303226,,0 / 17,2363,2022-01-10 17:04:34:892
