ACCELEROMETER X (m/s²),ACCELEROMETER Y (m/s²),ACCELEROMETER Z (m/s²),GRAVITY X (m/s²),GRAVITY Y (m/s²),GRAVITY Z (m/s²),LINEAR ACCELERATION X (m/s²),LINEAR ACCELERATION Y (m/s²),LINEAR ACCELERATION Z (m/s²),GYROSCOPE X (rad/s),GYROSCOPE Y (rad/s),GYROSCOPE Z (rad/s),MAGNETIC FIELD X (μT),MAGNETIC FIELD Y (μT),MAGNETIC FIELD Z (μT),ORIENTATION Z (azimuth °),ORIENTATION X (pitch °),ORIENTATION Y (roll °),LOCATION Latitude : ,LOCATION Longitude : ,LOCATION Altitude ( m),LOCATION Altitude-google ( m),LOCATION Speed ( Kmh),LOCATION Accuracy ( m),LOCATION ORIENTATION (°),Satellites in range,GPS NMEA,Time since start in ms ,YYYY-MO-DD HH-MI-SS_SSS
-0.4125,1.1686,9.7229,-0.3426,1.1691,9.7307,-0.1302,-0.0506,0.1768,0.0145,-0.0399,0.067,30.15,5.85,-27.53,288.63,-7.25,2.69,48.843887,2.353319,91.4,NaN,,12.485,,0 / 21,,27,2022-01-12 09:59:24:812
-0.4125,1.1686,9.7229,-0.3426,1.1691,9.7307,-0.1302,-0.0506,0.1768,0.0145,-0.0399,0.067,30.15,5.85,-27.53,288.63,-7.25,2.69,48.843887,2.353319,91.4,NaN,,12.485,,0 / 21,,32,2022-01-12 09:59:24:817
-0.4125,1.1686,9.7229,-0.3426,1.1691,9.7307,-0.1302,-0.0506,0.1768,0.0145,-0.0399,0.067,30.15,5.85,-27.53,288.63,-7.25,2.69,48.843887,2.353319,91.4,NaN,,12.485,,0 / 21,,38,2022-01-12 09:59:24:823
-0.4125,1.1686,9.7229,-0.3426,1.1691,9.7307,-0.1302,-0.0506,0.1768,0.0145,-0.0399,0.067,30.15,5.85,-27.53,288.63,-7.25,2.69,48.843887,2.353319,91.4,NaN,,12.485,,0 / 21,,42,2022-01-12 09:59:24:827
-0.4125,1.1686,9.7229,-0.3426,1.1691,9.7307,-0.1302,-0.0506,0.1768,0.0145,-0.0399,0.067,30.15,5.85,-27.53,288.63,-7.25,2.69,48.843887,2.353319,91.4,NaN,,12.485,,0 / 21,,48,2022-01-12 09:59:24:833
-0.4125,1.1686,9.7229,-0.3426,1.1691,9.7307,-0.1302,-0.0506,0.1768,0.0145,-0.0399,0.067,30.15,5.85,-27.53,288.63,-7.25,2.69,48.843887,2.353319,91.4,NaN,,12.485,,0 / 21,,52,2022-01-12 09:59:24:837
-0.1274,0.9817,9.5994,-0.3426,1.1691,9.7307,-0.1302,-0.0506,0.1768,0.0145,-0.0399,0.067,30.15,5.85,-27.53,288.63,-7.25,2.69,48.843887,2.353319,91.4,NaN,,12.485,,0 / 21,,57,2022-01-12 09:59:24:842
-0.1274,0.9817,9.5994,-0.3426,1.1691,9.7307,-0.1302,-0.0506,0.1768,0.0145,-0.0399,0.067,30.15,5.85,-27.53,288.63,-7.25,2.69,48.843887,2.353319,91.4,NaN,,12.485,,0 / 21,,62,2022-01-12 09:59:24:847
-0.1274,0.9817,9.5994,-0.3426,1.1691,9.7307,-0.1302,-0.0506,0.1768,0.0145,-0.0399,0.067,30.15,5.85,-27.53,288.63,-7.25,2.69,48.843887,2.353319,91.4,NaN,,12.485,,0 / 21,,67,2022-01-12 09:59:24:852
-0.1274,0.9817,9.5994,-0.3426,1.1691,9.7307,-0.1302,-0.0506,0.1768,0.0145,-0.0399,0.067,30.15,5.85,-27.53,288.63,-7.25,2.69,48.843887,2.353319,91.4,NaN,,12.485,,0 / 21,,73,2022-01-12 09:59:24:858
-0.1274,0.9817,9.5994,-0.3426,1.1691,9.7307,-0.1302,-0.0506,0.1768,0.0145,-0.0399,0.067,30.15,5.85,-27.53,288.63,-7.25,2.69,48.843887,2.353319,91.4,NaN,,12.485,,0 / 21,,77,2022-01-12 09:59:24:862
-0.1274,0.9817,9.5994,-0.2557,1.0467,9.7473,0.012,0.074,-0.2004,0.0145,-0.0399,0.067,30.15,5.85,-27.53,288.63,-7.25,2.69,48.843887,2.353319,91.4,NaN,,12.485,,0 / 21,,83,2022-01-12 09:59:24:868
-0.1274,0.9817,9.5994,-0.2557,1.0467,9.7473,0.012,0.074,-0.2004,0.0145,-0.0399,0.067,30.15,5.85,-27.53,288.63,-7.25,2.69,48.843887,2.353319,91.4,NaN,,12.485,,0 / 21,,88,2022-01-12 09:59:24:873
-0.1274,0.9817,9.5994,-0.2557,1.0467,9.7473,0.012,0.074,-0.2004,0.0145,-0.0399,0.067,30.15,5.85,-27.53,288.63,-7.25,2.69,48.843887,2.353319,91.4,NaN,,12.485,,0 / 21,,92,2022-01-12 09:59:24:877
-0.1274,0.9817,9.5994,-0.2557,1.0467,9.7473,0.012,0.074,-0.2004,0.0145,-0.0399,0.067,30.15,5.85,-27.53,288.63,-7.25,2.69,48.843887,2.353319,91.4,NaN,,12.485,,0 / 21,,98,2022-01-12 09:59:24:883
-0.1274,0.9817,9.5994,-0.2557,1.0467,9.7473,0.012,0.074,-0.2004,0.0145,-0.0399,0.067,30.15,5.85,-27.53,288.63,-7.25,2.69,48.843887,2.353319,91.4,NaN,,12.485,,0 / 21,,102,2022-01-12 09:59:24:887
-0.1274,0.9817,9.5994,-0.2557,1.0467,9.7473,0.012,0.074,-0.2004,0.0145,-0.0399,0.067,30.15,5.85,-27.53,288.63,-7.25,2.69,48.843887,2.353319,91.4,NaN,,12.485,,0 / 21,,108,2022-01-12 09:59:24:893
-0.1274,0.9817,9.5994,-0.2557,1.0467,9.7473,0.012,0.074,-0.2004,0.0145,-0.0399,0.067,30.15,5.85,-27.53,288.63,-7.25,2.69,48.843887,2.353319,91.4,NaN,,12.485,,0 / 21,,112,2022-01-12 09:59:24:897
-0.2387,0.8955,10.2006,-0.2557,1.0467,9.7473,0.012,0.074,-0.2004,0.0145,-0.0399,0.067,29.63,6.23,-27.67,287.17,-6.13,1.5,48.843887,2.353319,91.4,NaN,,12.485,,0 / 21,,117,2022-01-12 09:59:24:902
-0.2387,0.8955,10.2006,-0.2557,1.0467,9.7473,0.012,0.074,-0.2004,0.0145,-0.0399,0.067,29.63,6.23,-27.67,287.17,-6.13,1.5,48.843887,2.353319,91.4,NaN,,12.485,,0 / 21,,122,2022-01-12 09:59:24:907
-0.2387,0.8955,10.2006,-0.2557,1.0467,9.7473,0.012,0.074,-0.2004,0.0145,-0.0399,0.067,29.63,6.23,-27.67,287.17,-6.13,1.5,48.843887,2.353319,91.4,NaN,,12.485,,0 / 21,,127,2022-01-12 09:59:24:912
-0.2387,0.8955,10.2006,-0.2557,1.0467,9.7473,0.012,0.074,-0.2004,0.1738,0.1228,0.0658,29.63,6.23,-27.67,287.17,-6.13,1.5,48.843887,2.353319,91.4,NaN,,12.485,,0 / 21,,133,2022-01-12 09:59:24:918
-0.2387,0.8955,10.2006,-0.2557,1.0467,9.7473,0.012,0.074,-0.2004,0.1738,0.1228,0.0658,29.63,6.23,-27.67,287.17,-6.13,1.5,48.843887,2.353319,91.4,NaN,,12.485,,0 / 21,,137,2022-01-12 09:59:24:922
-0.2387,0.8955,10.2006,-0.2557,1.0467,9.7473,0.012,0.074,-0.2004,0.1738,0.1228,0.0658,29.63,6.23,-27.67,287.17,-6.13,1.5,48.843887,2.353319,91.4,NaN,,12.485,,0 / 21,,143,2022-01-12 09:59:24:928
-0.2387,0.8955,10.2006,-0.2557,1.0467,9.7473,0.012,0.074,-0.2004,0.1738,0.1228,0.0658,29.63,6.23,-27.67,287.17,-6.13,1.5,48.843887,2.353319,91.4,NaN,,12.485,,0 / 21,,147,2022-01-12 09:59:24:932
-0.2387,0.8955,10.2006,-0.2557,1.0467,9.7473,0.012,0.074,-0.2004,0.1738,0.1228,0.0658,29.63,6.23,-27.67,287.17,-6.13,1.5,48.843887,2.353319,91.4,NaN,,12.485,,0 / 21,,152,2022-01-12 09:59:24:937
-0.2387,0.8955,10.2006,-0.2557,1.0467,9.7473,0.012,0.074,-0.2004,0.1738,0.1228,0.0658,29.63,6.23,-27.67,287.17,-6.13,1.5,48.843887,2.353319,91.4,NaN,,12.485,,0 / 21,,158,2022-01-12 09:59:24:943
-0.2387,0.8955,10.2006,-0.2557,1.0467,9.7473,0.012,0.074,-0.2004,0.1738,0.1228,0.0658,29.63,6.23,-27.67,287.17,-6.13,1.5,48.843887,2.353319,91.4,NaN,,12.485,,0 / 21,,162,2022-01-12 09:59:24:947
-0.2387,0.8955,10.2006,-0.2557,1.0467,9.7473,0.012,0.074,-0.2004,0.1738,0.1228,0.0658,29.63,6.23,-27.67,287.17,-6.13,1.5,48.843887,2.353319,91.4,NaN,,12.485,,0 / 21,,167,2022-01-12 09:59:24:952
-0.2387,0.8955,10.2006,-0.2557,1.0467,9.7473,0.012,0.074,-0.2004,0.1738,0.1228,0.0658,29.63,6.23,-27.67,287.17,-6.13,1.5,48.843887,2.353319,91.4,NaN,,12.485,,0 / 21,,173,2022-01-12 09:59:24:958
-0.2387,0.8955,10.2006,-0.2557,1.0467,9.7473,0.012,0.074,-0.2004,0.1738,0.1228,0.0658,29.63,6.23,-27.67,287.17,-6.13,1.5,48.843887,2.353319,91.4,NaN,,12.485,,0 / 21,,177,2022-01-12 09:59:24:962
-0.2387,0.8955,10.2006,-0.2557,1.0467,9.7473,0.012,0.074,-0.2004,0.1738,0.1228,0.0658,29.63,6.23,-27.67,287.17,-6.13,1.5,48.843887,2.353319,91.4,NaN,,12.485,,0 / 21,,183,2022-01-12 09:59:24:968
-0.2387,0.8955,10.2006,-0.2557,1.0467,9.7473,0.012,0.074,-0.2004,0.1738,0.1228,0.0658,29.63,6.23,-27.67,287.17,-6.13,1.5,48.843887,2.353319,91.4,NaN,,12.485,,0 / 21,,187,2022-01-12 09:59:24:972
-0.4866,1.2811,9.2665,-0.4033,1.2136,9.7229,0.2174,-0.2482,0.1957,0.1738,0.1228,0.0658,29.63,6.23,-27.67,287.17,-6.13,1.5,48.843887,2.353319,91.4,NaN,,12.485,,0 / 21,,193,2022-01-12 09:59:24:978
-0.4866,1.2811,9.2665,-0.4033,1.2136,9.7229,0.2174,-0.2482,0.1957,0.1738,0.1228,0.0658,29.63,6.23,-27.67,287.17,-6.13,1.5,48.843887,2.353319,91.4,NaN,,12.485,,0 / 21,,197,2022-01-12 09:59:24:982
-0.4866,1.2811,9.2665,-0.4033,1.2136,9.7229,0.2174,-0.2482,0.1957,0.1738,0.1228,0.0658,29.63,6.23,-27.67,287.17,-6.13,1.5,48.843887,2.353319,91.4,NaN,,12.485,,0 / 21,,203,2022-01-12 09:59:24:988
-0.4866,1.2811,9.2665,-0.4033,1.2136,9.7229,0.2174,-0.2482,0.1957,0.1738,0.1228,0.0658,29.63,6.23,-27.67,287.17,-6.13,1.5,48.843887,2.353319,91.4,NaN,,12.485,,0 / 21,,207,2022-01-12 09:59:24:992
-0.4866,1.2811,9.2665,-0.4033,1.2136,9.7229,0.2174,-0.2482,0.1957,0.1949,0.2188,-0.019,29.63,6.23,-27.67,287.17,-6.13,1.5,48.843887,2.353319,91.4,NaN,,12.485,,0 / 21,,213,2022-01-12 09:59:24:998
-0.4866,1.2811,9.2665,-0.4033,1.2136,9.7229,0.2174,-0.2482,0.1957,0.1949,0.2188,-0.019,29.55,6.23,-27.67,288.37,-7.11,2.38,48.843887,2.353319,91.4,NaN,,12.485,,0 / 21,,217,2022-01-12 09:59:25:002
-0.4866,1.2811,9.2665,-0.4033,1.2136,9.7229,0.2174,-0.2482,0.1957,0.1949,0.2188,-0.019,29.55,6.23,-27.67,288.37,-7.11,2.38,48.843887,2.353319,91.4,NaN,,12.485,,0 / 21,,223,2022-01-12 09:59:25:008
-0.4866,1.2811,9.2665,-0.4033,1.2136,9.7229,0.2174,-0.2482,0.1957,0.1949,0.2188,-0.019,29.55,6.23,-27.67,288.37,-7.11,2.38,48.843887,2.353319,91.4,NaN,,12.485,,0 / 21,,227,2022-01-12 09:59:25:012
-0.4866,1.2811,9.2665,-0.4033,1.2136,9.7229,0.2174,-0.2482,0.1957,0.1949,0.2188,-0.019,29.55,6.23,-27.67,288.37,-7.11,2.38,48.843887,2.353319,91.4,NaN,,12.485,,0 / 21,,233,2022-01-12 09:59:25:018
-0.4866,1.2811,9.2665,-0.4033,1.2136,9.7229,0.2174,-0.2482,0.1957,0.1949,0.2188,-0.019,29.55,6.23,-27.67,288.37,-7.11,2.38,48.843887,2.353319,91.4,NaN,,12.485,,0 / 21,,237,2022-01-12 09:59:25:022
-0.4866,1.2811,9.2665,-0.4033,1.2136,9.7229,0.2174,-0.2482,0.1957,0.1949,0.2188,-0.019,29.55,6.23,-27.67,288.37,-7.11,2.38,48.843887,2.353319,91.4,NaN,,12.485,,0 / 21,,242,2022-01-12 09:59:25:027
-0.4866,1.2811,9.2665,-0.4033,1.2136,9.7229,0.2174,-0.2482,0.1957,0.1949,0.2188,-0.019,29.55,6.23,-27.67,288.37,-7.11,2.38,48.843887,2.353319,91.4,NaN,,12.485,,0 / 21,,247,2022-01-12 09:59:25:032
-0.4866,1.2811,9.2665,-0.4033,1.2136,9.7229,0.2174,-0.2482,0.1957,0.1949,0.2188,-0.019,29.55,6.23,-27.67,288.37,-7.11,2.38,48.843887,2.353319,91.4,NaN,,12.485,,0 / 21,,253,2022-01-12 09:59:25:038
-0.4866,1.2811,9.2665,-0.4033,1.2136,9.7229,0.2174,-0.2482,0.1957,0.1949,0.2188,-0.019,29.55,6.23,-27.67,288.37,-7.11,2.38,48.843887,2.353319,91.4,NaN,,12.485,,0 / 21,,257,2022-01-12 09:59:25:042
-0.5859,1.2787,9.3754,-0.4548,1.2271,9.7189,-0.1685,0.1116,-0.3608,0.1949,0.2188,-0.019,29.55,6.23,-27.67,288.37,-7.11,2.38,48.843887,2.353319,91.4,NaN,,12.485,,0 / 21,,263,2022-01-12 09:59:25:048
-0.5859,1.2787,9.3754,-0.4548,1.2271,9.7189,-0.1685,0.1116,-0.3608,0.1949,0.2188,-0.019,29.55,6.23,-27.67,288.37,-7.11,2.38,48.843887,2.353319,91.4,NaN,,12.485,,0 / 21,,267,2022-01-12 09:59:25:052
-0.5859,1.2787,9.3754,-0.4548,1.2271,9.7189,-0.1685,0.1116,-0.3608,0.1949,0.2188,-0.019,29.55,6.23,-27.67,288.37,-7.11,2.38,48.843887,2.353319,91.4,NaN,,12.485,,0 / 21,,272,2022-01-12 09:59:25:057
-0.5859,1.2787,9.3754,-0.4548,1.2271,9.7189,-0.1685,0.1116,-0.3608,0.1949,0.2188,-0.019,29.55,6.23,-27.67,288.37,-7.11,2.38,48.843887,2.353319,91.4,NaN,,12.485,,0 / 21,,278,2022-01-12 09:59:25:063
-0.5859,1.2787,9.3754,-0.4548,1.2271,9.7189,-0.1685,0.1116,-0.3608,0.1949,0.2188,-0.019,29.55,6.23,-27.67,288.37,-7.11,2.38,48.843887,2.353319,91.4,NaN,,12.485,,0 / 21,,282,2022-01-12 09:59:25:067
-0.5859,1.2787,9.3754,-0.4548,1.2271,9.7189,-0.1685,0.1116,-0.3608,0.1949,0.2188,-0.019,29.55,6.23,-27.67,288.37,-7.11,2.38,48.843887,2.353319,91.4,NaN,,12.485,,0 / 21,,288,2022-01-12 09:59:25:073
-0.5859,1.2787,9.3754,-0.4548,1.2271,9.7189,-0.1685,0.1116,-0.3608,0.1949,0.2188,-0.019,29.55,6.23,-27.67,288.37,-7.11,2.38,48.843887,2.353319,91.4,NaN,,12.485,,0 / 21,,292,2022-01-12 09:59:25:077
-0.5859,1.2787,9.3754,-0.4548,1.2271,9.7189,-0.1685,0.1116,-0.3608,0.1949,0.2188,-0.019,29.55,6.23,-27.67,288.37,-7.11,2.38,48.843887,2.353319,91.4,NaN,,12.485,,0 / 21,,297,2022-01-12 09:59:25:082
-0.5859,1.2787,9.3754,-0.4548,1.2271,9.7189,-0.1685,0.1116,-0.3608,0.1949,0.2188,-0.019,29.55,6.23,-27.67,288.37,-7.11,2.38,48.843887,2.353319,91.4,NaN,,12.485,,0 / 21,,303,2022-01-12 09:59:25:088
-0.5859,1.2787,9.3754,-0.4548,1.2271,9.7189,-0.1685,0.1116,-0.3608,0.1949,0.2188,-0.019,29.55,6.23,-27.67,288.37,-7.11,2.38,48.843887,2.353319,91.4,NaN,,12.485,,0 / 21,,308,2022-01-12 09:59:25:093
-0.5859,1.2787,9.3754,-0.4548,1.2271,9.7189,-0.1685,0.1116,-0.3608,0.1949,0.2188,-0.019,29.55,6.23,-27.67,288.37,-7.11,2.38,48.843887,2.353319,91.4,NaN,,12.485,,0 / 21,,313,2022-01-12 09:59:25:098
-0.6915,1.3062,9.4546,-0.4548,1.2271,9.7189,-0.1685,0.1116,-0.3608,0.1949,0.2188,-0.019,29.48,6.15,-27.82,289.18,-7.19,2.68,48.843887,2.353319,91.4,NaN,,12.485,,0 / 21,,317,2022-01-12 09:59:25:102
-0.6915,1.3062,9.4546,-0.4414,1.2185,9.7206,-0.1788,0.0831,-0.1982,0.1949,0.2188,-0.019,29.48,6.15,-27.82,289.18,-7.19,2.68,48.843887,2.353319,91.4,NaN,,12.485,,0 / 21,,323,2022-01-12 09:59:25:108
-0.6915,1.3062,9.4546,-0.4414,1.2185,9.7206,-0.1788,0.0831,-0.1982,0.1949,0.2188,-0.019,29.48,6.15,-27.82,289.18,-7.19,2.68,48.843887,2.353319,91.4,NaN,,12.485,,0 / 21,,327,2022-01-12 09:59:25:112
-0.6915,1.3062,9.4546,-0.4414,1.2185,9.7206,-0.1788,0.0831,-0.1982,0.1949,0.2188,-0.019,29.48,6.15,-27.82,289.18,-7.19,2.68,48.843887,2.353319,91.4,NaN,,12.485,,0 / 21,,333,2022-01-12 09:59:25:118
-0.6915,1.3062,9.4546,-0.4414,1.2185,9.7206,-0.1788,0.0831,-0.1982,0.1949,0.2188,-0.019,29.48,6.15,-27.82,289.18,-7.19,2.68,48.843887,2.353319,91.4,NaN,,12.485,,0 / 21,,337,2022-01-12 09:59:25:122
-0.6915,1.3062,9.4546,-0.4414,1.2185,9.7206,-0.1788,0.0831,-0.1982,0.1949,0.2188,-0.019,29.48,6.15,-27.82,289.18,-7.19,2.68,48.843887,2.353319,91.4,NaN,,12.485,,0 / 21,,343,2022-01-12 09:59:25:128
-0.6915,1.3062,9.4546,-0.4414,1.2185,9.7206,-0.1788,0.0831,-0.1982,-9.0E-4,-0.0758,0.0037,29.48,6.15,-27.82,289.18,-7.19,2.68,48.843887,2.353319,91.4,NaN,,12.485,,0 / 21,,347,2022-01-12 09:59:25:132
-0.6915,1.3062,9.4546,-0.4414,1.2185,9.7206,-0.1788,0.0831,-0.1982,-9.0E-4,-0.0758,0.0037,29.48,6.15,-27.82,289.18,-7.19,2.68,48.843887,2.353319,91.4,NaN,,12.485,,0 / 21,,353,2022-01-12 09:59:25:138
-0.6915,1.3062,9.4546,-0.4414,1.2185,9.7206,-0.1788,0.0831,-0.1982,-9.0E-4,-0.0758,0.0037,29.48,6.15,-27.82,289.18,-7.19,2.68,48.843887,2.353319,91.4,NaN,,12.485,,0 / 21,,357,2022-01-12 09:59:25:142
-0.6915,1.3062,9.4546,-0.4414,1.2185,9.7206,-0.1788,0.0831,-0.1982,-9.0E-4,-0.0758,0.0037,29.48,6.15,-27.82,289.18,-7.19,2.68,48.843887,2.353319,91.4,NaN,,12.485,,0 / 21,,362,2022-01-12 09:59:25:147
-0.6915,1.3062,9.4546,-0.4414,1.2185,9.7206,-0.1788,0.0831,-0.1982,-9.0E-4,-0.0758,0.0037,29.48,6.15,-27.82,289.18,-7.19,2.68,48.843887,2.353319,91.4,NaN,,12.485,,0 / 21,,368,2022-01-12 09:59:25:153
-0.6915,1.3062,9.4546,-0.4414,1.2185,9.7206,-0.1788,0.0831,-0.1982,-9.0E-4,-0.0758,0.0037,29.48,6.15,-27.82,289.18,-7.19,2.68,48.843887,2.353319,91.4,NaN,,12.485,,0 / 21,,372,2022-01-12 09:59:25:157
-0.6915,1.3062,9.4546,-0.4414,1.2185,9.7206,-0.1788,0.0831,-0.1982,-9.0E-4,-0.0758,0.0037,29.48,6.15,-27.82,289.18,-7.19,2.68,48.843887,2.353319,91.4,NaN,,12.485,,0 / 21,,378,2022-01-12 09:59:25:163
-0.6915,1.3062,9.4546,-0.4414,1.2185,9.7206,-0.1788,0.0831,-0.1982,-9.0E-4,-0.0758,0.0037,29.48,6.15,-27.82,289.18,-7.19,2.68,48.843887,2.353319,91.4,NaN,,12.485,,0 / 21,,382,2022-01-12 09:59:25:167
-0.4974,1.4907,8.9623,-0.3492,1.1533,9.7323,-0.1312,0.219,-0.1649,-9.0E-4,-0.0758,0.0037,29.48,6.15,-27.82,289.18,-7.19,2.68,48.843887,2.353319,91.4,NaN,,12.485,,0 / 21,,388,2022-01-12 09:59:25:173
-0.4974,1.4907,8.9623,-0.3492,1.1533,9.7323,-0.1312,0.219,-0.1649,-9.0E-4,-0.0758,0.0037,29.48,6.15,-27.82,289.18,-7.19,2.68,48.843887,2.353319,91.4,NaN,,12.485,,0 / 21,,392,2022-01-12 09:59:25:177
-0.4974,1.4907,8.9623,-0.3492,1.1533,9.7323,-0.1312,0.219,-0.1649,-9.0E-4,-0.0758,0.0037,29.48,6.15,-27.82,289.18,-7.19,2.68,48.843887,2.353319,91.4,NaN,,12.485,,0 / 21,,398,2022-01-12 09:59:25:183
-0.4974,1.4907,8.9623,-0.3492,1.1533,9.7323,-0.1312,0.219,-0.1649,-9.0E-4,-0.0758,0.0037,29.48,6.15,-27.82,289.18,-7.19,2.68,48.843887,2.353319,91.4,NaN,,12.485,,0 / 21,,403,2022-01-12 09:59:25:188
-0.4974,1.4907,8.9623,-0.3492,1.1533,9.7323,-0.1312,0.219,-0.1649,-9.0E-4,-0.0758,0.0037,29.48,6.15,-27.82,289.18,-7.19,2.68,48.843887,2.353319,91.4,NaN,,12.485,,0 / 21,,407,2022-01-12 09:59:25:192
-0.4974,1.4907,8.9623,-0.3492,1.1533,9.7323,-0.1312,0.219,-0.1649,-9.0E-4,-0.0758,0.0037,29.25,6.23,-27.97,288.52,-6.75,2.05,48.843887,2.353319,91.4,NaN,,12.485,,0 / 21,,413,2022-01-12 09:59:25:198
-0.4974,1.4907,8.9623,-0.3492,1.1533,9.7323,-0.1312,0.219,-0.1649,-9.0E-4,-0.0758,0.0037,29.25,6.23,-27.97,288.52,-6.75,2.05,48.843887,2.353319,91.4,NaN,,12.485,,0 / 21,,418,2022-01-12 09:59:25:203
-0.4974,1.4907,8.9623,-0.3492,1.1533,9.7323,-0.1312,0.219,-0.1649,-9.0E-4,-0.0758,0.0037,29.25,6.23,-27.97,288.52,-6.75,2.05,48.843887,2.353319,91.4,NaN,,12.485,,0 / 21,,423,2022-01-12 09:59:25:208
-0.4974,1.4907,8.9623,-0.3492,1.1533,9.7323,-0.1312,0.219,-0.1649,-9.0E-4,-0.0758,0.0037,29.25,6.23,-27.97,288.52,-6.75,2.05,48.843887,2.353319,91.4,NaN,,12.485,,0 / 21,,427,2022-01-12 09:59:25:212
-0.4974,1.4907,8.9623,-0.3492,1.1533,9.7323,-0.1312,0.219,-0.1649,-9.0E-4,-0.0758,0.0037,29.25,6.23,-27.97,288.52,-6.75,2.05,48.843887,2.353319,91.4,NaN,,12.485,,0 / 21,,433,2022-01-12 09:59:25:218
-0.4974,1.4907,8.9623,-0.3492,1.1533,9.7323,-0.1312,0.219,-0.1649,-9.0E-4,-0.0758,0.0037,29.25,6.23,-27.97,288.52,-6.75,2.05,48.843887,2.353319,91.4,NaN,,12.485,,0 / 21,,437,2022-01-12 09:59:25:222
-0.4974,1.4907,8.9623,-0.3492,1.1533,9.7323,-0.1312,0.219,-0.1649,-9.0E-4,-0.0758,0.0037,29.25,6.23,-27.97,288.52,-6.75,2.05,48.843887,2.353319,91.4,NaN,,12.485,,0 / 21,,442,2022-01-12 09:59:25:227
-0.4974,1.4907,8.9623,-0.3492,1.1533,9.7323,-0.1312,0.219,-0.1649,-9.0E-4,-0.0758,0.0037,29.25,6.23,-27.97,288.52,-6.75,2.05,48.843887,2.353319,91.4,NaN,,12.485,,0 / 21,,448,2022-01-12 09:59:25:233
-0.4974,1.4907,8.9623,-0.3492,1.1533,9.7323,-0.1312,0.219,-0.1649,-9.0E-4,-0.0758,0.0037,29.25,6.23,-27.97,288.52,-6.75,2.05,48.843887,2.353319,91.4,NaN,,12.485,,0 / 21,,452,2022-01-12 09:59:25:237
-0.4974,1.4907,8.9623,-0.3492,1.1533,9.7323,-0.1312,0.219,-0.1649,-9.0E-4,-0.0758,0.0037,29.25,6.23,-27.97,288.52,-6.75,2.05,48.843887,2.353319,91.4,NaN,,12.485,,0 / 21,,457,2022-01-12 09:59:25:242
-0.6808,0.4989,10.3062,-0.3492,1.1533,9.7323,-0.1312,0.219,-0.1649,-0.9058,0.6413,-0.2067,29.25,6.23,-27.97,288.52,-6.75,2.05,48.843887,2.353319,91.4,NaN,,12.485,,0 / 21,,463,2022-01-12 09:59:25:248
-0.6808,0.4989,10.3062,-0.3492,1.1533,9.7323,-0.1312,0.219,-0.1649,-0.9058,0.6413,-0.2067,29.25,6.23,-27.97,288.52,-6.75,2.05,48.843887,2.353319,91.4,NaN,,12.485,,0 / 21,,467,2022-01-12 09:59:25:252
-0.6808,0.4989,10.3062,-0.3492,1.1533,9.7323,-0.1312,0.219,-0.1649,-0.9058,0.6413,-0.2067,29.25,6.23,-27.97,288.52,-6.75,2.05,48.843887,2.353319,91.4,NaN,,12.485,,0 / 21,,472,2022-01-12 09:59:25:257
-0.6808,0.4989,10.3062,-0.3492,1.1533,9.7323,-0.1312,0.219,-0.1649,-0.9058,0.6413,-0.2067,29.25,6.23,-27.97,288.52,-6.75,2.05,48.843887,2.353319,91.4,NaN,,12.485,,0 / 21,,478,2022-01-12 09:59:25:263
-0.6808,0.4989,10.3062,-0.3492,1.1533,9.7323,-0.1312,0.219,-0.1649,-0.9058,0.6413,-0.2067,29.25,6.23,-27.97,288.52,-6.75,2.05,48.843887,2.353319,91.4,NaN,,12.485,,0 / 21,,482,2022-01-12 09:59:25:267
-0.6808,0.4989,10.3062,-0.3492,1.1533,9.7323,-0.1312,0.219,-0.1649,-0.9058,0.6413,-0.2067,29.25,6.23,-27.97,288.52,-6.75,2.05,48.843887,2.353319,91.4,NaN,,12.485,,0 / 21,,487,2022-01-12 09:59:25:272
-0.6808,0.4989,10.3062,-0.3492,1.1533,9.7323,-0.1312,0.219,-0.1649,-0.9058,0.6413,-0.2067,29.25,6.23,-27.97,288.52,-6.75,2.05,48.843887,2.353319,91.4,NaN,,12.485,,0 / 21,,493,2022-01-12 09:59:25:278
-0.6808,0.4989,10.3062,-0.3492,1.1533,9.7323,-0.1312,0.219,-0.1649,-0.9058,0.6413,-0.2067,29.25,6.23,-27.97,288.52,-6.75,2.05,48.843887,2.353319,91.4,NaN,,12.485,,0 / 21,,497,2022-01-12 09:59:25:282
-0.6808,0.4989,10.3062,-0.3492,1.1533,9.7323,-0.1312,0.219,-0.1649,-0.9058,0.6413,-0.2067,29.25,6.23,-27.97,288.52,-6.75,2.05,48.843887,2.353319,91.4,NaN,,12.485,,0 / 21,,502,2022-01-12 09:59:25:287
-0.6808,0.4989,10.3062,-0.7127,0.3422,9.7747,0.6813,0.551,0.1947,-0.9058,0.6413,-0.2067,29.25,6.23,-27.97,288.52,-6.75,2.05,48.843887,2.353319,91.4,NaN,,12.485,,0 / 21,,507,2022-01-12 09:59:25:292
-0.6808,0.4989,10.3062,-0.7127,0.3422,9.7747,0.6813,0.551,0.1947,-0.9058,0.6413,-0.2067,29.25,6.23,-27.97,288.52,-6.75,2.05,48.843887,2.353319,91.4,NaN,,12.485,,0 / 21,,513,2022-01-12 09:59:25:298
-0.6808,0.4989,10.3062,-0.7127,0.3422,9.7747,0.6813,0.551,0.1947,-0.9058,0.6413,-0.2067,29.48,6.83,-28.05,286.66,-2.0,4.17,48.843887,2.353319,91.4,NaN,,12.485,,0 / 21,,518,2022-01-12 09:59:25:303
-0.6808,0.4989,10.3062,-0.7127,0.3422,9.7747,0.6813,0.551,0.1947,-0.9058,0.6413,-0.2067,29.48,6.83,-28.05,286.66,-2.0,4.17,48.843887,2.353319,91.4,NaN,,12.485,,0 / 21,,522,2022-01-12 09:59:25:307
-0.7178,-0.5695,9.5958,-0.7127,0.3422,9.7747,0.6813,0.551,0.1947,-0.9058,0.6413,-0.2067,29.48,6.83,-28.05,286.66,-2.0,4.17,48.843887,2.353319,91.4,NaN,,12.485,,0 / 21,,549,2022-01-12 09:59:25:334
-0.7178,-0.5695,9.5958,-0.7127,0.3422,9.7747,0.6813,0.551,0.1947,-0.9058,0.6413,-0.2067,29.48,6.83,-28.05,286.66,-2.0,4.17,48.843887,2.353319,91.4,NaN,,12.485,,0 / 21,,550,2022-01-12 09:59:25:335
-0.7178,-0.5695,9.5958,-0.7127,0.3422,9.7747,0.6813,0.551,0.1947,-0.9058,0.6413,-0.2067,29.48,6.83,-28.05,286.66,-2.0,4.17,48.843887,2.353319,91.4,NaN,,12.485,,0 / 21,,550,2022-01-12 09:59:25:335
-0.7178,-0.5695,9.5958,-0.7127,0.3422,9.7747,0.6813,0.551,0.1947,-0.9058,0.6413,-0.2067,29.48,6.83,-28.05,286.66,-2.0,4.17,48.843887,2.353319,91.4,NaN,,12.485,,0 / 21,,550,2022-01-12 09:59:25:335
-0.7178,-0.5695,9.5958,-0.7127,0.3422,9.7747,0.6813,0.551,0.1947,-0.9058,0.6413,-0.2067,29.48,6.83,-28.05,286.66,-2.0,4.17,48.843887,2.353319,91.4,NaN,,12.485,,0 / 21,,550,2022-01-12 09:59:25:335
-0.7178,-0.5695,9.5958,-0.7127,0.3422,9.7747,0.6813,0.551,0.1947,-0.9058,0.6413,-0.2067,29.48,6.83,-28.05,286.66,-2.0,4.17,48.843887,2.353319,91.4,NaN,,12.485,,0 / 21,,552,2022-01-12 09:59:25:337
-0.7178,-0.5695,9.5958,-0.7127,0.3422,9.7747,0.6813,0.551,0.1947,-0.9058,0.6413,-0.2067,29.48,6.83,-28.05,286.66,-2.0,4.17,48.843887,2.353319,91.4,NaN,,12.485,,0 / 21,,558,2022-01-12 09:59:25:343
-0.7178,-0.5695,9.5958,-0.7127,0.3422,9.7747,0.6813,0.551,0.1947,-0.9058,0.6413,-0.2067,29.48,6.83,-28.05,286.66,-2.0,4.17,48.843887,2.353319,91.4,NaN,,12.485,,0 / 21,,562,2022-01-12 09:59:25:347
-0.7178,-0.5695,9.5958,-0.4363,0.0655,9.7967,0.6813,0.551,0.1947,-0.9058,0.6413,-0.2067,29.48,6.83,-28.05,286.66,-2.0,4.17,48.843887,2.353319,91.4,NaN,,12.485,,0 / 21,,567,2022-01-12 09:59:25:352
-0.7178,-0.5695,9.5958,-0.4363,0.0655,9.7967,0.6813,0.551,0.1947,-0.9058,0.6413,-0.2067,29.48,6.83,-28.05,286.66,-2.0,4.17,48.843887,2.353319,91.4,NaN,,12.485,,0 / 21,,573,2022-01-12 09:59:25:358
-0.7178,-0.5695,9.5958,-0.4363,0.0655,9.7967,0.6813,0.551,0.1947,-0.9058,0.6413,-0.2067,29.48,6.83,-28.05,286.66,-2.0,4.17,48.843887,2.353319,91.4,NaN,,12.485,,0 / 21,,577,2022-01-12 09:59:25:362
-0.7178,-0.5695,9.5958,-0.4363,0.0655,9.7967,0.6813,0.551,0.1947,-0.9058,0.6413,-0.2067,29.48,6.83,-28.05,286.66,-2.0,4.17,48.843887,2.353319,91.4,NaN,,12.485,,0 / 21,,583,2022-01-12 09:59:25:368
-0.7178,-0.5695,9.5958,-0.4363,0.0655,9.7967,0.6813,0.551,0.1947,-0.9058,0.6413,-0.2067,29.48,6.83,-28.05,286.66,-2.0,4.17,48.843887,2.353319,91.4,NaN,,12.485,,0 / 21,,587,2022-01-12 09:59:25:372
-0.7178,-0.5695,9.5958,-0.4363,0.0655,9.7967,0.6813,0.551,0.1947,-0.9058,0.6413,-0.2067,29.48,6.83,-28.05,286.66,-2.0,4.17,48.843887,2.353319,91.4,NaN,,12.485,,0 / 21,,592,2022-01-12 09:59:25:377
-0.7777,0.1636,9.7672,-0.4363,0.0655,9.7967,0.6813,0.551,0.1947,0.108,-0.1345,0.085,29.48,6.83,-28.05,286.66,-2.0,4.17,48.843887,2.353319,91.4,NaN,,12.485,,0 / 21,,599,2022-01-12 09:59:25:384
-0.7777,0.1636,9.7672,-0.4363,0.0655,9.7967,0.6813,0.551,0.1947,0.108,-0.1345,0.085,29.48,6.83,-28.05,286.66,-2.0,4.17,48.843887,2.353319,91.4,NaN,,12.485,,0 / 21,,603,2022-01-12 09:59:25:388
-0.7777,0.1636,9.7672,-0.4363,0.0655,9.7967,0.6813,0.551,0.1947,0.108,-0.1345,0.085,29.48,6.83,-28.05,286.66,-2.0,4.17,48.843887,2.353319,91.4,NaN,,12.485,,0 / 21,,607,2022-01-12 09:59:25:392
-0.7777,0.1636,9.7672,-0.4363,0.0655,9.7967,0.6813,0.551,0.1947,0.108,-0.1345,0.085,29.48,6.83,-28.05,286.66,-2.0,4.17,48.843887,2.353319,91.4,NaN,,12.485,,0 / 21,,612,2022-01-12 09:59:25:397
-0.7777,0.1636,9.7672,-0.4363,0.0655,9.7967,-0.3634,-0.3276,0.5471,0.108,-0.1345,0.085,29.78,7.35,-28.2,284.06,-0.38,2.55,48.843887,2.353319,91.4,NaN,,12.485,,0 / 21,,618,2022-01-12 09:59:25:403
-0.7777,0.1636,9.7672,-0.4363,0.0655,9.7967,-0.3634,-0.3276,0.5471,0.108,-0.1345,0.085,29.78,7.35,-28.2,284.06,-0.38,2.55,48.843887,2.353319,91.4,NaN,,12.485,,0 / 21,,623,2022-01-12 09:59:25:408
-0.7777,0.1636,9.7672,-0.4363,0.0655,9.7967,-0.3634,-0.3276,0.5471,0.108,-0.1345,0.085,29.78,7.35,-28.2,284.06,-0.38,2.55,48.843887,2.353319,91.4,NaN,,12.485,,0 / 21,,628,2022-01-12 09:59:25:413
-0.7777,0.1636,9.7672,-0.4363,0.0655,9.7967,-0.3634,-0.3276,0.5471,0.108,-0.1345,0.085,29.78,7.35,-28.2,284.06,-0.38,2.55,48.843887,2.353319,91.4,NaN,,12.485,,0 / 21,,632,2022-01-12 09:59:25:417
-0.7777,0.1636,9.7672,-0.4363,0.0655,9.7967,-0.3634,-0.3276,0.5471,0.108,-0.1345,0.085,29.78,7.35,-28.2,284.06,-0.38,2.55,48.843887,2.353319,91.4,NaN,,12.485,,0 / 21,,638,2022-01-12 09:59:25:423
-0.7777,0.1636,9.7672,-0.4363,0.0655,9.7967,-0.3634,-0.3276,0.5471,0.108,-0.1345,0.085,29.78,7.35,-28.2,284.06,-0.38,2.55,48.843887,2.353319,91.4,NaN,,12.485,,0 / 21,,643,2022-01-12 09:59:25:428
-0.7777,0.1636,9.7672,-0.4363,0.0655,9.7967,-0.3634,-0.3276,0.5471,0.108,-0.1345,0.085,29.78,7.35,-28.2,284.06,-0.38,2.55,48.843887,2.353319,91.4,NaN,,12.485,,0 / 21,,648,2022-01-12 09:59:25:433
-0.7777,0.1636,9.7672,-0.4363,0.0655,9.7967,-0.3634,-0.3276,0.5471,0.108,-0.1345,0.085,29.78,7.35,-28.2,284.06,-0.38,2.55,48.843887,2.353319,91.4,NaN,,12.485,,0 / 21,,652,2022-01-12 09:59:25:437
-0.3802,-0.0724,9.3084,-0.4363,0.0655,9.7967,-0.3634,-0.3276,0.5471,0.108,-0.1345,0.085,29.78,7.35,-28.2,284.06,-0.38,2.55,48.843887,2.353319,91.4,NaN,,12.485,,0 / 21,,658,2022-01-12 09:59:25:443
-0.3802,-0.0724,9.3084,-0.4363,0.0655,9.7967,-0.3634,-0.3276,0.5471,0.108,-0.1345,0.085,29.78,7.35,-28.2,284.06,-0.38,2.55,48.843887,2.353319,91.4,NaN,,12.485,,0 / 21,,663,2022-01-12 09:59:25:448
-0.3802,-0.0724,9.3084,-0.4363,0.0655,9.7967,-0.3634,-0.3276,0.5471,0.108,-0.1345,0.085,29.78,7.35,-28.2,284.06,-0.38,2.55,48.843887,2.353319,91.4,NaN,,12.485,,0 / 21,,667,2022-01-12 09:59:25:452
-0.3802,-0.0724,9.3084,-0.4363,0.0655,9.7967,-0.3634,-0.3276,0.5471,0.108,-0.1345,0.085,29.78,7.35,-28.2,284.06,-0.38,2.55,48.843887,2.353319,91.4,NaN,,12.485,,0 / 21,,672,2022-01-12 09:59:25:457
-0.3802,-0.0724,9.3084,-0.4363,0.0655,9.7967,-0.3634,-0.3276,0.5471,0.108,-0.1345,0.085,29.78,7.35,-28.2,284.06,-0.38,2.55,48.843887,2.353319,91.4,NaN,,12.485,,0 / 21,,677,2022-01-12 09:59:25:462
-0.3802,-0.0724,9.3084,-0.3236,0.2398,9.7984,-0.0332,-0.1415,-0.2291,0.1256,-0.1534,-0.068,29.78,7.35,-28.2,284.06,-0.38,2.55,48.843887,2.353319,91.4,NaN,,12.485,,0 / 21,,683,2022-01-12 09:59:25:468
-0.3802,-0.0724,9.3084,-0.3236,0.2398,9.7984,-0.0332,-0.1415,-0.2291,0.1256,-0.1534,-0.068,29.78,7.35,-28.2,284.06,-0.38,2.55,48.843887,2.353319,91.4,NaN,,12.485,,0 / 21,,687,2022-01-12 09:59:25:472
-0.3802,-0.0724,9.3084,-0.3236,0.2398,9.7984,-0.0332,-0.1415,-0.2291,0.1256,-0.1534,-0.068,29.78,7.35,-28.2,284.06,-0.38,2.55,48.843887,2.353319,91.4,NaN,,12.485,,0 / 21,,692,2022-01-12 09:59:25:477
-0.3802,-0.0724,9.3084,-0.3236,0.2398,9.7984,-0.0332,-0.1415,-0.2291,0.1256,-0.1534,-0.068,29.78,7.35,-28.2,284.06,-0.38,2.55,48.843887,2.353319,91.4,NaN,,12.485,,0 / 21,,698,2022-01-12 09:59:25:483
-0.3802,-0.0724,9.3084,-0.3236,0.2398,9.7984,-0.0332,-0.1415,-0.2291,0.1256,-0.1534,-0.068,29.78,7.35,-28.2,284.06,-0.38,2.55,48.843887,2.353319,91.4,NaN,,12.485,,0 / 21,,702,2022-01-12 09:59:25:487
-0.3802,-0.0724,9.3084,-0.3236,0.2398,9.7984,-0.0332,-0.1415,-0.2291,0.1256,-0.1534,-0.068,29.78,7.35,-28.2,284.06,-0.38,2.55,48.843887,2.353319,91.4,NaN,,12.485,,0 / 21,,707,2022-01-12 09:59:25:492
-0.3802,-0.0724,9.3084,-0.3236,0.2398,9.7984,-0.0332,-0.1415,-0.2291,0.1256,-0.1534,-0.068,29.78,7.35,-28.2,284.06,-0.38,2.55,48.843887,2.353319,91.4,NaN,,12.485,,0 / 21,,712,2022-01-12 09:59:25:497
-0.3837,0.2713,9.9494,-0.3236,0.2398,9.7984,-0.0332,-0.1415,-0.2291,0.1256,-0.1534,-0.068,30.08,8.48,-28.42,286.68,-1.4,1.89,48.843887,2.353319,91.4,NaN,,12.485,,0 / 21,,718,2022-01-12 09:59:25:503
-0.3837,0.2713,9.9494,-0.3236,0.2398,9.7984,-0.0332,-0.1415,-0.2291,0.1256,-0.1534,-0.068,30.08,8.48,-28.42,286.68,-1.4,1.89,48.843887,2.353319,91.4,NaN,,12.485,,0 / 21,,722,2022-01-12 09:59:25:507
-0.3837,0.2713,9.9494,-0.3236,0.2398,9.7984,-0.0332,-0.1415,-0.2291,0.1256,-0.1534,-0.068,30.08,8.48,-28.42,286.68,-1.4,1.89,48.843887,2.353319,91.4,NaN,,12.485,,0 / 21,,728,2022-01-12 09:59:25:513
-0.3837,0.2713,9.9494,-0.3236,0.2398,9.7984,-0.0332,-0.1415,-0.2291,0.1256,-0.1534,-0.068,30.08,8.48,-28.42,286.68,-1.4,1.89,48.843887,2.353319,91.4,NaN,,12.485,,0 / 21,,732,2022-01-12 09:59:25:517
-0.3837,0.2713,9.9494,-0.3236,0.2398,9.7984,-0.0332,-0.1415,-0.2291,0.1256,-0.1534,-0.068,30.08,8.48,-28.42,286.68,-1.4,1.89,48.843887,2.353319,91.4,NaN,,12.485,,0 / 21,,738,2022-01-12 09:59:25:523
-0.3837,0.2713,9.9494,-0.3236,0.2398,9.7984,-0.0332,-0.1415,-0.2291,0.1256,-0.1534,-0.068,30.08,8.48,-28.42,286.68,-1.4,1.89,48.843887,2.353319,91.4,NaN,,12.485,,0 / 21,,743,2022-01-12 09:59:25:528
-0.3837,0.2713,9.9494,-0.3236,0.2398,9.7984,-0.0332,-0.1415,-0.2291,0.1256,-0.1534,-0.068,30.08,8.48,-28.42,286.68,-1.4,1.89,48.843887,2.353319,91.4,NaN,,12.485,,0 / 21,,747,2022-01-12 09:59:25:532
-0.3837,0.2713,9.9494,-0.3442,0.1678,9.7992,0.0097,-0.1463,-0.1906,0.1256,-0.1534,-0.068,30.08,8.48,-28.42,286.68,-1.4,1.89,48.843887,2.353319,91.4,NaN,,12.485,,0 / 21,,753,2022-01-12 09:59:25:538
-0.3837,0.2713,9.9494,-0.3442,0.1678,9.7992,0.0097,-0.1463,-0.1906,0.1256,-0.1534,-0.068,30.08,8.48,-28.42,286.68,-1.4,1.89,48.843887,2.353319,91.4,NaN,,12.485,,0 / 21,,757,2022-01-12 09:59:25:542
-0.3837,0.2713,9.9494,-0.3442,0.1678,9.7992,0.0097,-0.1463,-0.1906,0.1256,-0.1534,-0.068,30.08,8.48,-28.42,286.68,-1.4,1.89,48.843887,2.353319,91.4,NaN,,12.485,,0 / 21,,763,2022-01-12 09:59:25:548
-0.3837,0.2713,9.9494,-0.3442,0.1678,9.7992,0.0097,-0.1463,-0.1906,0.1256,-0.1534,-0.068,30.08,8.48,-28.42,286.68,-1.4,1.89,48.843887,2.353319,91.4,NaN,,12.485,,0 / 30,,767,2022-01-12 09:59:25:552
-0.3837,0.2713,9.9494,-0.3442,0.1678,9.7992,0.0097,-0.1463,-0.1906,0.1256,-0.1534,-0.068,30.08,8.48,-28.42,286.68,-1.4,1.89,48.843887,2.353319,91.4,NaN,,12.485,,0 / 30,,773,2022-01-12 09:59:25:558
-0.3837,0.2713,9.9494,-0.3442,0.1678,9.7992,0.0097,-0.1463,-0.1906,0.1256,-0.1534,-0.068,30.08,8.48,-28.42,286.68,-1.4,1.89,48.843887,2.353319,91.4,NaN,,12.485,,0 / 30,,778,2022-01-12 09:59:25:563
-0.3837,0.2713,9.9494,-0.3442,0.1678,9.7992,0.0097,-0.1463,-0.1906,0.1256,-0.1534,-0.068,30.08,8.48,-28.42,286.68,-1.4,1.89,48.843887,2.353319,91.4,NaN,,12.485,,0 / 30,,782,2022-01-12 09:59:25:567
-0.3837,0.2713,9.9494,-0.3442,0.1678,9.7992,0.0097,-0.1463,-0.1906,0.1256,-0.1534,-0.068,30.08,8.48,-28.42,286.68,-1.4,1.89,48.843887,2.353319,91.4,NaN,,12.485,,0 / 30,,788,2022-01-12 09:59:25:573
-0.3837,0.2713,9.9494,-0.3442,0.1678,9.7992,0.0097,-0.1463,-0.1906,0.1256,-0.1534,-0.068,30.08,8.48,-28.42,286.68,-1.4,1.89,48.843887,2.353319,91.4,NaN,,12.485,,0 / 30,,792,2022-01-12 09:59:25:577
-0.4137,0.0942,9.9215,-0.3442,0.1678,9.7992,0.0097,-0.1463,-0.1906,0.1256,-0.1534,-0.068,30.08,8.48,-28.42,286.68,-1.4,1.89,48.843887,2.353319,91.4,NaN,,12.485,,0 / 30,,798,2022-01-12 09:59:25:583
-0.4137,0.0942,9.9215,-0.3442,0.1678,9.7992,0.0097,-0.1463,-0.1906,0.1256,-0.1534,-0.068,30.08,8.48,-28.42,286.68,-1.4,1.89,48.843887,2.353319,91.4,NaN,,12.485,,0 / 30,,802,2022-01-12 09:59:25:587
-0.4137,0.0942,9.9215,-0.3442,0.1678,9.7992,0.0097,-0.1463,-0.1906,0.1256,-0.1534,-0.068,30.08,8.48,-28.42,286.68,-1.4,1.89,48.843887,2.353319,91.4,NaN,,12.485,,0 / 30,,808,2022-01-12 09:59:25:593
-0.4137,0.0942,9.9215,-0.3442,0.1678,9.7992,0.0097,-0.1463,-0.1906,0.0957,0.0133,0.1815,30.08,8.48,-28.42,286.68,-1.4,1.89,48.843887,2.353319,91.4,NaN,,12.485,,0 / 30,,812,2022-01-12 09:59:25:597
-0.4137,0.0942,9.9215,-0.3442,0.1678,9.7992,0.0097,-0.1463,-0.1906,0.0957,0.0133,0.1815,30.15,9.08,-28.28,288.13,-0.98,2.01,48.843887,2.353319,91.4,NaN,,12.485,,0 / 30,,818,2022-01-12 09:59:25:603
-0.4137,0.0942,9.9215,-0.3442,0.1678,9.7992,0.0097,-0.1463,-0.1906,0.0957,0.0133,0.1815,30.15,9.08,-28.28,288.13,-0.98,2.01,48.843887,2.353319,91.4,NaN,,12.485,,0 / 30,,822,2022-01-12 09:59:25:607
-0.4137,0.0942,9.9215,-0.3442,0.1678,9.7992,0.0097,-0.1463,-0.1906,0.0957,0.0133,0.1815,30.15,9.08,-28.28,288.13,-0.98,2.01,48.843887,2.353319,91.4,NaN,,12.485,,0 / 30,,827,2022-01-12 09:59:25:612
-0.4137,0.0942,9.9215,-0.3442,0.1678,9.7992,0.0097,-0.1463,-0.1906,0.0957,0.0133,0.1815,30.15,9.08,-28.28,288.13,-0.98,2.01,48.843887,2.353319,91.4,NaN,,12.485,,0 / 30,,833,2022-01-12 09:59:25:618
-0.4137,0.0942,9.9215,-0.3442,0.1678,9.7992,0.0097,-0.1463,-0.1906,0.0957,0.0133,0.1815,30.15,9.08,-28.28,288.13,-0.98,2.01,48.843887,2.353319,91.4,NaN,,12.485,,0 / 30,,837,2022-01-12 09:59:25:622
-0.4137,0.0942,9.9215,-0.3442,0.1678,9.7992,0.0097,-0.1463,-0.1906,0.0957,0.0133,0.1815,30.15,9.08,-28.28,288.13,-0.98,2.01,48.843887,2.353319,91.4,NaN,,12.485,,0 / 30,,843,2022-01-12 09:59:25:628
-0.4137,0.0942,9.9215,-0.3442,0.1678,9.7992,0.0097,-0.1463,-0.1906,0.0957,0.0133,0.1815,30.15,9.08,-28.28,288.13,-0.98,2.01,48.843887,2.353319,91.4,NaN,,12.485,,0 / 30,,847,2022-01-12 09:59:25:632
-0.4137,0.0942,9.9215,-0.3442,0.1678,9.7992,0.0097,-0.1463,-0.1906,0.0957,0.0133,0.1815,30.15,9.08,-28.28,288.13,-0.98,2.01,48.843887,2.353319,91.4,NaN,,12.485,,0 / 30,,853,2022-01-12 09:59:25:638
-0.4137,0.0942,9.9215,-0.3442,0.1678,9.7992,0.0097,-0.1463,-0.1906,0.0957,0.0133,0.1815,30.15,9.08,-28.28,288.13,-0.98,2.01,48.843887,2.353319,91.4,NaN,,12.485,,0 / 30,,857,2022-01-12 09:59:25:642
-0.0362,0.1146,9.4846,-0.3991,0.2772,9.7946,0.0996,-0.2088,-0.0479,0.0957,0.0133,0.1815,30.15,9.08,-28.28,288.13,-0.98,2.01,48.843887,2.353319,91.4,NaN,,12.485,,0 / 30,,863,2022-01-12 09:59:25:648
-0.0362,0.1146,9.4846,-0.3991,0.2772,9.7946,0.0996,-0.2088,-0.0479,0.0957,0.0133,0.1815,30.15,9.08,-28.28,288.13,-0.98,2.01,48.843887,2.353319,91.4,NaN,,12.485,,0 / 30,,867,2022-01-12 09:59:25:652
-0.0362,0.1146,9.4846,-0.3991,0.2772,9.7946,0.0996,-0.2088,-0.0479,0.0957,0.0133,0.1815,30.15,9.08,-28.28,288.13,-0.98,2.01,48.843887,2.353319,91.4,NaN,,12.485,,0 / 30,,872,2022-01-12 09:59:25:657
-0.0362,0.1146,9.4846,-0.3991,0.2772,9.7946,0.0996,-0.2088,-0.0479,0.0957,0.0133,0.1815,30.15,9.08,-28.28,288.13,-0.98,2.01,48.843887,2.353319,91.4,NaN,,12.485,,0 / 30,,878,2022-01-12 09:59:25:663
-0.0362,0.1146,9.4846,-0.3991,0.2772,9.7946,0.0996,-0.2088,-0.0479,0.0957,0.0133,0.1815,30.15,9.08,-28.28,288.13,-0.98,2.01,48.843887,2.353319,91.4,NaN,,12.485,,0 / 30,,882,2022-01-12 09:59:25:667
-0.0362,0.1146,9.4846,-0.3991,0.2772,9.7946,0.0996,-0.2088,-0.0479,0.0957,0.0133,0.1815,30.15,9.08,-28.28,288.13,-0.98,2.01,48.843887,2.353319,91.4,NaN,,12.485,,0 / 30,,888,2022-01-12 09:59:25:673
-0.0362,0.1146,9.4846,-0.3991,0.2772,9.7946,0.0996,-0.2088,-0.0479,0.0957,0.0133,0.1815,30.15,9.08,-28.28,288.13,-0.98,2.01,48.843887,2.353319,91.4,NaN,,12.485,,0 / 30,,893,2022-01-12 09:59:25:678
-0.0362,0.1146,9.4846,-0.3991,0.2772,9.7946,0.0996,-0.2088,-0.0479,0.0957,0.0133,0.1815,30.15,9.08,-28.28,288.13,-0.98,2.01,48.843887,2.353319,91.4,NaN,,12.485,,0 / 30,,897,2022-01-12 09:59:25:682
-0.0362,0.1146,9.4846,-0.3991,0.2772,9.7946,0.0996,-0.2088,-0.0479,0.0957,0.0133,0.1815,30.15,9.08,-28.28,288.13,-0.98,2.01,48.843887,2.353319,91.4,NaN,,12.485,,0 / 30,,902,2022-01-12 09:59:25:687
-0.0362,0.1146,9.4846,-0.3991,0.2772,9.7946,0.0996,-0.2088,-0.0479,0.0957,0.0133,0.1815,30.15,9.08,-28.28,288.13,-0.98,2.01,48.843887,2.353319,91.4,NaN,,12.485,,0 / 30,,907,2022-01-12 09:59:25:692
-0.0362,0.1146,9.4846,-0.3991,0.2772,9.7946,0.0996,-0.2088,-0.0479,0.0957,0.0133,0.1815,30.15,9.08,-28.28,288.13,-0.98,2.01,48.843887,2.353319,91.4,NaN,,12.485,,0 / 30,,912,2022-01-12 09:59:25:697
-0.0362,0.1146,9.4846,-0.3991,0.2772,9.7946,0.0996,-0.2088,-0.0479,0.0957,0.0133,0.1815,30.23,10.05,-28.05,290.57,-1.62,2.33,48.843887,2.353319,91.4,NaN,,12.485,,0 / 30,,917,2022-01-12 09:59:25:702
-0.495,0.5037,9.2533,-0.5122,0.5291,9.779,0.2038,-0.4705,0.0885,0.0957,0.0133,0.1815,30.23,10.05,-28.05,290.57,-1.62,2.33,48.843887,2.353319,91.4,NaN,,12.485,,0 / 30,,922,2022-01-12 09:59:25:707
-0.495,0.5037,9.2533,-0.5122,0.5291,9.779,0.2038,-0.4705,0.0885,0.0957,0.0133,0.1815,30.23,10.05,-28.05,290.57,-1.62,2.33,48.843887,2.353319,91.4,NaN,,12.485,,0 / 30,,928,2022-01-12 09:59:25:713
-0.495,0.5037,9.2533,-0.5122,0.5291,9.779,0.2038,-0.4705,0.0885,0.0957,0.0133,0.1815,30.23,10.05,-28.05,290.57,-1.62,2.33,48.843887,2.353319,91.4,NaN,,12.485,,0 / 30,,932,2022-01-12 09:59:25:717
-0.495,0.5037,9.2533,-0.5122,0.5291,9.779,0.2038,-0.4705,0.0885,0.0957,0.0133,0.1815,30.23,10.05,-28.05,290.57,-1.62,2.33,48.843887,2.353319,91.4,NaN,,12.485,,0 / 30,,938,2022-01-12 09:59:25:723
-0.495,0.5037,9.2533,-0.5122,0.5291,9.779,0.2038,-0.4705,0.0885,0.0957,0.0133,0.1815,30.23,10.05,-28.05,290.57,-1.62,2.33,48.843887,2.353319,91.4,NaN,,12.485,,0 / 30,,943,2022-01-12 09:59:25:728
-0.495,0.5037,9.2533,-0.5122,0.5291,9.779,0.2038,-0.4705,0.0885,0.4302,0.1007,-0.0549,30.23,10.05,-28.05,290.57,-1.62,2.33,48.843887,2.353319,91.4,NaN,,12.485,,0 / 30,,948,2022-01-12 09:59:25:733
-0.495,0.5037,9.2533,-0.5122,0.5291,9.779,0.2038,-0.4705,0.0885,0.4302,0.1007,-0.0549,30.23,10.05,-28.05,290.57,-1.62,2.33,48.843887,2.353319,91.4,NaN,,12.485,,0 / 30,,953,2022-01-12 09:59:25:738
-0.495,0.5037,9.2533,-0.5122,0.5291,9.779,0.2038,-0.4705,0.0885,0.4302,0.1007,-0.0549,30.23,10.05,-28.05,290.57,-1.62,2.33,48.843887,2.353319,91.4,NaN,,12.485,,0 / 30,,957,2022-01-12 09:59:25:742
-0.495,0.5037,9.2533,-0.5122,0.5291,9.779,0.2038,-0.4705,0.0885,0.4302,0.1007,-0.0549,30.23,10.05,-28.05,290.57,-1.62,2.33,48.843887,2.353319,91.4,NaN,,12.485,,0 / 30,,963,2022-01-12 09:59:25:748
-0.495,0.5037,9.2533,-0.5122,0.5291,9.779,0.2038,-0.4705,0.0885,0.4302,0.1007,-0.0549,30.23,10.05,-28.05,290.57,-1.62,2.33,48.843887,2.353319,91.4,NaN,,12.485,,0 / 30,,968,2022-01-12 09:59:25:753
-0.495,0.5037,9.2533,-0.5122,0.5291,9.779,0.2038,-0.4705,0.0885,0.4302,0.1007,-0.0549,30.23,10.05,-28.05,290.57,-1.62,2.33,48.843887,2.353319,91.4,NaN,,12.485,,0 / 30,,973,2022-01-12 09:59:25:758
-0.495,0.5037,9.2533,-0.5122,0.5291,9.779,0.2038,-0.4705,0.0885,0.4302,0.1007,-0.0549,30.23,10.05,-28.05,290.57,-1.62,2.33,48.843887,2.353319,91.4,NaN,,12.485,,0 / 30,,977,2022-01-12 09:59:25:762
-0.495,0.5037,9.2533,-0.5122,0.5291,9.779,0.2038,-0.4705,0.0885,0.4302,0.1007,-0.0549,30.23,10.05,-28.05,290.57,-1.62,2.33,48.843887,2.353319,91.4,NaN,,12.485,,0 / 30,,983,2022-01-12 09:59:25:768
-0.3538,0.5432,9.784,-0.4384,0.5939,9.7788,0.1068,-0.361,0.0038,0.4302,0.1007,-0.0549,30.23,10.05,-28.05,290.57,-1.62,2.33,48.843887,2.353319,91.4,NaN,,12.485,,0 / 30,,987,2022-01-12 09:59:25:772
-0.3538,0.5432,9.784,-0.4384,0.5939,9.7788,0.1068,-0.361,0.0038,0.4302,0.1007,-0.0549,30.23,10.05,-28.05,290.57,-1.62,2.33,48.843887,2.353319,91.4,NaN,,12.485,,0 / 30,,993,2022-01-12 09:59:25:778
-0.3538,0.5432,9.784,-0.4384,0.5939,9.7788,0.1068,-0.361,0.0038,0.4302,0.1007,-0.0549,30.23,10.05,-28.05,290.57,-1.62,2.33,48.843887,2.353319,91.4,NaN,,12.485,,0 / 30,,997,2022-01-12 09:59:25:782
-0.3538,0.5432,9.784,-0.4384,0.5939,9.7788,0.1068,-0.361,0.0038,0.4302,0.1007,-0.0549,30.23,10.05,-28.05,290.57,-1.62,2.33,48.843887,2.353319,91.4,NaN,,12.485,,0 / 30,,1002,2022-01-12 09:59:25:787
-0.3538,0.5432,9.784,-0.4384,0.5939,9.7788,0.1068,-0.361,0.0038,0.4302,0.1007,-0.0549,30.23,10.05,-28.05,290.57,-1.62,2.33,48.843887,2.353319,91.4,NaN,,12.485,,0 / 30,,1008,2022-01-12 09:59:25:793
-0.3538,0.5432,9.784,-0.4384,0.5939,9.7788,0.1068,-0.361,0.0038,0.4302,0.1007,-0.0549,30.23,10.05,-28.05,290.57,-1.62,2.33,48.843887,2.353319,91.4,NaN,,12.485,,0 / 30,,1013,2022-01-12 09:59:25:798
-0.3538,0.5432,9.784,-0.4384,0.5939,9.7788,0.1068,-0.361,0.0038,0.4302,0.1007,-0.0549,30.23,10.2,-27.97,292.27,-3.47,2.57,48.843887,2.353319,91.4,NaN,,12.485,,0 / 30,,1017,2022-01-12 09:59:25:802
-0.3538,0.5432,9.784,-0.4384,0.5939,9.7788,0.1068,-0.361,0.0038,0.4302,0.1007,-0.0549,30.23,10.2,-27.97,292.27,-3.47,2.57,48.843887,2.353319,91.4,NaN,,12.485,,0 / 30,,1022,2022-01-12 09:59:25:807
-0.3538,0.5432,9.784,-0.4384,0.5939,9.7788,0.1068,-0.361,0.0038,0.4302,0.1007,-0.0549,30.23,10.2,-27.97,292.27,-3.47,2.57,48.843887,2.353319,91.4,NaN,,12.485,,0 / 30,,1027,2022-01-12 09:59:25:812
-0.3538,0.5432,9.784,-0.4384,0.5939,9.7788,0.1068,-0.361,0.0038,0.4302,0.1007,-0.0549,30.23,10.2,-27.97,292.27,-3.47,2.57,48.843887,2.353319,91.4,NaN,,12.485,,0 / 30,,1033,2022-01-12 09:59:25:818
-0.3538,0.5432,9.784,-0.4384,0.5939,9.7788,0.1068,-0.361,0.0038,0.4302,0.1007,-0.0549,30.23,10.2,-27.97,292.27,-3.47,2.57,48.843887,2.353319,91.4,NaN,,12.485,,0 / 30,,1037,2022-01-12 09:59:25:822
-0.3538,0.5432,9.784,-0.4384,0.5939,9.7788,0.1068,-0.361,0.0038,0.4302,0.1007,-0.0549,30.23,10.2,-27.97,292.27,-3.47,2.57,48.843887,2.353319,91.4,NaN,,12.485,,0 / 30,,1043,2022-01-12 09:59:25:828
-0.3538,0.5432,9.784,-0.4384,0.5939,9.7788,0.1068,-0.361,0.0038,0.4302,0.1007,-0.0549,30.23,10.2,-27.97,292.27,-3.47,2.57,48.843887,2.353319,91.4,NaN,,12.485,,0 / 30,,1047,2022-01-12 09:59:25:832
-0.3538,0.5432,9.784,-0.4384,0.5939,9.7788,0.1068,-0.361,0.0038,0.4302,0.1007,-0.0549,30.23,10.2,-27.97,292.27,-3.47,2.57,48.843887,2.353319,91.4,NaN,,12.485,,0 / 30,,1052,2022-01-12 09:59:25:837
-0.4842,0.5216,9.7002,-0.3466,0.5667,9.7841,-0.2934,0.1206,-0.1367,0.4302,0.1007,-0.0549,30.23,10.2,-27.97,292.27,-3.47,2.57,48.843887,2.353319,91.4,NaN,,12.485,,0 / 30,,1057,2022-01-12 09:59:25:842
-0.4842,0.5216,9.7002,-0.3466,0.5667,9.7841,-0.2934,0.1206,-0.1367,-0.1337,-0.2265,-0.0228,30.23,10.2,-27.97,292.27,-3.47,2.57,48.843887,2.353319,91.4,NaN,,12.485,,0 / 30,,1062,2022-01-12 09:59:25:847
-0.4842,0.5216,9.7002,-0.3466,0.5667,9.7841,-0.2934,0.1206,-0.1367,-0.1337,-0.2265,-0.0228,30.23,10.2,-27.97,292.27,-3.47,2.57,48.843887,2.353319,91.4,NaN,,12.485,,0 / 30,,1068,2022-01-12 09:59:25:853
-0.4842,0.5216,9.7002,-0.3466,0.5667,9.7841,-0.2934,0.1206,-0.1367,-0.1337,-0.2265,-0.0228,30.23,10.2,-27.97,292.27,-3.47,2.57,48.843887,2.353319,91.4,NaN,,12.485,,0 / 30,,1072,2022-01-12 09:59:25:857
-0.4842,0.5216,9.7002,-0.3466,0.5667,9.7841,-0.2934,0.1206,-0.1367,-0.1337,-0.2265,-0.0228,30.23,10.2,-27.97,292.27,-3.47,2.57,48.843887,2.353319,91.4,NaN,,12.485,,0 / 30,,1078,2022-01-12 09:59:25:863
-0.4842,0.5216,9.7002,-0.3466,0.5667,9.7841,-0.2934,0.1206,-0.1367,-0.1337,-0.2265,-0.0228,30.23,10.2,-27.97,292.27,-3.47,2.57,48.843887,2.353319,91.4,NaN,,12.485,,0 / 30,,1082,2022-01-12 09:59:25:867
-0.4842,0.5216,9.7002,-0.3466,0.5667,9.7841,-0.2934,0.1206,-0.1367,-0.1337,-0.2265,-0.0228,30.23,10.2,-27.97,292.27,-3.47,2.57,48.843887,2.353319,91.4,NaN,,12.485,,0 / 30,,1088,2022-01-12 09:59:25:873
-0.4842,0.5216,9.7002,-0.3466,0.5667,9.7841,-0.2934,0.1206,-0.1367,-0.1337,-0.2265,-0.0228,30.23,10.2,-27.97,292.27,-3.47,2.57,48.843887,2.353319,91.4,NaN,,12.485,,0 / 30,,1092,2022-01-12 09:59:25:877
-0.4842,0.5216,9.7002,-0.3466,0.5667,9.7841,-0.2934,0.1206,-0.1367,-0.1337,-0.2265,-0.0228,30.23,10.2,-27.97,292.27,-3.47,2.57,48.843887,2.353319,91.4,NaN,,12.485,,0 / 30,,1097,2022-01-12 09:59:25:882
-0.4842,0.5216,9.7002,-0.3466,0.5667,9.7841,-0.2934,0.1206,-0.1367,-0.1337,-0.2265,-0.0228,30.23,10.2,-27.97,292.27,-3.47,2.57,48.843887,2.353319,91.4,NaN,,12.485,,0 / 30,,1102,2022-01-12 09:59:25:887
-0.4842,0.5216,9.7002,-0.3466,0.5667,9.7841,-0.2934,0.1206,-0.1367,-0.1337,-0.2265,-0.0228,30.23,10.2,-27.97,292.27,-3.47,2.57,48.843887,2.353319,91.4,NaN,,12.485,,0 / 30,,1107,2022-01-12 09:59:25:892
-0.4842,0.5216,9.7002,-0.3466,0.5667,9.7841,-0.2934,0.1206,-0.1367,-0.1337,-0.2265,-0.0228,30.23,10.2,-27.97,292.27,-3.47,2.57,48.843887,2.353319,91.4,NaN,,12.485,,0 / 30,,1113,2022-01-12 09:59:25:898
-0.4842,0.5216,9.7002,-0.3466,0.5667,9.7841,-0.2934,0.1206,-0.1367,-0.1337,-0.2265,-0.0228,30.08,9.98,-27.97,291.91,-3.31,2.03,48.843887,2.353319,91.4,NaN,,12.485,,0 / 30,,1117,2022-01-12 09:59:25:902
-0.4842,0.5216,9.7002,-0.3466,0.5667,9.7841,-0.2934,0.1206,-0.1367,-0.1337,-0.2265,-0.0228,30.08,9.98,-27.97,291.91,-3.31,2.03,48.843887,2.353319,91.4,NaN,,12.485,,0 / 30,,1123,2022-01-12 09:59:25:908
-0.2794,0.0592,9.8462,-0.3466,0.5667,9.7841,-0.2934,0.1206,-0.1367,-0.1337,-0.2265,-0.0228,30.08,9.98,-27.97,291.91,-3.31,2.03,48.843887,2.353319,91.4,NaN,,12.485,,0 / 30,,1127,2022-01-12 09:59:25:912
-0.2794,0.0592,9.8462,-0.3466,0.5667,9.7841,-0.2934,0.1206,-0.1367,-0.1337,-0.2265,-0.0228,30.08,9.98,-27.97,291.91,-3.31,2.03,48.843887,2.353319,91.4,NaN,,12.485,,0 / 30,,1132,2022-01-12 09:59:25:917
-0.2794,0.0592,9.8462,-0.3466,0.5667,9.7841,-0.2934,0.1206,-0.1367,-0.1337,-0.2265,-0.0228,30.08,9.98,-27.97,291.91,-3.31,2.03,48.843887,2.353319,91.4,NaN,,12.485,,0 / 30,,1137,2022-01-12 09:59:25:922
-0.2794,0.0592,9.8462,-0.3466,0.5667,9.7841,-0.2934,0.1206,-0.1367,-0.1337,-0.2265,-0.0228,30.08,9.98,-27.97,291.91,-3.31,2.03,48.843887,2.353319,91.4,NaN,,12.485,,0 / 30,,1142,2022-01-12 09:59:25:927
-0.2794,0.0592,9.8462,-0.3466,0.5667,9.7841,-0.2934,0.1206,-0.1367,-0.1337,-0.2265,-0.0228,30.08,9.98,-27.97,291.91,-3.31,2.03,48.843887,2.353319,91.4,NaN,,12.485,,0 / 30,,1147,2022-01-12 09:59:25:932
-0.2794,0.0592,9.8462,-0.3466,0.5667,9.7841,-0.2934,0.1206,-0.1367,-0.2553,-0.1531,-0.0261,30.08,9.98,-27.97,291.91,-3.31,2.03,48.843887,2.353319,91.4,NaN,,12.485,,0 / 30,,1152,2022-01-12 09:59:25:937
-0.2794,0.0592,9.8462,-0.3466,0.5667,9.7841,-0.2934,0.1206,-0.1367,-0.2553,-0.1531,-0.0261,30.08,9.98,-27.97,291.91,-3.31,2.03,48.843887,2.353319,91.4,NaN,,12.485,,0 / 30,,1158,2022-01-12 09:59:25:943
-0.2794,0.0592,9.8462,-0.3466,0.5667,9.7841,-0.2934,0.1206,-0.1367,-0.2553,-0.1531,-0.0261,30.08,9.98,-27.97,291.91,-3.31,2.03,48.843887,2.353319,91.4,NaN,,12.485,,0 / 30,,1162,2022-01-12 09:59:25:947
-0.2794,0.0592,9.8462,-0.178,0.3329,9.7994,-0.0705,0.0055,-0.0322,-0.2553,-0.1531,-0.0261,30.08,9.98,-27.97,291.91,-3.31,2.03,48.843887,2.353319,91.4,NaN,,12.485,,0 / 30,,1167,2022-01-12 09:59:25:952
-0.2794,0.0592,9.8462,-0.178,0.3329,9.7994,-0.0705,0.0055,-0.0322,-0.2553,-0.1531,-0.0261,30.08,9.98,-27.97,291.91,-3.31,2.03,48.843887,2.353319,91.4,NaN,,12.485,,0 / 30,,1173,2022-01-12 09:59:25:958
-0.2794,0.0592,9.8462,-0.178,0.3329,9.7994,-0.0705,0.0055,-0.0322,-0.2553,-0.1531,-0.0261,30.08,9.98,-27.97,291.91,-3.31,2.03,48.843887,2.353319,91.4,NaN,,12.485,,0 / 30,,1177,2022-01-12 09:59:25:962
-0.2794,0.0592,9.8462,-0.178,0.3329,9.7994,-0.0705,0.0055,-0.0322,-0.2553,-0.1531,-0.0261,30.08,9.98,-27.97,291.91,-3.31,2.03,48.843887,2.353319,91.4,NaN,,12.485,,0 / 30,,1182,2022-01-12 09:59:25:967
-0.2794,0.0592,9.8462,-0.178,0.3329,9.7994,-0.0705,0.0055,-0.0322,-0.2553,-0.1531,-0.0261,30.08,9.98,-27.97,291.91,-3.31,2.03,48.843887,2.353319,91.4,NaN,,12.485,,0 / 30,,1188,2022-01-12 09:59:25:973
-0.2794,0.0592,9.8462,-0.178,0.3329,9.7994,-0.0705,0.0055,-0.0322,-0.2553,-0.1531,-0.0261,30.08,9.98,-27.97,291.91,-3.31,2.03,48.843887,2.353319,91.4,NaN,,12.485,,0 / 30,,1192,2022-01-12 09:59:25:977
-0.5118,0.4235,9.5384,-0.178,0.3329,9.7994,-0.0705,0.0055,-0.0322,-0.2553,-0.1531,-0.0261,30.08,9.98,-27.97,291.91,-3.31,2.03,48.843887,2.353319,91.4,NaN,,12.485,,0 / 30,,1197,2022-01-12 09:59:25:982
-0.5118,0.4235,9.5384,-0.178,0.3329,9.7994,-0.0705,0.0055,-0.0322,-0.2553,-0.1531,-0.0261,30.08,9.98,-27.97,291.91,-3.31,2.03,48.843887,2.353319,91.4,NaN,,12.485,,0 / 30,,1203,2022-01-12 09:59:25:988
-0.5118,0.4235,9.5384,-0.178,0.3329,9.7994,-0.0705,0.0055,-0.0322,-0.2553,-0.1531,-0.0261,30.08,9.98,-27.97,291.91,-3.31,2.03,48.843887,2.353319,91.4,NaN,,12.485,,0 / 30,,1207,2022-01-12 09:59:25:992
-0.5118,0.4235,9.5384,-0.178,0.3329,9.7994,-0.0705,0.0055,-0.0322,-0.2553,-0.1531,-0.0261,30.08,9.98,-27.97,291.91,-3.31,2.03,48.843887,2.353319,91.4,NaN,,12.485,,0 / 30,,1213,2022-01-12 09:59:25:998
-0.5118,0.4235,9.5384,-0.178,0.3329,9.7994,-0.0705,0.0055,-0.0322,-0.2553,-0.1531,-0.0261,29.93,9.75,-27.82,290.39,-1.95,1.04,48.843887,2.353319,91.4,NaN,,12.485,,0 / 30,,1217,2022-01-12 09:59:26:002
-0.5118,0.4235,9.5384,-0.178,0.3329,9.7994,-0.0705,0.0055,-0.0322,-0.2553,-0.1531,-0.0261,29.93,9.75,-27.82,290.39,-1.95,1.04,48.843887,2.353319,91.4,NaN,,12.485,,0 / 30,,1223,2022-01-12 09:59:26:008
-0.5118,0.4235,9.5384,-0.178,0.3329,9.7994,-0.0705,0.0055,-0.0322,-0.2553,-0.1531,-0.0261,29.93,9.75,-27.82,290.39,-1.95,1.04,48.843887,2.353319,91.4,NaN,,12.485,,0 / 30,,1228,2022-01-12 09:59:26:013
-0.5118,0.4235,9.5384,-0.178,0.3329,9.7994,-0.0705,0.0055,-0.0322,-0.2553,-0.1531,-0.0261,29.93,9.75,-27.82,290.39,-1.95,1.04,48.843887,2.353319,91.4,NaN,,12.485,,0 / 30,,1232,2022-01-12 09:59:26:017
-0.5118,0.4235,9.5384,-0.178,0.3329,9.7994,-0.0705,0.0055,-0.0322,-0.2553,-0.1531,-0.0261,29.93,9.75,-27.82,290.39,-1.95,1.04,48.843887,2.353319,91.4,NaN,,12.485,,0 / 30,,1237,2022-01-12 09:59:26:022
-0.5118,0.4235,9.5384,-0.1354,0.3236,9.8004,-0.177,-0.128,0.0335,-0.2553,-0.1531,-0.0261,29.93,9.75,-27.82,290.39,-1.95,1.04,48.843887,2.353319,91.4,NaN,,12.485,,0 / 30,,1243,2022-01-12 09:59:26:028
-0.5118,0.4235,9.5384,-0.1354,0.3236,9.8004,-0.177,-0.128,0.0335,-0.2553,-0.1531,-0.0261,29.93,9.75,-27.82,290.39,-1.95,1.04,48.843887,2.353319,91.4,NaN,,12.485,,0 / 30,,1247,2022-01-12 09:59:26:032
-0.5118,0.4235,9.5384,-0.1354,0.3236,9.8004,-0.177,-0.128,0.0335,-0.2553,-0.1531,-0.0261,29.93,9.75,-27.82,290.39,-1.95,1.04,48.843887,2.353319,91.4,NaN,,12.485,,0 / 30,,1252,2022-01-12 09:59:26:037
-0.5118,0.4235,9.5384,-0.1354,0.3236,9.8004,-0.177,-0.128,0.0335,-0.2553,-0.1531,-0.0261,29.93,9.75,-27.82,290.39,-1.95,1.04,48.843887,2.353319,91.4,NaN,,12.485,,0 / 30,,1257,2022-01-12 09:59:26:042
-0.3945,0.2641,9.7863,-0.1354,0.3236,9.8004,-0.177,-0.128,0.0335,-0.2553,-0.1531,-0.0261,29.93,9.75,-27.82,290.39,-1.95,1.04,48.843887,2.353319,91.4,NaN,,12.485,,0 / 30,,1263,2022-01-12 09:59:26:048
-0.3945,0.2641,9.7863,-0.1354,0.3236,9.8004,-0.177,-0.128,0.0335,-0.2553,-0.1531,-0.0261,29.93,9.75,-27.82,290.39,-1.95,1.04,48.843887,2.353319,91.4,NaN,,12.485,,0 / 30,,1267,2022-01-12 09:59:26:052
-0.3945,0.2641,9.7863,-0.1354,0.3236,9.8004,-0.177,-0.128,0.0335,-0.2553,-0.1531,-0.0261,29.93,9.75,-27.82,290.39,-1.95,1.04,48.843887,2.353319,91.4,NaN,,12.485,,0 / 30,,1272,2022-01-12 09:59:26:057
-0.3945,0.2641,9.7863,-0.1354,0.3236,9.8004,-0.177,-0.128,0.0335,-0.2553,-0.1531,-0.0261,29.93,9.75,-27.82,290.39,-1.95,1.04,48.843887,2.353319,91.4,NaN,,12.485,,0 / 30,,1278,2022-01-12 09:59:26:063
-0.3945,0.2641,9.7863,-0.1354,0.3236,9.8004,-0.177,-0.128,0.0335,0.0125,-0.0772,0.0668,29.93,9.75,-27.82,290.39,-1.95,1.04,48.843887,2.353319,91.4,NaN,,12.485,,0 / 30,,1282,2022-01-12 09:59:26:067
-0.3945,0.2641,9.7863,-0.1354,0.3236,9.8004,-0.177,-0.128,0.0335,0.0125,-0.0772,0.0668,29.93,9.75,-27.82,290.39,-1.95,1.04,48.843887,2.353319,91.4,NaN,,12.485,,0 / 30,,1288,2022-01-12 09:59:26:073
-0.3945,0.2641,9.7863,-0.1354,0.3236,9.8004,-0.177,-0.128,0.0335,0.0125,-0.0772,0.0668,29.93,9.75,-27.82,290.39,-1.95,1.04,48.843887,2.353319,91.4,NaN,,12.485,,0 / 30,,1293,2022-01-12 09:59:26:078
-0.3945,0.2641,9.7863,-0.1354,0.3236,9.8004,-0.177,-0.128,0.0335,0.0125,-0.0772,0.0668,29.93,9.75,-27.82,290.39,-1.95,1.04,48.843887,2.353319,91.4,NaN,,12.485,,0 / 30,,1298,2022-01-12 09:59:26:083
-0.3945,0.2641,9.7863,-0.0927,0.3325,9.8006,-0.1748,-0.0042,0.0682,0.0125,-0.0772,0.0668,29.93,9.75,-27.82,290.39,-1.95,1.04,48.843887,2.353319,91.4,NaN,,12.485,,0 / 30,,1303,2022-01-12 09:59:26:088
-0.3945,0.2641,9.7863,-0.0927,0.3325,9.8006,-0.1748,-0.0042,0.0682,0.0125,-0.0772,0.0668,29.93,9.75,-27.82,290.39,-1.95,1.04,48.843887,2.353319,91.4,NaN,,12.485,,0 / 30,,1307,2022-01-12 09:59:26:092
-0.3945,0.2641,9.7863,-0.0927,0.3325,9.8006,-0.1748,-0.0042,0.0682,0.0125,-0.0772,0.0668,29.93,9.75,-27.82,290.39,-1.95,1.04,48.843887,2.353319,91.4,NaN,,12.485,,0 / 30,,1312,2022-01-12 09:59:26:097
-0.3945,0.2641,9.7863,-0.0927,0.3325,9.8006,-0.1748,-0.0042,0.0682,0.0125,-0.0772,0.0668,29.33,9.38,-28.2,289.11,-1.94,0.54,48.843887,2.353319,91.4,NaN,,12.485,,0 / 30,,1317,2022-01-12 09:59:26:102
-0.3945,0.2641,9.7863,-0.0927,0.3325,9.8006,-0.1748,-0.0042,0.0682,0.0125,-0.0772,0.0668,29.33,9.38,-28.2,289.11,-1.94,0.54,48.843887,2.353319,91.4,NaN,,12.485,,0 / 30,,1323,2022-01-12 09:59:26:108
-0.3945,0.2641,9.7863,-0.0927,0.3325,9.8006,-0.1748,-0.0042,0.0682,0.0125,-0.0772,0.0668,29.33,9.38,-28.2,289.11,-1.94,0.54,48.843887,2.353319,91.4,NaN,,12.485,,0 / 30,,1327,2022-01-12 09:59:26:112
0.9218,-0.0987,9.687,-0.0927,0.3325,9.8006,-0.1748,-0.0042,0.0682,0.0125,-0.0772,0.0668,29.33,9.38,-28.2,289.11,-1.94,0.54,48.843887,2.353319,91.4,NaN,,12.485,,0 / 30,,1333,2022-01-12 09:59:26:118
0.9218,-0.0987,9.687,-0.0927,0.3325,9.8006,-0.1748,-0.0042,0.0682,0.0125,-0.0772,0.0668,29.33,9.38,-28.2,289.11,-1.94,0.54,48.843887,2.353319,91.4,NaN,,12.485,,0 / 30,,1338,2022-01-12 09:59:26:123
0.9218,-0.0987,9.687,-0.0927,0.3325,9.8006,-0.1748,-0.0042,0.0682,0.0125,-0.0772,0.0668,29.33,9.38,-28.2,289.11,-1.94,0.54,48.843887,2.353319,91.4,NaN,,12.485,,0 / 30,,1342,2022-01-12 09:59:26:127
0.9218,-0.0987,9.687,-0.0927,0.3325,9.8006,-0.1748,-0.0042,0.0682,0.0125,-0.0772,0.0668,29.33,9.38,-28.2,289.11,-1.94,0.54,48.843887,2.353319,91.4,NaN,,12.485,,0 / 30,,1348,2022-01-12 09:59:26:133
0.9218,-0.0987,9.687,-0.0927,0.3325,9.8006,-0.1748,-0.0042,0.0682,0.0125,-0.0772,0.0668,29.33,9.38,-28.2,289.11,-1.94,0.54,48.843887,2.353319,91.4,NaN,,12.485,,0 / 30,,1352,2022-01-12 09:59:26:137
0.9218,-0.0987,9.687,-0.0927,0.3325,9.8006,-0.1748,-0.0042,0.0682,0.0125,-0.0772,0.0668,29.33,9.38,-28.2,289.11,-1.94,0.54,48.843887,2.353319,91.4,NaN,,12.485,,0 / 30,,1357,2022-01-12 09:59:26:142
0.9218,-0.0987,9.687,-0.0927,0.3325,9.8006,-0.1748,-0.0042,0.0682,0.0125,-0.0772,0.0668,29.33,9.38,-28.2,289.11,-1.94,0.54,48.843887,2.353319,91.4,NaN,,12.485,,0 / 30,,1363,2022-01-12 09:59:26:148
0.9218,-0.0987,9.687,-0.0927,0.3325,9.8006,-0.1748,-0.0042,0.0682,0.0125,-0.0772,0.0668,29.33,9.38,-28.2,289.11,-1.94,0.54,48.843887,2.353319,91.4,NaN,,12.485,,0 / 30,,1367,2022-01-12 09:59:26:152
0.9218,-0.0987,9.687,-0.0927,0.3325,9.8006,-0.1748,-0.0042,0.0682,0.0125,-0.0772,0.0668,29.33,9.38,-28.2,289.11,-1.94,0.54,48.843887,2.353319,91.4,NaN,,12.485,,0 / 30,,1373,2022-01-12 09:59:26:158
0.9218,-0.0987,9.687,-0.0927,0.3325,9.8006,-0.1748,-0.0042,0.0682,0.0125,-0.0772,0.0668,29.33,9.38,-28.2,289.11,-1.94,0.54,48.843887,2.353319,91.4,NaN,,12.485,,0 / 30,,1377,2022-01-12 09:59:26:162
0.9218,-0.0987,9.687,-0.0927,0.3325,9.8006,-0.1748,-0.0042,0.0682,0.0125,-0.0772,0.0668,29.33,9.38,-28.2,289.11,-1.94,0.54,48.843887,2.353319,91.4,NaN,,12.485,,0 / 30,,1382,2022-01-12 09:59:26:167
0.9218,-0.0987,9.687,-0.0927,0.3325,9.8006,-0.1748,-0.0042,0.0682,0.0125,-0.0772,0.0668,29.33,9.38,-28.2,289.11,-1.94,0.54,48.843887,2.353319,91.4,NaN,,12.485,,0 / 30,,1387,2022-01-12 09:59:26:172
0.9218,-0.0987,9.687,-0.0927,0.3325,9.8006,-0.1748,-0.0042,0.0682,0.0125,-0.0772,0.0668,29.33,9.38,-28.2,289.11,-1.94,0.54,48.843887,2.353319,91.4,NaN,,12.485,,0 / 30,,1393,2022-01-12 09:59:26:178
0.4223,0.1301,10.2559,-0.0927,0.3325,9.8006,-0.1748,-0.0042,0.0682,0.0125,-0.0772,0.0668,29.33,9.38,-28.2,289.11,-1.94,0.54,48.843887,2.353319,91.4,NaN,,12.485,,0 / 30,,1397,2022-01-12 09:59:26:182
0.4223,0.1301,10.2559,-0.0927,0.3325,9.8006,-0.1748,-0.0042,0.0682,0.0125,-0.0772,0.0668,29.33,9.38,-28.2,289.11,-1.94,0.54,48.843887,2.353319,91.4,NaN,,12.485,,0 / 30,,1403,2022-01-12 09:59:26:188
0.4223,0.1301,10.2559,-0.0927,0.3325,9.8006,-0.1748,-0.0042,0.0682,0.0125,-0.0772,0.0668,29.33,9.38,-28.2,289.11,-1.94,0.54,48.843887,2.353319,91.4,NaN,,12.485,,0 / 30,,1407,2022-01-12 09:59:26:192
0.4223,0.1301,10.2559,0.2975,0.2398,9.7992,0.0459,-0.1978,0.0784,-0.0043,-0.3366,0.0218,29.33,9.38,-28.2,289.11,-1.94,0.54,48.843887,2.353319,91.4,NaN,,12.485,,0 / 30,,1412,2022-01-12 09:59:26:197
0.4223,0.1301,10.2559,0.2975,0.2398,9.7992,0.0459,-0.1978,0.0784,-0.0043,-0.3366,0.0218,28.95,9.3,-28.5,287.97,-1.4,-1.74,48.843887,2.353319,91.4,NaN,,12.485,,0 / 30,,1417,2022-01-12 09:59:26:202
0.4223,0.1301,10.2559,0.2975,0.2398,9.7992,0.0459,-0.1978,0.0784,-0.0043,-0.3366,0.0218,28.95,9.3,-28.5,287.97,-1.4,-1.74,48.843887,2.353319,91.4,NaN,,12.485,,0 / 30,,1422,2022-01-12 09:59:26:207
0.4223,0.1301,10.2559,0.2975,0.2398,9.7992,0.0459,-0.1978,0.0784,-0.0043,-0.3366,0.0218,28.95,9.3,-28.5,287.97,-1.4,-1.74,48.843887,2.353319,91.4,NaN,,12.485,,0 / 30,,1427,2022-01-12 09:59:26:212
0.4223,0.1301,10.2559,0.2975,0.2398,9.7992,0.0459,-0.1978,0.0784,-0.0043,-0.3366,0.0218,28.95,9.3,-28.5,287.97,-1.4,-1.74,48.843887,2.353319,91.4,NaN,,12.485,,0 / 30,,1432,2022-01-12 09:59:26:217
0.4223,0.1301,10.2559,0.2975,0.2398,9.7992,0.0459,-0.1978,0.0784,-0.0043,-0.3366,0.0218,28.95,9.3,-28.5,287.97,-1.4,-1.74,48.843887,2.353319,91.4,NaN,,12.485,,0 / 30,,1437,2022-01-12 09:59:26:222
0.4223,0.1301,10.2559,0.2975,0.2398,9.7992,0.0459,-0.1978,0.0784,-0.0043,-0.3366,0.0218,28.95,9.3,-28.5,287.97,-1.4,-1.74,48.843887,2.353319,91.4,NaN,,12.485,,0 / 30,,1442,2022-01-12 09:59:26:227
0.4223,0.1301,10.2559,0.2975,0.2398,9.7992,0.0459,-0.1978,0.0784,-0.0043,-0.3366,0.0218,28.95,9.3,-28.5,287.97,-1.4,-1.74,48.843887,2.353319,91.4,NaN,,12.485,,0 / 30,,1448,2022-01-12 09:59:26:233
0.4223,0.1301,10.2559,0.2975,0.2398,9.7992,0.0459,-0.1978,0.0784,-0.0043,-0.3366,0.0218,28.95,9.3,-28.5,287.97,-1.4,-1.74,48.843887,2.353319,91.4,NaN,,12.485,,0 / 30,,1452,2022-01-12 09:59:26:237
0.4223,0.1301,10.2559,0.2975,0.2398,9.7992,0.0459,-0.1978,0.0784,-0.0043,-0.3366,0.0218,28.95,9.3,-28.5,287.97,-1.4,-1.74,48.843887,2.353319,91.4,NaN,,12.485,,0 / 30,,1457,2022-01-12 09:59:26:242
0.0679,0.7086,10.3433,0.2975,0.2398,9.7992,0.0459,-0.1978,0.0784,-0.0043,-0.3366,0.0218,28.95,9.3,-28.5,287.97,-1.4,-1.74,48.843887,2.353319,91.4,NaN,,12.485,,0 / 30,,1462,2022-01-12 09:59:26:247
0.0679,0.7086,10.3433,0.2975,0.2398,9.7992,0.0459,-0.1978,0.0784,-0.0043,-0.3366,0.0218,28.95,9.3,-28.5,287.97,-1.4,-1.74,48.843887,2.353319,91.4,NaN,,12.485,,0 / 30,,1467,2022-01-12 09:59:26:252
0.0679,0.7086,10.3433,0.2181,0.5766,9.7873,0.3684,-0.3525,0.9487,-0.0043,-0.3366,0.0218,28.95,9.3,-28.5,287.97,-1.4,-1.74,48.843887,2.353319,91.4,NaN,,12.485,,0 / 30,,1472,2022-01-12 09:59:26:257
0.0679,0.7086,10.3433,0.2181,0.5766,9.7873,0.3684,-0.3525,0.9487,-0.0043,-0.3366,0.0218,28.95,9.3,-28.5,287.97,-1.4,-1.74,48.843887,2.353319,91.4,NaN,,12.485,,0 / 30,,1477,2022-01-12 09:59:26:262
0.0679,0.7086,10.3433,0.2181,0.5766,9.7873,0.3684,-0.3525,0.9487,-0.0043,-0.3366,0.0218,28.95,9.3,-28.5,287.97,-1.4,-1.74,48.843887,2.353319,91.4,NaN,,12.485,,0 / 30,,1483,2022-01-12 09:59:26:268
0.0679,0.7086,10.3433,0.2181,0.5766,9.7873,0.3684,-0.3525,0.9487,-0.0043,-0.3366,0.0218,28.95,9.3,-28.5,287.97,-1.4,-1.74,48.843887,2.353319,91.4,NaN,,12.485,,0 / 30,,1487,2022-01-12 09:59:26:272
0.0679,0.7086,10.3433,0.2181,0.5766,9.7873,0.3684,-0.3525,0.9487,-0.0043,-0.3366,0.0218,28.95,9.3,-28.5,287.97,-1.4,-1.74,48.843887,2.353319,91.4,NaN,,12.485,,0 / 30,,1493,2022-01-12 09:59:26:278
0.0679,0.7086,10.3433,0.2181,0.5766,9.7873,0.3684,-0.3525,0.9487,-0.0043,-0.3366,0.0218,28.95,9.3,-28.5,287.97,-1.4,-1.74,48.843887,2.353319,91.4,NaN,,12.485,,0 / 30,,1497,2022-01-12 09:59:26:282
0.0679,0.7086,10.3433,0.2181,0.5766,9.7873,0.3684,-0.3525,0.9487,-0.0043,-0.3366,0.0218,28.95,9.3,-28.5,287.97,-1.4,-1.74,48.843887,2.353319,91.4,NaN,,12.485,,0 / 30,,1502,2022-01-12 09:59:26:287
0.0679,0.7086,10.3433,0.2181,0.5766,9.7873,0.3684,-0.3525,0.9487,-0.0043,-0.3366,0.0218,28.95,9.3,-28.5,287.97,-1.4,-1.74,48.843887,2.353319,91.4,NaN,,12.485,,0 / 30,,1507,2022-01-12 09:59:26:292
0.0679,0.7086,10.3433,0.2181,0.5766,9.7873,0.3684,-0.3525,0.9487,-0.0043,-0.3366,0.0218,28.95,9.3,-28.5,287.97,-1.4,-1.74,48.843887,2.353319,91.4,NaN,,12.485,,0 / 30,,1512,2022-01-12 09:59:26:297
0.6308,1.1013,10.7013,0.2181,0.5766,9.7873,0.3684,-0.3525,0.9487,-0.0043,-0.3366,0.0218,28.28,9.0,-28.72,290.4,-3.37,-1.28,48.843887,2.353319,91.4,NaN,,12.485,,0 / 30,,1518,2022-01-12 09:59:26:303
0.6308,1.1013,10.7013,0.2181,0.5766,9.7873,0.3684,-0.3525,0.9487,-0.0043,-0.3366,0.0218,28.28,9.0,-28.72,290.4,-3.37,-1.28,48.843887,2.353319,91.4,NaN,,12.485,,0 / 30,,1522,2022-01-12 09:59:26:307
0.6308,1.1013,10.7013,0.2181,0.5766,9.7873,0.3684,-0.3525,0.9487,-0.0043,-0.3366,0.0218,28.28,9.0,-28.72,290.4,-3.37,-1.28,48.843887,2.353319,91.4,NaN,,12.485,,0 / 30,,1528,2022-01-12 09:59:26:313
0.6308,1.1013,10.7013,0.2538,0.8588,9.7657,0.0103,-0.0151,0.413,0.5104,-0.0827,0.0246,28.28,9.0,-28.72,290.4,-3.37,-1.28,48.843887,2.353319,91.4,NaN,,12.485,,0 / 30,,1532,2022-01-12 09:59:26:317
0.6308,1.1013,10.7013,0.2538,0.8588,9.7657,0.0103,-0.0151,0.413,0.5104,-0.0827,0.0246,28.28,9.0,-28.72,290.4,-3.37,-1.28,48.843887,2.353319,91.4,NaN,,12.485,,0 / 30,,1538,2022-01-12 09:59:26:323
0.6308,1.1013,10.7013,0.2538,0.8588,9.7657,0.0103,-0.0151,0.413,0.5104,-0.0827,0.0246,28.28,9.0,-28.72,290.4,-3.37,-1.28,48.843887,2.353319,91.4,NaN,,12.485,,0 / 30,,1542,2022-01-12 09:59:26:327
0.6308,1.1013,10.7013,0.2538,0.8588,9.7657,0.0103,-0.0151,0.413,0.5104,-0.0827,0.0246,28.28,9.0,-28.72,290.4,-3.37,-1.28,48.843887,2.353319,91.4,NaN,,12.485,,0 / 30,,1547,2022-01-12 09:59:26:332
0.6308,1.1013,10.7013,0.2538,0.8588,9.7657,0.0103,-0.0151,0.413,0.5104,-0.0827,0.0246,28.28,9.0,-28.72,290.4,-3.37,-1.28,48.843887,2.353319,91.4,NaN,,12.485,,0 / 30,,1552,2022-01-12 09:59:26:337
0.6308,1.1013,10.7013,0.2538,0.8588,9.7657,0.0103,-0.0151,0.413,0.5104,-0.0827,0.0246,28.28,9.0,-28.72,290.4,-3.37,-1.28,48.843887,2.353319,91.4,NaN,,12.485,,0 / 30,,1557,2022-01-12 09:59:26:342
0.6308,1.1013,10.7013,0.2538,0.8588,9.7657,0.0103,-0.0151,0.413,0.5104,-0.0827,0.0246,28.28,9.0,-28.72,290.4,-3.37,-1.28,48.843887,2.353319,91.4,NaN,,12.485,,0 / 30,,1562,2022-01-12 09:59:26:347
0.6308,1.1013,10.7013,0.2538,0.8588,9.7657,0.0103,-0.0151,0.413,0.5104,-0.0827,0.0246,28.28,9.0,-28.72,290.4,-3.37,-1.28,48.843887,2.353319,91.4,NaN,,12.485,,0 / 30,,1567,2022-01-12 09:59:26:352
0.6308,1.1013,10.7013,0.2538,0.8588,9.7657,0.0103,-0.0151,0.413,0.5104,-0.0827,0.0246,28.28,9.0,-28.72,290.4,-3.37,-1.28,48.843887,2.353319,91.4,NaN,,12.485,,0 / 30,,1572,2022-01-12 09:59:26:357
0.6308,1.1013,10.7013,0.2538,0.8588,9.7657,0.0103,-0.0151,0.413,0.5104,-0.0827,0.0246,28.28,9.0,-28.72,290.4,-3.37,-1.28,48.843887,2.353319,91.4,NaN,,12.485,,0 / 30,,1577,2022-01-12 09:59:26:362
0.6308,1.1013,10.7013,0.2538,0.8588,9.7657,0.0103,-0.0151,0.413,0.5104,-0.0827,0.0246,28.28,9.0,-28.72,290.4,-3.37,-1.28,48.843887,2.353319,91.4,NaN,,12.485,,0 / 30,,1582,2022-01-12 09:59:26:367
0.6308,1.1013,10.7013,0.2538,0.8588,9.7657,0.0103,-0.0151,0.413,0.5104,-0.0827,0.0246,28.28,9.0,-28.72,290.4,-3.37,-1.28,48.843887,2.353319,91.4,NaN,,12.485,,0 / 30,,1588,2022-01-12 09:59:26:373
0.5818,2.1254,12.4765,0.2919,1.455,9.6937,0.3885,-0.0099,1.7412,0.5104,-0.0827,0.0246,28.28,9.0,-28.72,290.4,-3.37,-1.28,48.843887,2.353319,91.4,NaN,,12.485,,0 / 30,,1593,2022-01-12 09:59:26:378
0.5818,2.1254,12.4765,0.2919,1.455,9.6937,0.3885,-0.0099,1.7412,0.5104,-0.0827,0.0246,28.28,9.0,-28.72,290.4,-3.37,-1.28,48.843887,2.353319,91.4,NaN,,12.485,,0 / 30,,1600,2022-01-12 09:59:26:385
0.5818,2.1254,12.4765,0.2919,1.455,9.6937,0.3885,-0.0099,1.7412,0.5104,-0.0827,0.0246,28.28,9.0,-28.72,290.4,-3.37,-1.28,48.843887,2.353319,91.4,NaN,,12.485,,0 / 30,,1603,2022-01-12 09:59:26:388
0.5818,2.1254,12.4765,0.2919,1.455,9.6937,0.3885,-0.0099,1.7412,0.5104,-0.0827,0.0246,28.28,9.0,-28.72,290.4,-3.37,-1.28,48.843887,2.353319,91.4,NaN,,12.485,,0 / 30,,1607,2022-01-12 09:59:26:392
0.5818,2.1254,12.4765,0.2919,1.455,9.6937,0.3885,-0.0099,1.7412,0.5104,-0.0827,0.0246,28.28,9.0,-28.72,290.4,-3.37,-1.28,48.843887,2.353319,91.4,NaN,,12.485,,0 / 30,,1613,2022-01-12 09:59:26:398
0.5818,2.1254,12.4765,0.2919,1.455,9.6937,0.3885,-0.0099,1.7412,0.5104,-0.0827,0.0246,28.05,4.58,-33.15,288.53,-8.53,-1.73,48.843887,2.353319,91.4,NaN,,12.485,,0 / 30,,1617,2022-01-12 09:59:26:402
0.5818,2.1254,12.4765,0.2919,1.455,9.6937,0.3885,-0.0099,1.7412,0.5104,-0.0827,0.0246,28.05,4.58,-33.15,288.53,-8.53,-1.73,48.843887,2.353319,91.4,NaN,,12.485,,0 / 30,,1622,2022-01-12 09:59:26:407
0.5818,2.1254,12.4765,0.2919,1.455,9.6937,0.3885,-0.0099,1.7412,0.5104,-0.0827,0.0246,28.05,4.58,-33.15,288.53,-8.53,-1.73,48.843887,2.353319,91.4,NaN,,12.485,,0 / 30,,1627,2022-01-12 09:59:26:412
0.5818,2.1254,12.4765,0.2919,1.455,9.6937,0.3885,-0.0099,1.7412,0.5104,-0.0827,0.0246,28.05,4.58,-33.15,288.53,-8.53,-1.73,48.843887,2.353319,91.4,NaN,,12.485,,0 / 30,,1633,2022-01-12 09:59:26:418
0.5818,2.1254,12.4765,0.2919,1.455,9.6937,0.3885,-0.0099,1.7412,0.5104,-0.0827,0.0246,28.05,4.58,-33.15,288.53,-8.53,-1.73,48.843887,2.353319,91.4,NaN,,12.485,,0 / 30,,1637,2022-01-12 09:59:26:422
0.5818,2.1254,12.4765,0.2919,1.455,9.6937,0.3885,-0.0099,1.7412,0.5104,-0.0827,0.0246,28.05,4.58,-33.15,288.53,-8.53,-1.73,48.843887,2.353319,91.4,NaN,,12.485,,0 / 30,,1643,2022-01-12 09:59:26:428
0.5818,2.1254,12.4765,0.2919,1.455,9.6937,0.3885,-0.0099,1.7412,0.5104,-0.0827,0.0246,28.05,4.58,-33.15,288.53,-8.53,-1.73,48.843887,2.353319,91.4,NaN,,12.485,,0 / 30,,1648,2022-01-12 09:59:26:433
0.5818,2.1254,12.4765,0.2919,1.455,9.6937,0.3885,-0.0099,1.7412,0.5104,-0.0827,0.0246,28.05,4.58,-33.15,288.53,-8.53,-1.73,48.843887,2.353319,91.4,NaN,,12.485,,0 / 30,,1652,2022-01-12 09:59:26:437
1.3878,4.2084,12.4286,0.1927,2.3995,9.5066,0.2545,0.2652,2.8117,0.5104,-0.0827,0.0246,28.05,4.58,-33.15,288.53,-8.53,-1.73,48.843887,2.353319,91.4,NaN,,12.485,,0 / 30,,1657,2022-01-12 09:59:26:442
1.3878,4.2084,12.4286,0.1927,2.3995,9.5066,0.2545,0.2652,2.8117,1.8277,0.2505,-0.1763,28.05,4.58,-33.15,288.53,-8.53,-1.73,48.843887,2.353319,91.4,NaN,,12.485,,0 / 30,,1663,2022-01-12 09:59:26:448
1.3878,4.2084,12.4286,0.1927,2.3995,9.5066,0.2545,0.2652,2.8117,1.8277,0.2505,-0.1763,28.05,4.58,-33.15,288.53,-8.53,-1.73,48.843887,2.353319,91.4,NaN,,12.485,,0 / 30,,1668,2022-01-12 09:59:26:453
1.3878,4.2084,12.4286,0.1927,2.3995,9.5066,0.2545,0.2652,2.8117,1.8277,0.2505,-0.1763,28.05,4.58,-33.15,288.53,-8.53,-1.73,48.843887,2.353319,91.4,NaN,,12.485,,0 / 30,,1672,2022-01-12 09:59:26:457
1.3878,4.2084,12.4286,0.1927,2.3995,9.5066,0.2545,0.2652,2.8117,1.8277,0.2505,-0.1763,28.05,4.58,-33.15,288.53,-8.53,-1.73,48.843887,2.353319,91.4,NaN,,12.485,,0 / 30,,1678,2022-01-12 09:59:26:463
1.3878,4.2084,12.4286,0.1927,2.3995,9.5066,0.2545,0.2652,2.8117,1.8277,0.2505,-0.1763,28.05,4.58,-33.15,288.53,-8.53,-1.73,48.843887,2.353319,91.4,NaN,,12.485,,0 / 30,,1683,2022-01-12 09:59:26:468
1.3878,4.2084,12.4286,0.1927,2.3995,9.5066,0.2545,0.2652,2.8117,1.8277,0.2505,-0.1763,28.05,4.58,-33.15,288.53,-8.53,-1.73,48.843887,2.353319,91.4,NaN,,12.485,,0 / 30,,1688,2022-01-12 09:59:26:473
1.3878,4.2084,12.4286,0.1927,2.3995,9.5066,0.2545,0.2652,2.8117,1.8277,0.2505,-0.1763,28.05,4.58,-33.15,288.53,-8.53,-1.73,48.843887,2.353319,91.4,NaN,,12.485,,0 / 30,,1692,2022-01-12 09:59:26:477
1.3878,4.2084,12.4286,0.1927,2.3995,9.5066,0.2545,0.2652,2.8117,1.8277,0.2505,-0.1763,28.05,4.58,-33.15,288.53,-8.53,-1.73,48.843887,2.353319,91.4,NaN,,12.485,,0 / 30,,1698,2022-01-12 09:59:26:483
1.3878,4.2084,12.4286,0.1927,2.3995,9.5066,0.2545,0.2652,2.8117,1.8277,0.2505,-0.1763,28.05,4.58,-33.15,288.53,-8.53,-1.73,48.843887,2.353319,91.4,NaN,,12.485,,0 / 30,,1702,2022-01-12 09:59:26:487
1.3878,4.2084,12.4286,0.1927,2.3995,9.5066,0.2545,0.2652,2.8117,1.8277,0.2505,-0.1763,28.05,4.58,-33.15,288.53,-8.53,-1.73,48.843887,2.353319,91.4,NaN,,12.485,,0 / 30,,1708,2022-01-12 09:59:26:493
0.1205,5.0348,12.6562,0.1927,2.3995,9.5066,0.2545,0.2652,2.8117,1.8277,0.2505,-0.1763,27.9,2.33,-33.15,289.01,-14.16,-1.16,48.843887,2.353319,91.4,NaN,,12.485,,0 / 30,,1713,2022-01-12 09:59:26:498
0.1205,5.0348,12.6562,0.1927,2.3995,9.5066,0.2545,0.2652,2.8117,1.8277,0.2505,-0.1763,27.9,2.33,-33.15,289.01,-14.16,-1.16,48.843887,2.353319,91.4,NaN,,12.485,,0 / 30,,1719,2022-01-12 09:59:26:504
0.1205,5.0348,12.6562,-0.1151,3.6856,9.087,1.1092,0.5407,3.3129,1.8277,0.2505,-0.1763,27.9,2.33,-33.15,289.01,-14.16,-1.16,48.843887,2.353319,91.4,NaN,,12.485,,0 / 30,,1722,2022-01-12 09:59:26:507
0.1205,5.0348,12.6562,-0.1151,3.6856,9.087,1.1092,0.5407,3.3129,1.8277,0.2505,-0.1763,27.9,2.33,-33.15,289.01,-14.16,-1.16,48.843887,2.353319,91.4,NaN,,12.485,,0 / 30,,1728,2022-01-12 09:59:26:513
0.1205,5.0348,12.6562,-0.1151,3.6856,9.087,1.1092,0.5407,3.3129,1.8277,0.2505,-0.1763,27.9,2.33,-33.15,289.01,-14.16,-1.16,48.843887,2.353319,91.4,NaN,,12.485,,0 / 30,,1733,2022-01-12 09:59:26:518
0.1205,5.0348,12.6562,-0.1151,3.6856,9.087,1.1092,0.5407,3.3129,1.8277,0.2505,-0.1763,27.9,2.33,-33.15,289.01,-14.16,-1.16,48.843887,2.353319,91.4,NaN,,12.485,,0 / 30,,1737,2022-01-12 09:59:26:522
0.1205,5.0348,12.6562,-0.1151,3.6856,9.087,1.1092,0.5407,3.3129,1.8277,0.2505,-0.1763,27.9,2.33,-33.15,289.01,-14.16,-1.16,48.843887,2.353319,91.4,NaN,,12.485,,0 / 30,,1743,2022-01-12 09:59:26:528
0.1205,5.0348,12.6562,-0.1151,3.6856,9.087,1.1092,0.5407,3.3129,1.8277,0.2505,-0.1763,27.9,2.33,-33.15,289.01,-14.16,-1.16,48.843887,2.353319,91.4,NaN,,12.485,,0 / 30,,1748,2022-01-12 09:59:26:533
0.1205,5.0348,12.6562,-0.1151,3.6856,9.087,1.1092,0.5407,3.3129,1.8277,0.2505,-0.1763,27.9,2.33,-33.15,289.01,-14.16,-1.16,48.843887,2.353319,91.4,NaN,,12.485,,0 / 30,,1752,2022-01-12 09:59:26:537
0.1205,5.0348,12.6562,-0.1151,3.6856,9.087,1.1092,0.5407,3.3129,1.8277,0.2505,-0.1763,27.9,2.33,-33.15,289.01,-14.16,-1.16,48.843887,2.353319,91.4,NaN,,12.485,,0 / 30,,1757,2022-01-12 09:59:26:542
0.1205,5.0348,12.6562,-0.1151,3.6856,9.087,1.1092,0.5407,3.3129,1.8277,0.2505,-0.1763,27.9,2.33,-33.15,289.01,-14.16,-1.16,48.843887,2.353319,91.4,NaN,,12.485,,0 / 30,,1763,2022-01-12 09:59:26:548
0.1205,5.0348,12.6562,-0.1151,3.6856,9.087,1.1092,0.5407,3.3129,1.8277,0.2505,-0.1763,27.9,2.33,-33.15,289.01,-14.16,-1.16,48.843887,2.353319,91.4,NaN,,12.485,,0 / 30,,1767,2022-01-12 09:59:26:552
0.1205,5.0348,12.6562,-0.1151,3.6856,9.087,1.1092,0.5407,3.3129,1.8277,0.2505,-0.1763,27.9,2.33,-33.15,289.01,-14.16,-1.16,48.843887,2.353319,91.4,NaN,,12.485,,0 / 30,,1773,2022-01-12 09:59:26:558
0.1205,5.0348,12.6562,-0.1151,3.6856,9.087,1.1092,0.5407,3.3129,1.8277,0.2505,-0.1763,27.9,2.33,-33.15,289.01,-14.16,-1.16,48.843887,2.353319,91.4,NaN,,12.485,,0 / 30,,1777,2022-01-12 09:59:26:562
0.1205,5.0348,12.6562,-0.1151,3.6856,9.087,1.1092,0.5407,3.3129,1.8277,0.2505,-0.1763,27.9,2.33,-33.15,289.01,-14.16,-1.16,48.843887,2.353319,91.4,NaN,,12.485,,0 / 30,,1783,2022-01-12 09:59:26:568
0.3529,5.4948,13.2634,-0.6365,5.3033,8.2244,0.4399,-0.0099,4.3381,1.8277,0.2505,-0.1763,27.9,2.33,-33.15,289.01,-14.16,-1.16,48.843887,2.353319,91.4,NaN,,12.485,,0 / 30,,1788,2022-01-12 09:59:26:573
0.3529,5.4948,13.2634,-0.6365,5.3033,8.2244,0.4399,-0.0099,4.3381,1.8277,0.2505,-0.1763,27.9,2.33,-33.15,289.01,-14.16,-1.16,48.843887,2.353319,91.4,NaN,,12.485,,0 / 30,,1793,2022-01-12 09:59:26:578
0.3529,5.4948,13.2634,-0.6365,5.3033,8.2244,0.4399,-0.0099,4.3381,3.6576,0.6027,-0.1792,27.9,2.33,-33.15,289.01,-14.16,-1.16,48.843887,2.353319,91.4,NaN,,12.485,,0 / 30,,1800,2022-01-12 09:59:26:585
0.3529,5.4948,13.2634,-0.6365,5.3033,8.2244,0.4399,-0.0099,4.3381,3.6576,0.6027,-0.1792,27.9,2.33,-33.15,289.01,-14.16,-1.16,48.843887,2.353319,91.4,NaN,,12.485,,0 / 30,,1803,2022-01-12 09:59:26:588
0.3529,5.4948,13.2634,-0.6365,5.3033,8.2244,0.4399,-0.0099,4.3381,3.6576,0.6027,-0.1792,27.9,2.33,-33.15,289.01,-14.16,-1.16,48.843887,2.353319,91.4,NaN,,12.485,,0 / 30,,1808,2022-01-12 09:59:26:593
0.3529,5.4948,13.2634,-0.6365,5.3033,8.2244,0.4399,-0.0099,4.3381,3.6576,0.6027,-0.1792,27.9,2.33,-33.15,289.01,-14.16,-1.16,48.843887,2.353319,91.4,NaN,,12.485,,0 / 30,,1812,2022-01-12 09:59:26:597
0.3529,5.4948,13.2634,-0.6365,5.3033,8.2244,0.4399,-0.0099,4.3381,3.6576,0.6027,-0.1792,28.43,-0.08,-32.48,305.9,-32.74,4.43,48.843887,2.353319,91.4,NaN,,12.485,,0 / 30,,1817,2022-01-12 09:59:26:602
0.3529,5.4948,13.2634,-0.6365,5.3033,8.2244,0.4399,-0.0099,4.3381,3.6576,0.6027,-0.1792,28.43,-0.08,-32.48,305.9,-32.74,4.43,48.843887,2.353319,91.4,NaN,,12.485,,0 / 30,,1823,2022-01-12 09:59:26:608
0.3529,5.4948,13.2634,-0.6365,5.3033,8.2244,0.4399,-0.0099,4.3381,3.6576,0.6027,-0.1792,28.43,-0.08,-32.48,305.9,-32.74,4.43,48.843887,2.353319,91.4,NaN,,12.485,,0 / 30,,1828,2022-01-12 09:59:26:613
0.3529,5.4948,13.2634,-0.6365,5.3033,8.2244,0.4399,-0.0099,4.3381,3.6576,0.6027,-0.1792,28.43,-0.08,-32.48,305.9,-32.74,4.43,48.843887,2.353319,91.4,NaN,,12.485,,0 / 30,,1832,2022-01-12 09:59:26:617
0.3529,5.4948,13.2634,-0.6365,5.3033,8.2244,0.4399,-0.0099,4.3381,3.6576,0.6027,-0.1792,28.43,-0.08,-32.48,305.9,-32.74,4.43,48.843887,2.353319,91.4,NaN,,12.485,,0 / 30,,1837,2022-01-12 09:59:26:622
0.3529,5.4948,13.2634,-0.6365,5.3033,8.2244,0.4399,-0.0099,4.3381,3.6576,0.6027,-0.1792,28.43,-0.08,-32.48,305.9,-32.74,4.43,48.843887,2.353319,91.4,NaN,,12.485,,0 / 30,,1843,2022-01-12 09:59:26:628
0.3529,5.4948,13.2634,-0.6365,5.3033,8.2244,0.4399,-0.0099,4.3381,3.6576,0.6027,-0.1792,28.43,-0.08,-32.48,305.9,-32.74,4.43,48.843887,2.353319,91.4,NaN,,12.485,,0 / 30,,1847,2022-01-12 09:59:26:632
0.3529,5.4948,13.2634,-0.6365,5.3033,8.2244,0.4399,-0.0099,4.3381,3.6576,0.6027,-0.1792,28.43,-0.08,-32.48,305.9,-32.74,4.43,48.843887,2.353319,91.4,NaN,,12.485,,0 / 30,,1852,2022-01-12 09:59:26:637
0.3529,5.4948,13.2634,-0.6365,5.3033,8.2244,0.4399,-0.0099,4.3381,3.6576,0.6027,-0.1792,28.43,-0.08,-32.48,305.9,-32.74,4.43,48.843887,2.353319,91.4,NaN,,12.485,,0 / 30,,1858,2022-01-12 09:59:26:643
-0.422,6.2216,7.4578,-0.6365,5.3033,8.2244,0.4399,-0.0099,4.3381,3.6576,0.6027,-0.1792,28.43,-0.08,-32.48,305.9,-32.74,4.43,48.843887,2.353319,91.4,NaN,,12.485,,0 / 30,,1862,2022-01-12 09:59:26:647
-0.422,6.2216,7.4578,-0.6365,5.3033,8.2244,0.4399,-0.0099,4.3381,3.6576,0.6027,-0.1792,28.43,-0.08,-32.48,305.9,-32.74,4.43,48.843887,2.353319,91.4,NaN,,12.485,,0 / 30,,1868,2022-01-12 09:59:26:653
-0.422,6.2216,7.4578,-0.6365,5.3033,8.2244,0.4399,-0.0099,4.3381,3.6576,0.6027,-0.1792,28.43,-0.08,-32.48,305.9,-32.74,4.43,48.843887,2.353319,91.4,NaN,,12.485,,0 / 30,,1874,2022-01-12 09:59:26:659
-0.422,6.2216,7.4578,-0.6365,5.3033,8.2244,0.4399,-0.0099,4.3381,3.6576,0.6027,-0.1792,28.43,-0.08,-32.48,305.9,-32.74,4.43,48.843887,2.353319,91.4,NaN,,12.485,,0 / 30,,1878,2022-01-12 09:59:26:663
-0.422,6.2216,7.4578,-0.6365,5.3033,8.2244,0.4399,-0.0099,4.3381,4.3235,0.6149,-0.0348,28.43,-0.08,-32.48,305.9,-32.74,4.43,48.843887,2.353319,91.4,NaN,,12.485,,0 / 30,,1883,2022-01-12 09:59:26:668
-0.422,6.2216,7.4578,-0.6365,5.3033,8.2244,0.4399,-0.0099,4.3381,4.3235,0.6149,-0.0348,28.43,-0.08,-32.48,305.9,-32.74,4.43,48.843887,2.353319,91.4,NaN,,12.485,,0 / 30,,1888,2022-01-12 09:59:26:673
-0.422,6.2216,7.4578,-0.6365,5.3033,8.2244,0.4399,-0.0099,4.3381,4.3235,0.6149,-0.0348,28.43,-0.08,-32.48,305.9,-32.74,4.43,48.843887,2.353319,91.4,NaN,,12.485,,0 / 30,,1893,2022-01-12 09:59:26:678
-0.422,6.2216,7.4578,-0.6365,5.3033,8.2244,0.4399,-0.0099,4.3381,4.3235,0.6149,-0.0348,28.43,-0.08,-32.48,305.9,-32.74,4.43,48.843887,2.353319,91.4,NaN,,12.485,,0 / 30,,1898,2022-01-12 09:59:26:683
-0.422,6.2216,7.4578,-1.078,8.5531,4.6747,0.2192,-2.7488,4.9478,4.3235,0.6149,-0.0348,28.43,-0.08,-32.48,305.9,-32.74,4.43,48.843887,2.353319,91.4,NaN,,12.485,,0 / 30,,1903,2022-01-12 09:59:26:688
-0.422,6.2216,7.4578,-1.078,8.5531,4.6747,0.2192,-2.7488,4.9478,4.3235,0.6149,-0.0348,28.43,-0.08,-32.48,305.9,-32.74,4.43,48.843887,2.353319,91.4,NaN,,12.485,,0 / 30,,1907,2022-01-12 09:59:26:692
-0.422,6.2216,7.4578,-1.078,8.5531,4.6747,0.2192,-2.7488,4.9478,4.3235,0.6149,-0.0348,28.43,-0.08,-32.48,305.9,-32.74,4.43,48.843887,2.353319,91.4,NaN,,12.485,,0 / 30,,1912,2022-01-12 09:59:26:697
-0.422,6.2216,7.4578,-1.078,8.5531,4.6747,0.2192,-2.7488,4.9478,4.3235,0.6149,-0.0348,30.53,-6.52,-27.38,316.68,-60.71,12.99,48.843887,2.353319,91.4,NaN,,12.485,,0 / 30,,1917,2022-01-12 09:59:26:702
-0.422,6.2216,7.4578,-1.078,8.5531,4.6747,0.2192,-2.7488,4.9478,4.3235,0.6149,-0.0348,30.53,-6.52,-27.38,316.68,-60.71,12.99,48.843887,2.353319,91.4,NaN,,12.485,,0 / 30,,1923,2022-01-12 09:59:26:708
-0.422,6.2216,7.4578,-1.078,8.5531,4.6747,0.2192,-2.7488,4.9478,4.3235,0.6149,-0.0348,30.53,-6.52,-27.38,316.68,-60.71,12.99,48.843887,2.353319,91.4,NaN,,12.485,,0 / 30,,1927,2022-01-12 09:59:26:712
-1.0926,7.4327,3.5043,-1.078,8.5531,4.6747,0.2192,-2.7488,4.9478,4.3235,0.6149,-0.0348,30.53,-6.52,-27.38,316.68,-60.71,12.99,48.843887,2.353319,91.4,NaN,,12.485,,0 / 30,,1932,2022-01-12 09:59:26:717
-1.0926,7.4327,3.5043,-1.078,8.5531,4.6747,0.2192,-2.7488,4.9478,4.3235,0.6149,-0.0348,30.53,-6.52,-27.38,316.68,-60.71,12.99,48.843887,2.353319,91.4,NaN,,12.485,,0 / 30,,1938,2022-01-12 09:59:26:723
-1.0926,7.4327,3.5043,-1.078,8.5531,4.6747,0.2192,-2.7488,4.9478,4.3235,0.6149,-0.0348,30.53,-6.52,-27.38,316.68,-60.71,12.99,48.843887,2.353319,91.4,NaN,,12.485,,0 / 30,,1942,2022-01-12 09:59:26:727
-1.0926,7.4327,3.5043,-1.078,8.5531,4.6747,0.2192,-2.7488,4.9478,4.3235,0.6149,-0.0348,30.53,-6.52,-27.38,316.68,-60.71,12.99,48.843887,2.353319,91.4,NaN,,12.485,,0 / 30,,1948,2022-01-12 09:59:26:733
-1.0926,7.4327,3.5043,-1.078,8.5531,4.6747,0.2192,-2.7488,4.9478,4.3235,0.6149,-0.0348,30.53,-6.52,-27.38,316.68,-60.71,12.99,48.843887,2.353319,91.4,NaN,,12.485,,0 / 30,,1953,2022-01-12 09:59:26:738
-1.0926,7.4327,3.5043,-1.078,8.5531,4.6747,0.2192,-2.7488,4.9478,4.3235,0.6149,-0.0348,30.53,-6.52,-27.38,316.68,-60.71,12.99,48.843887,2.353319,91.4,NaN,,12.485,,0 / 30,,1958,2022-01-12 09:59:26:743
-1.0926,7.4327,3.5043,-1.078,8.5531,4.6747,0.2192,-2.7488,4.9478,4.3235,0.6149,-0.0348,30.53,-6.52,-27.38,316.68,-60.71,12.99,48.843887,2.353319,91.4,NaN,,12.485,,0 / 30,,1964,2022-01-12 09:59:26:749
-1.0926,7.4327,3.5043,-0.8558,9.3809,2.7271,-0.4675,-3.019,3.7713,4.3235,0.6149,-0.0348,30.53,-6.52,-27.38,316.68,-60.71,12.99,48.843887,2.353319,91.4,NaN,,12.485,,0 / 30,,1969,2022-01-12 09:59:26:754
-1.0926,7.4327,3.5043,-0.8558,9.3809,2.7271,-0.4675,-3.019,3.7713,4.3235,0.6149,-0.0348,30.53,-6.52,-27.38,316.68,-60.71,12.99,48.843887,2.353319,91.4,NaN,,12.485,,0 / 30,,1972,2022-01-12 09:59:26:757
-1.0926,7.4327,3.5043,-0.8558,9.3809,2.7271,-0.4675,-3.019,3.7713,4.3235,0.6149,-0.0348,30.53,-6.52,-27.38,316.68,-60.71,12.99,48.843887,2.353319,91.4,NaN,,12.485,,0 / 30,,1977,2022-01-12 09:59:26:762
-1.0926,7.4327,3.5043,-0.8558,9.3809,2.7271,-0.4675,-3.019,3.7713,4.3235,0.6149,-0.0348,30.53,-6.52,-27.38,316.68,-60.71,12.99,48.843887,2.353319,91.4,NaN,,12.485,,0 / 30,,1983,2022-01-12 09:59:26:768
-1.0926,7.4327,3.5043,-0.8558,9.3809,2.7271,-0.4675,-3.019,3.7713,4.3235,0.6149,-0.0348,30.53,-6.52,-27.38,316.68,-60.71,12.99,48.843887,2.353319,91.4,NaN,,12.485,,0 / 30,,1988,2022-01-12 09:59:26:773
-1.0926,7.4327,3.5043,-0.8558,9.3809,2.7271,-0.4675,-3.019,3.7713,4.3235,0.6149,-0.0348,30.53,-6.52,-27.38,316.68,-60.71,12.99,48.843887,2.353319,91.4,NaN,,12.485,,0 / 30,,1993,2022-01-12 09:59:26:778
-1.4844,6.5453,3.3951,-0.8558,9.3809,2.7271,-0.4675,-3.019,3.7713,4.3235,0.6149,-0.0348,30.53,-6.52,-27.38,316.68,-60.71,12.99,48.843887,2.353319,91.4,NaN,,12.485,,0 / 30,,1998,2022-01-12 09:59:26:783
-1.4844,6.5453,3.3951,-0.8558,9.3809,2.7271,-0.4675,-3.019,3.7713,4.3235,0.6149,-0.0348,30.53,-6.52,-27.38,316.68,-60.71,12.99,48.843887,2.353319,91.4,NaN,,12.485,,0 / 30,,2003,2022-01-12 09:59:26:788
-1.4844,6.5453,3.3951,-0.8558,9.3809,2.7271,-0.4675,-3.019,3.7713,2.9661,-0.2923,0.4297,30.53,-6.52,-27.38,316.68,-60.71,12.99,48.843887,2.353319,91.4,NaN,,12.485,,0 / 30,,2009,2022-01-12 09:59:26:794
-1.4844,6.5453,3.3951,-0.8558,9.3809,2.7271,-0.4675,-3.019,3.7713,2.9661,-0.2923,0.4297,30.53,-6.52,-27.38,316.68,-60.71,12.99,48.843887,2.353319,91.4,NaN,,12.485,,0 / 30,,2012,2022-01-12 09:59:26:797
-1.4844,6.5453,3.3951,-0.8558,9.3809,2.7271,-0.4675,-3.019,3.7713,2.9661,-0.2923,0.4297,30.53,-6.52,-27.38,316.68,-60.71,12.99,48.843887,2.353319,91.4,NaN,,12.485,,0 / 30,,2017,2022-01-12 09:59:26:802
-1.4844,6.5453,3.3951,-0.8558,9.3809,2.7271,-0.4675,-3.019,3.7713,2.9661,-0.2923,0.4297,31.43,-5.1,-23.47,321.39,-73.05,17.42,48.843887,2.353319,91.4,NaN,,12.485,,0 / 30,,2023,2022-01-12 09:59:26:808
-1.4844,6.5453,3.3951,-0.8558,9.3809,2.7271,-0.4675,-3.019,3.7713,2.9661,-0.2923,0.4297,31.43,-5.1,-23.47,321.39,-73.05,17.42,48.843887,2.353319,91.4,NaN,,12.485,,0 / 30,,2028,2022-01-12 09:59:26:813
-1.4844,6.5453,3.3951,-0.5678,9.7307,1.078,-0.3803,-2.4011,2.028,2.9661,-0.2923,0.4297,31.43,-5.1,-23.47,321.39,-73.05,17.42,48.843887,2.353319,91.4,NaN,,12.485,,0 / 30,,2032,2022-01-12 09:59:26:817
-1.4844,6.5453,3.3951,-0.5678,9.7307,1.078,-0.3803,-2.4011,2.028,2.9661,-0.2923,0.4297,31.43,-5.1,-23.47,321.39,-73.05,17.42,48.843887,2.353319,91.4,NaN,,12.485,,0 / 30,,2037,2022-01-12 09:59:26:822
-1.4844,6.5453,3.3951,-0.5678,9.7307,1.078,-0.3803,-2.4011,2.028,2.9661,-0.2923,0.4297,31.43,-5.1,-23.47,321.39,-73.05,17.42,48.843887,2.353319,91.4,NaN,,12.485,,0 / 30,,2043,2022-01-12 09:59:26:828
-1.4844,6.5453,3.3951,-0.5678,9.7307,1.078,-0.3803,-2.4011,2.028,2.9661,-0.2923,0.4297,31.43,-5.1,-23.47,321.39,-73.05,17.42,48.843887,2.353319,91.4,NaN,,12.485,,0 / 30,,2047,2022-01-12 09:59:26:832
-1.4844,6.5453,3.3951,-0.5678,9.7307,1.078,-0.3803,-2.4011,2.028,2.9661,-0.2923,0.4297,31.43,-5.1,-23.47,321.39,-73.05,17.42,48.843887,2.353319,91.4,NaN,,12.485,,0 / 30,,2053,2022-01-12 09:59:26:838
-1.4844,6.5453,3.3951,-0.5678,9.7307,1.078,-0.3803,-2.4011,2.028,2.9661,-0.2923,0.4297,31.43,-5.1,-23.47,321.39,-73.05,17.42,48.843887,2.353319,91.4,NaN,,12.485,,0 / 30,,2058,2022-01-12 09:59:26:843
-1.4844,6.5453,3.3951,-0.5678,9.7307,1.078,-0.3803,-2.4011,2.028,2.9661,-0.2923,0.4297,31.43,-5.1,-23.47,321.39,-73.05,17.42,48.843887,2.353319,91.4,NaN,,12.485,,0 / 30,,2062,2022-01-12 09:59:26:847
-1.2353,4.576,-0.8136,-0.5678,9.7307,1.078,-0.3803,-2.4011,2.028,2.9661,-0.2923,0.4297,31.43,-5.1,-23.47,321.39,-73.05,17.42,48.843887,2.353319,91.4,NaN,,12.485,,0 / 30,,2068,2022-01-12 09:59:26:853
-1.2353,4.576,-0.8136,-0.5678,9.7307,1.078,-0.3803,-2.4011,2.028,2.9661,-0.2923,0.4297,31.43,-5.1,-23.47,321.39,-73.05,17.42,48.843887,2.353319,91.4,NaN,,12.485,,0 / 30,,2072,2022-01-12 09:59:26:857
-1.2353,4.576,-0.8136,-0.5678,9.7307,1.078,-0.3803,-2.4011,2.028,2.9661,-0.2923,0.4297,31.43,-5.1,-23.47,321.39,-73.05,17.42,48.843887,2.353319,91.4,NaN,,12.485,,0 / 30,,2077,2022-01-12 09:59:26:862
-1.2353,4.576,-0.8136,-0.5678,9.7307,1.078,-0.3803,-2.4011,2.028,2.9661,-0.2923,0.4297,31.43,-5.1,-23.47,321.39,-73.05,17.42,48.843887,2.353319,91.4,NaN,,12.485,,0 / 30,,2082,2022-01-12 09:59:26:867
-1.2353,4.576,-0.8136,-0.5678,9.7307,1.078,-0.3803,-2.4011,2.028,2.9661,-0.2923,0.4297,31.43,-5.1,-23.47,321.39,-73.05,17.42,48.843887,2.353319,91.4,NaN,,12.485,,0 / 30,,2087,2022-01-12 09:59:26:872
-1.2353,4.576,-0.8136,-0.5678,9.7307,1.078,-0.3803,-2.4011,2.028,2.9661,-0.2923,0.4297,31.43,-5.1,-23.47,321.39,-73.05,17.42,48.843887,2.353319,91.4,NaN,,12.485,,0 / 30,,2092,2022-01-12 09:59:26:877
-1.2353,4.576,-0.8136,-0.5678,9.7307,1.078,-0.3803,-2.4011,2.028,2.9661,-0.2923,0.4297,31.43,-5.1,-23.47,321.39,-73.05,17.42,48.843887,2.353319,91.4,NaN,,12.485,,0 / 30,,2098,2022-01-12 09:59:26:883
-1.2353,4.576,-0.8136,-0.5678,9.7307,1.078,-0.3803,-2.4011,2.028,2.9661,-0.2923,0.4297,31.43,-5.1,-23.47,321.39,-73.05,17.42,48.843887,2.353319,91.4,NaN,,12.485,,0 / 30,,2102,2022-01-12 09:59:26:887
-1.2353,4.576,-0.8136,-0.5678,9.7307,1.078,-0.3803,-2.4011,2.028,2.9661,-0.2923,0.4297,31.43,-5.1,-23.47,321.39,-73.05,17.42,48.843887,2.353319,91.4,NaN,,12.485,,0 / 30,,2107,2022-01-12 09:59:26:892
-1.2353,4.576,-0.8136,-0.5678,9.7307,1.078,-0.3803,-2.4011,2.028,2.9661,-0.2923,0.4297,31.43,-5.1,-23.47,321.39,-73.05,17.42,48.843887,2.353319,91.4,NaN,,12.485,,0 / 30,,2113,2022-01-12 09:59:26:898
-1.2353,4.576,-0.8136,-0.5678,9.7307,1.078,-0.3803,-2.4011,2.028,2.9661,-0.2923,0.4297,26.48,-14.4,-8.48,311.92,-82.86,27.78,48.843887,2.353319,91.4,NaN,,12.485,,0 / 30,,2117,2022-01-12 09:59:26:902
-1.2353,4.576,-0.8136,-0.5678,9.7307,1.078,-0.3803,-2.4011,2.028,2.9661,-0.2923,0.4297,26.48,-14.4,-8.48,311.92,-82.86,27.78,48.843887,2.353319,91.4,NaN,,12.485,,0 / 30,,2123,2022-01-12 09:59:26:908
-1.2353,4.576,-0.8136,-0.5678,9.7307,1.078,-0.3803,-2.4011,2.028,2.9661,-0.2923,0.4297,26.48,-14.4,-8.48,311.92,-82.86,27.78,48.843887,2.353319,91.4,NaN,,12.485,,0 / 30,,2127,2022-01-12 09:59:26:912
-0.283,3.7208,-4.8057,-0.5678,9.7307,1.078,-0.3803,-2.4011,2.028,0.872,0.0718,0.4694,26.48,-14.4,-8.48,311.92,-82.86,27.78,48.843887,2.353319,91.4,NaN,,12.485,,0 / 30,,2132,2022-01-12 09:59:26:917
-0.283,3.7208,-4.8057,-0.5678,9.7307,1.078,-0.3803,-2.4011,2.028,0.872,0.0718,0.4694,26.48,-14.4,-8.48,311.92,-82.86,27.78,48.843887,2.353319,91.4,NaN,,12.485,,0 / 30,,2138,2022-01-12 09:59:26:923
-0.283,3.7208,-4.8057,-0.5678,9.7307,1.078,-0.3803,-2.4011,2.028,0.872,0.0718,0.4694,26.48,-14.4,-8.48,311.92,-82.86,27.78,48.843887,2.353319,91.4,NaN,,12.485,,0 / 30,,2143,2022-01-12 09:59:26:928
-0.283,3.7208,-4.8057,-0.5678,9.7307,1.078,-0.3803,-2.4011,2.028,0.872,0.0718,0.4694,26.48,-14.4,-8.48,311.92,-82.86,27.78,48.843887,2.353319,91.4,NaN,,12.485,,0 / 30,,2152,2022-01-12 09:59:26:937
-0.283,3.7208,-4.8057,-0.5678,9.7307,1.078,-0.3803,-2.4011,2.028,0.872,0.0718,0.4694,26.48,-14.4,-8.48,311.92,-82.86,27.78,48.843887,2.353319,91.4,NaN,,12.485,,0 / 30,,2154,2022-01-12 09:59:26:939
-0.283,3.7208,-4.8057,-0.5678,9.7307,1.078,-0.3803,-2.4011,2.028,0.872,0.0718,0.4694,26.48,-14.4,-8.48,311.92,-82.86,27.78,48.843887,2.353319,91.4,NaN,,12.485,,0 / 30,,2157,2022-01-12 09:59:26:942
-0.283,3.7208,-4.8057,0.0985,9.7829,-0.6756,-0.8753,-5.7243,-1.5225,0.872,0.0718,0.4694,26.48,-14.4,-8.48,311.92,-82.86,27.78,48.843887,2.353319,91.4,NaN,,12.485,,0 / 30,,2164,2022-01-12 09:59:26:949
-0.283,3.7208,-4.8057,0.0985,9.7829,-0.6756,-0.8753,-5.7243,-1.5225,0.872,0.0718,0.4694,26.48,-14.4,-8.48,311.92,-82.86,27.78,48.843887,2.353319,91.4,NaN,,12.485,,0 / 30,,2168,2022-01-12 09:59:26:953
-0.283,3.7208,-4.8057,0.0985,9.7829,-0.6756,-0.8753,-5.7243,-1.5225,0.872,0.0718,0.4694,26.48,-14.4,-8.48,311.92,-82.86,27.78,48.843887,2.353319,91.4,NaN,,12.485,,0 / 30,,2173,2022-01-12 09:59:26:958
-0.283,3.7208,-4.8057,0.0985,9.7829,-0.6756,-0.8753,-5.7243,-1.5225,0.872,0.0718,0.4694,26.48,-14.4,-8.48,311.92,-82.86,27.78,48.843887,2.353319,91.4,NaN,,12.485,,0 / 30,,2177,2022-01-12 09:59:26:962
-0.283,3.7208,-4.8057,0.0985,9.7829,-0.6756,-0.8753,-5.7243,-1.5225,0.872,0.0718,0.4694,26.48,-14.4,-8.48,311.92,-82.86,27.78,48.843887,2.353319,91.4,NaN,,12.485,,0 / 30,,2182,2022-01-12 09:59:26:967
-0.283,3.7208,-4.8057,0.0985,9.7829,-0.6756,-0.8753,-5.7243,-1.5225,0.872,0.0718,0.4694,26.48,-14.4,-8.48,311.92,-82.86,27.78,48.843887,2.353319,91.4,NaN,,12.485,,0 / 30,,2188,2022-01-12 09:59:26:973
-0.283,3.7208,-4.8057,0.0985,9.7829,-0.6756,-0.8753,-5.7243,-1.5225,0.872,0.0718,0.4694,26.48,-14.4,-8.48,311.92,-82.86,27.78,48.843887,2.353319,91.4,NaN,,12.485,,0 / 30,,2193,2022-01-12 09:59:26:978
0.6823,5.5582,-1.7456,0.0985,9.7829,-0.6756,-0.8753,-5.7243,-1.5225,0.872,0.0718,0.4694,26.48,-14.4,-8.48,311.92,-82.86,27.78,48.843887,2.353319,91.4,NaN,,12.485,,0 / 30,,2198,2022-01-12 09:59:26:983
0.6823,5.5582,-1.7456,0.0985,9.7829,-0.6756,-0.8753,-5.7243,-1.5225,0.872,0.0718,0.4694,26.48,-14.4,-8.48,311.92,-82.86,27.78,48.843887,2.353319,91.4,NaN,,12.485,,0 / 30,,2203,2022-01-12 09:59:26:988
0.6823,5.5582,-1.7456,0.0985,9.7829,-0.6756,-0.8753,-5.7243,-1.5225,0.872,0.0718,0.4694,26.48,-14.4,-8.48,311.92,-82.86,27.78,48.843887,2.353319,91.4,NaN,,12.485,,0 / 30,,2208,2022-01-12 09:59:26:993
0.6823,5.5582,-1.7456,0.0985,9.7829,-0.6756,-0.8753,-5.7243,-1.5225,0.872,0.0718,0.4694,26.48,-14.4,-8.48,311.92,-82.86,27.78,48.843887,2.353319,91.4,NaN,,12.485,,0 / 30,,2212,2022-01-12 09:59:26:997
0.6823,5.5582,-1.7456,0.0985,9.7829,-0.6756,-0.8753,-5.7243,-1.5225,-0.6085,0.0308,0.1059,26.7,-18.37,-3.3,107.13,-86.01,-171.71,48.843887,2.353319,91.4,NaN,,12.485,,0 / 30,,2218,2022-01-12 09:59:27:003
0.6823,5.5582,-1.7456,0.0985,9.7829,-0.6756,-0.8753,-5.7243,-1.5225,-0.6085,0.0308,0.1059,26.7,-18.37,-3.3,107.13,-86.01,-171.71,48.843887,2.353319,91.4,NaN,,12.485,,0 / 30,,2224,2022-01-12 09:59:27:009
0.6823,5.5582,-1.7456,0.0985,9.7829,-0.6756,-0.8753,-5.7243,-1.5225,-0.6085,0.0308,0.1059,26.7,-18.37,-3.3,107.13,-86.01,-171.71,48.843887,2.353319,91.4,NaN,,12.485,,0 / 30,,2228,2022-01-12 09:59:27:013
0.6823,5.5582,-1.7456,0.0985,9.7829,-0.6756,-0.8753,-5.7243,-1.5225,-0.6085,0.0308,0.1059,26.7,-18.37,-3.3,107.13,-86.01,-171.71,48.843887,2.353319,91.4,NaN,,12.485,,0 / 30,,2232,2022-01-12 09:59:27:017
0.6823,5.5582,-1.7456,0.0985,9.7829,-0.6756,-0.8753,-5.7243,-1.5225,-0.6085,0.0308,0.1059,26.7,-18.37,-3.3,107.13,-86.01,-171.71,48.843887,2.353319,91.4,NaN,,12.485,,0 / 30,,2237,2022-01-12 09:59:27:022
0.6823,5.5582,-1.7456,0.0985,9.7829,-0.6756,-0.8753,-5.7243,-1.5225,-0.6085,0.0308,0.1059,26.7,-18.37,-3.3,107.13,-86.01,-171.71,48.843887,2.353319,91.4,NaN,,12.485,,0 / 30,,2243,2022-01-12 09:59:27:028
0.6823,5.5582,-1.7456,0.0985,9.7829,-0.6756,-0.8753,-5.7243,-1.5225,-0.6085,0.0308,0.1059,26.7,-18.37,-3.3,107.13,-86.01,-171.71,48.843887,2.353319,91.4,NaN,,12.485,,0 / 30,,2249,2022-01-12 09:59:27:034
0.6823,5.5582,-1.7456,0.0985,9.7829,-0.6756,-0.8753,-5.7243,-1.5225,-0.6085,0.0308,0.1059,26.7,-18.37,-3.3,107.13,-86.01,-171.71,48.843887,2.353319,91.4,NaN,,12.485,,0 / 30,,2253,2022-01-12 09:59:27:038
0.6823,5.5582,-1.7456,0.0985,9.7829,-0.6756,-0.8753,-5.7243,-1.5225,-0.6085,0.0308,0.1059,26.7,-18.37,-3.3,107.13,-86.01,-171.71,48.843887,2.353319,91.4,NaN,,12.485,,0 / 30,,2258,2022-01-12 09:59:27:043
0.1768,10.2652,0.0344,0.1345,9.8057,-0.0337,0.4647,-2.4869,-0.7999,-0.6085,0.0308,0.1059,26.7,-18.37,-3.3,107.13,-86.01,-171.71,48.843887,2.353319,91.4,NaN,,12.485,,0 / 30,,2262,2022-01-12 09:59:27:047
0.1768,10.2652,0.0344,0.1345,9.8057,-0.0337,0.4647,-2.4869,-0.7999,-0.6085,0.0308,0.1059,26.7,-18.37,-3.3,107.13,-86.01,-171.71,48.843887,2.353319,91.4,NaN,,12.485,,0 / 30,,2270,2022-01-12 09:59:27:055
0.1768,10.2652,0.0344,0.1345,9.8057,-0.0337,0.4647,-2.4869,-0.7999,-0.6085,0.0308,0.1059,26.7,-18.37,-3.3,107.13,-86.01,-171.71,48.843887,2.353319,91.4,NaN,,12.485,,0 / 30,,2272,2022-01-12 09:59:27:057
0.1768,10.2652,0.0344,0.1345,9.8057,-0.0337,0.4647,-2.4869,-0.7999,-0.6085,0.0308,0.1059,26.7,-18.37,-3.3,107.13,-86.01,-171.71,48.843887,2.353319,91.4,NaN,,12.485,,0 / 30,,2278,2022-01-12 09:59:27:063
0.1768,10.2652,0.0344,0.1345,9.8057,-0.0337,0.4647,-2.4869,-0.7999,-0.6085,0.0308,0.1059,26.7,-18.37,-3.3,107.13,-86.01,-171.71,48.843887,2.353319,91.4,NaN,,12.485,,0 / 30,,2282,2022-01-12 09:59:27:067
0.1768,10.2652,0.0344,0.1345,9.8057,-0.0337,0.4647,-2.4869,-0.7999,-0.7193,0.1634,-0.1632,26.7,-18.37,-3.3,107.13,-86.01,-171.71,48.843887,2.353319,91.4,NaN,,12.485,,0 / 30,,2289,2022-01-12 09:59:27:074
0.1768,10.2652,0.0344,0.1345,9.8057,-0.0337,0.4647,-2.4869,-0.7999,-0.7193,0.1634,-0.1632,26.7,-18.37,-3.3,107.13,-86.01,-171.71,48.843887,2.353319,91.4,NaN,,12.485,,0 / 30,,2292,2022-01-12 09:59:27:077
0.1768,10.2652,0.0344,0.1345,9.8057,-0.0337,0.4647,-2.4869,-0.7999,-0.7193,0.1634,-0.1632,26.7,-18.37,-3.3,107.13,-86.01,-171.71,48.843887,2.353319,91.4,NaN,,12.485,,0 / 30,,2298,2022-01-12 09:59:27:083
0.1768,10.2652,0.0344,0.1345,9.8057,-0.0337,0.4647,-2.4869,-0.7999,-0.7193,0.1634,-0.1632,26.7,-18.37,-3.3,107.13,-86.01,-171.71,48.843887,2.353319,91.4,NaN,,12.485,,0 / 30,,2302,2022-01-12 09:59:27:087
0.1768,10.2652,0.0344,0.1345,9.8057,-0.0337,0.4647,-2.4869,-0.7999,-0.7193,0.1634,-0.1632,26.7,-18.37,-3.3,107.13,-86.01,-171.71,48.843887,2.353319,91.4,NaN,,12.485,,0 / 30,,2308,2022-01-12 09:59:27:093
0.1768,10.2652,0.0344,0.1345,9.8057,-0.0337,0.4647,-2.4869,-0.7999,-0.7193,0.1634,-0.1632,26.7,-18.37,-3.3,107.13,-86.01,-171.71,48.843887,2.353319,91.4,NaN,,12.485,,0 / 30,,2313,2022-01-12 09:59:27:098
0.1768,10.2652,0.0344,0.1345,9.8057,-0.0337,0.4647,-2.4869,-0.7999,-0.7193,0.1634,-0.1632,27.0,-24.3,5.4,155.73,-89.19,-104.07,48.843887,2.353319,91.4,NaN,,12.485,,0 / 30,,2317,2022-01-12 09:59:27:102
-0.2686,10.6391,1.4034,-0.0247,9.8014,0.3189,0.449,0.5711,-0.1597,-0.7193,0.1634,-0.1632,27.0,-24.3,5.4,155.73,-89.19,-104.07,48.843887,2.353319,91.4,NaN,,12.485,,0 / 30,,2322,2022-01-12 09:59:27:107
-0.2686,10.6391,1.4034,-0.0247,9.8014,0.3189,0.449,0.5711,-0.1597,-0.7193,0.1634,-0.1632,27.0,-24.3,5.4,155.73,-89.19,-104.07,48.843887,2.353319,91.4,NaN,,12.485,,0 / 30,,2328,2022-01-12 09:59:27:113
-0.2686,10.6391,1.4034,-0.0247,9.8014,0.3189,0.449,0.5711,-0.1597,-0.7193,0.1634,-0.1632,27.0,-24.3,5.4,155.73,-89.19,-104.07,48.843887,2.353319,91.4,NaN,,12.485,,0 / 30,,2332,2022-01-12 09:59:27:117
-0.2686,10.6391,1.4034,-0.0247,9.8014,0.3189,0.449,0.5711,-0.1597,-0.7193,0.1634,-0.1632,27.0,-24.3,5.4,155.73,-89.19,-104.07,48.843887,2.353319,91.4,NaN,,12.485,,0 / 30,,2338,2022-01-12 09:59:27:123
-0.2686,10.6391,1.4034,-0.0247,9.8014,0.3189,0.449,0.5711,-0.1597,-0.7193,0.1634,-0.1632,27.0,-24.3,5.4,155.73,-89.19,-104.07,48.843887,2.353319,91.4,NaN,,12.485,,0 / 30,,2342,2022-01-12 09:59:27:127
-0.2686,10.6391,1.4034,-0.0247,9.8014,0.3189,0.449,0.5711,-0.1597,-0.7193,0.1634,-0.1632,27.0,-24.3,5.4,155.73,-89.19,-104.07,48.843887,2.353319,91.4,NaN,,12.485,,0 / 30,,2347,2022-01-12 09:59:27:132
-0.2686,10.6391,1.4034,-0.0247,9.8014,0.3189,0.449,0.5711,-0.1597,-0.7193,0.1634,-0.1632,27.0,-24.3,5.4,155.73,-89.19,-104.07,48.843887,2.353319,91.4,NaN,,12.485,,0 / 30,,2352,2022-01-12 09:59:27:137
-0.2686,10.6391,1.4034,-0.0247,9.8014,0.3189,0.449,0.5711,-0.1597,-0.7193,0.1634,-0.1632,27.0,-24.3,5.4,155.73,-89.19,-104.07,48.843887,2.353319,91.4,NaN,,12.485,,0 / 30,,2357,2022-01-12 09:59:27:142
-0.2686,10.6391,1.4034,-0.0247,9.8014,0.3189,0.449,0.5711,-0.1597,-0.7193,0.1634,-0.1632,27.0,-24.3,5.4,155.73,-89.19,-104.07,48.843887,2.353319,91.4,NaN,,12.485,,0 / 30,,2362,2022-01-12 09:59:27:147
-0.2686,10.6391,1.4034,-0.0247,9.8014,0.3189,0.449,0.5711,-0.1597,-0.7193,0.1634,-0.1632,27.0,-24.3,5.4,155.73,-89.19,-104.07,48.843887,2.353319,91.4,NaN,,12.485,,0 / 30,,2368,2022-01-12 09:59:27:153
-0.2686,10.6391,1.4034,-0.0247,9.8014,0.3189,0.449,0.5711,-0.1597,-0.7193,0.1634,-0.1632,27.0,-24.3,5.4,155.73,-89.19,-104.07,48.843887,2.353319,91.4,NaN,,12.485,,0 / 30,,2373,2022-01-12 09:59:27:158
-0.2686,10.6391,1.4034,-0.0247,9.8014,0.3189,0.449,0.5711,-0.1597,-0.7193,0.1634,-0.1632,27.0,-24.3,5.4,155.73,-89.19,-104.07,48.843887,2.353319,91.4,NaN,,12.485,,0 / 30,,2377,2022-01-12 09:59:27:162
-0.2686,10.6391,1.4034,-0.0247,9.8014,0.3189,0.449,0.5711,-0.1597,-0.7193,0.1634,-0.1632,27.0,-24.3,5.4,155.73,-89.19,-104.07,48.843887,2.353319,91.4,NaN,,12.485,,0 / 30,,2382,2022-01-12 09:59:27:167
-0.4795,10.5036,0.4881,-0.1723,9.7989,0.3493,0.222,1.1575,1.6971,-0.7193,0.1634,-0.1632,27.0,-24.3,5.4,155.73,-89.19,-104.07,48.843887,2.353319,91.4,NaN,,12.485,,0 / 30,,2390,2022-01-12 09:59:27:175
-0.4795,10.5036,0.4881,-0.1723,9.7989,0.3493,0.222,1.1575,1.6971,-0.7193,0.1634,-0.1632,27.0,-24.3,5.4,155.73,-89.19,-104.07,48.843887,2.353319,91.4,NaN,,12.485,,0 / 30,,2393,2022-01-12 09:59:27:178
-0.4795,10.5036,0.4881,-0.1723,9.7989,0.3493,0.222,1.1575,1.6971,-0.7193,0.1634,-0.1632,27.0,-24.3,5.4,155.73,-89.19,-104.07,48.843887,2.353319,91.4,NaN,,12.485,,0 / 30,,2397,2022-01-12 09:59:27:182
-0.4795,10.5036,0.4881,-0.1723,9.7989,0.3493,0.222,1.1575,1.6971,-0.7193,0.1634,-0.1632,27.0,-24.3,5.4,155.73,-89.19,-104.07,48.843887,2.353319,91.4,NaN,,12.485,,0 / 30,,2402,2022-01-12 09:59:27:187
-0.4795,10.5036,0.4881,-0.1723,9.7989,0.3493,0.222,1.1575,1.6971,-0.7193,0.1634,-0.1632,27.0,-24.3,5.4,155.73,-89.19,-104.07,48.843887,2.353319,91.4,NaN,,12.485,,0 / 30,,2407,2022-01-12 09:59:27:192
-0.4795,10.5036,0.4881,-0.1723,9.7989,0.3493,0.222,1.1575,1.6971,-0.7193,0.1634,-0.1632,27.0,-24.3,5.4,155.73,-89.19,-104.07,48.843887,2.353319,91.4,NaN,,12.485,,0 / 30,,2413,2022-01-12 09:59:27:198
-0.4795,10.5036,0.4881,-0.1723,9.7989,0.3493,0.222,1.1575,1.6971,-0.0964,0.2196,-0.0932,26.7,-25.72,8.63,275.75,-87.72,26.26,48.843887,2.353319,91.4,NaN,,12.485,,0 / 30,,2417,2022-01-12 09:59:27:202
-0.4795,10.5036,0.4881,-0.1723,9.7989,0.3493,0.222,1.1575,1.6971,-0.0964,0.2196,-0.0932,26.7,-25.72,8.63,275.75,-87.72,26.26,48.843887,2.353319,91.4,NaN,,12.485,,0 / 30,,2423,2022-01-12 09:59:27:208
-0.4795,10.5036,0.4881,-0.1723,9.7989,0.3493,0.222,1.1575,1.6971,-0.0964,0.2196,-0.0932,26.7,-25.72,8.63,275.75,-87.72,26.26,48.843887,2.353319,91.4,NaN,,12.485,,0 / 30,,2428,2022-01-12 09:59:27:213
-0.4795,10.5036,0.4881,-0.1723,9.7989,0.3493,0.222,1.1575,1.6971,-0.0964,0.2196,-0.0932,26.7,-25.72,8.63,275.75,-87.72,26.26,48.843887,2.353319,91.4,NaN,,12.485,,0 / 30,,2432,2022-01-12 09:59:27:217
-0.4795,10.5036,0.4881,-0.1723,9.7989,0.3493,0.222,1.1575,1.6971,-0.0964,0.2196,-0.0932,26.7,-25.72,8.63,275.75,-87.72,26.26,48.843887,2.353319,91.4,NaN,,12.485,,0 / 30,,2437,2022-01-12 09:59:27:222
-0.4795,10.5036,0.4881,-0.1723,9.7989,0.3493,0.222,1.1575,1.6971,-0.0964,0.2196,-0.0932,26.7,-25.72,8.63,275.75,-87.72,26.26,48.843887,2.353319,91.4,NaN,,12.485,,0 / 30,,2442,2022-01-12 09:59:27:227
-0.4795,10.5036,0.4881,-0.1723,9.7989,0.3493,0.222,1.1575,1.6971,-0.0964,0.2196,-0.0932,26.7,-25.72,8.63,275.75,-87.72,26.26,48.843887,2.353319,91.4,NaN,,12.485,,0 / 30,,2447,2022-01-12 09:59:27:232
-0.4795,10.5036,0.4881,-0.1723,9.7989,0.3493,0.222,1.1575,1.6971,-0.0964,0.2196,-0.0932,26.7,-25.72,8.63,275.75,-87.72,26.26,48.843887,2.353319,91.4,NaN,,12.485,,0 / 30,,2452,2022-01-12 09:59:27:237
0.0129,10.1982,1.5099,-0.2066,9.7957,0.4142,-0.0995,0.8031,0.1865,-0.0964,0.2196,-0.0932,26.7,-25.72,8.63,275.75,-87.72,26.26,48.843887,2.353319,91.4,NaN,,12.485,,0 / 30,,2458,2022-01-12 09:59:27:243
0.0129,10.1982,1.5099,-0.2066,9.7957,0.4142,-0.0995,0.8031,0.1865,-0.0964,0.2196,-0.0932,26.7,-25.72,8.63,275.75,-87.72,26.26,48.843887,2.353319,91.4,NaN,,12.485,,0 / 30,,2462,2022-01-12 09:59:27:247
0.0129,10.1982,1.5099,-0.2066,9.7957,0.4142,-0.0995,0.8031,0.1865,-0.0964,0.2196,-0.0932,26.7,-25.72,8.63,275.75,-87.72,26.26,48.843887,2.353319,91.4,NaN,,12.485,,0 / 30,,2468,2022-01-12 09:59:27:253
0.0129,10.1982,1.5099,-0.2066,9.7957,0.4142,-0.0995,0.8031,0.1865,-0.0964,0.2196,-0.0932,26.7,-25.72,8.63,275.75,-87.72,26.26,48.843887,2.353319,91.4,NaN,,12.485,,0 / 30,,2473,2022-01-12 09:59:27:258
0.0129,10.1982,1.5099,-0.2066,9.7957,0.4142,-0.0995,0.8031,0.1865,-0.0964,0.2196,-0.0932,26.7,-25.72,8.63,275.75,-87.72,26.26,48.843887,2.353319,91.4,NaN,,12.485,,0 / 30,,2479,2022-01-12 09:59:27:264
0.0129,10.1982,1.5099,-0.2066,9.7957,0.4142,-0.0995,0.8031,0.1865,-0.0964,0.2196,-0.0932,26.7,-25.72,8.63,275.75,-87.72,26.26,48.843887,2.353319,91.4,NaN,,12.485,,0 / 30,,2483,2022-01-12 09:59:27:268
0.0129,10.1982,1.5099,-0.2066,9.7957,0.4142,-0.0995,0.8031,0.1865,-0.0964,0.2196,-0.0932,26.7,-25.72,8.63,275.75,-87.72,26.26,48.843887,2.353319,91.4,NaN,,12.485,,0 / 30,,2487,2022-01-12 09:59:27:272
0.0129,10.1982,1.5099,-0.2066,9.7957,0.4142,-0.0995,0.8031,0.1865,0.1361,0.0626,-0.0844,26.7,-25.72,8.63,275.75,-87.72,26.26,48.843887,2.353319,91.4,NaN,,12.485,,0 / 30,,2492,2022-01-12 09:59:27:277
0.0129,10.1982,1.5099,-0.2066,9.7957,0.4142,-0.0995,0.8031,0.1865,0.1361,0.0626,-0.0844,26.7,-25.72,8.63,275.75,-87.72,26.26,48.843887,2.353319,91.4,NaN,,12.485,,0 / 30,,2498,2022-01-12 09:59:27:283
0.0129,10.1982,1.5099,-0.2066,9.7957,0.4142,-0.0995,0.8031,0.1865,0.1361,0.0626,-0.0844,26.7,-25.72,8.63,275.75,-87.72,26.26,48.843887,2.353319,91.4,NaN,,12.485,,0 / 30,,2502,2022-01-12 09:59:27:287
0.0129,10.1982,1.5099,-0.2066,9.7957,0.4142,-0.0995,0.8031,0.1865,0.1361,0.0626,-0.0844,26.7,-25.72,8.63,275.75,-87.72,26.26,48.843887,2.353319,91.4,NaN,,12.485,,0 / 30,,2507,2022-01-12 09:59:27:292
0.0129,10.1982,1.5099,-0.2066,9.7957,0.4142,-0.0995,0.8031,0.1865,0.1361,0.0626,-0.0844,26.7,-25.72,8.63,275.75,-87.72,26.26,48.843887,2.353319,91.4,NaN,,12.485,,0 / 30,,2512,2022-01-12 09:59:27:297
0.0129,10.1982,1.5099,-0.2066,9.7957,0.4142,-0.0995,0.8031,0.1865,0.1361,0.0626,-0.0844,26.25,-26.4,11.7,269.28,-87.29,26.51,48.843887,2.353319,91.4,NaN,,12.485,,0 / 30,,2517,2022-01-12 09:59:27:302
0.0129,10.1982,1.5099,-0.2066,9.7957,0.4142,-0.0995,0.8031,0.1865,0.1361,0.0626,-0.0844,26.25,-26.4,11.7,269.28,-87.29,26.51,48.843887,2.353319,91.4,NaN,,12.485,,0 / 30,,2522,2022-01-12 09:59:27:307
-0.5572,9.9957,-0.1848,-0.2066,9.7957,0.4142,-0.0995,0.8031,0.1865,0.1361,0.0626,-0.0844,26.25,-26.4,11.7,269.28,-87.29,26.51,48.843887,2.353319,91.4,NaN,,12.485,,0 / 30,,2528,2022-01-12 09:59:27:313
-0.5572,9.9957,-0.1848,-0.2066,9.7957,0.4142,-0.0995,0.8031,0.1865,0.1361,0.0626,-0.0844,26.25,-26.4,11.7,269.28,-87.29,26.51,48.843887,2.353319,91.4,NaN,,12.485,,0 / 30,,2532,2022-01-12 09:59:27:317
-0.5572,9.9957,-0.1848,-0.2066,9.7957,0.4142,-0.0995,0.8031,0.1865,0.1361,0.0626,-0.0844,26.25,-26.4,11.7,269.28,-87.29,26.51,48.843887,2.353319,91.4,NaN,,12.485,,0 / 30,,2537,2022-01-12 09:59:27:322
-0.5572,9.9957,-0.1848,-0.2066,9.7957,0.4142,-0.0995,0.8031,0.1865,0.1361,0.0626,-0.0844,26.25,-26.4,11.7,269.28,-87.29,26.51,48.843887,2.353319,91.4,NaN,,12.485,,0 / 30,,2543,2022-01-12 09:59:27:328
-0.5572,9.9957,-0.1848,-0.2066,9.7957,0.4142,-0.0995,0.8031,0.1865,0.1361,0.0626,-0.0844,26.25,-26.4,11.7,269.28,-87.29,26.51,48.843887,2.353319,91.4,NaN,,12.485,,0 / 30,,2548,2022-01-12 09:59:27:333
-0.5572,9.9957,-0.1848,-0.2066,9.7957,0.4142,-0.0995,0.8031,0.1865,0.1361,0.0626,-0.0844,26.25,-26.4,11.7,269.28,-87.29,26.51,48.843887,2.353319,91.4,NaN,,12.485,,0 / 30,,2553,2022-01-12 09:59:27:338
-0.5572,9.9957,-0.1848,-0.2066,9.7957,0.4142,-0.0995,0.8031,0.1865,0.1361,0.0626,-0.0844,26.25,-26.4,11.7,269.28,-87.29,26.51,48.843887,2.353319,91.4,NaN,,12.485,,0 / 30,,2558,2022-01-12 09:59:27:343
-0.5572,9.9957,-0.1848,-0.2066,9.7957,0.4142,-0.0995,0.8031,0.1865,0.1361,0.0626,-0.0844,26.25,-26.4,11.7,269.28,-87.29,26.51,48.843887,2.353319,91.4,NaN,,12.485,,0 / 30,,2563,2022-01-12 09:59:27:348
-0.5572,9.9957,-0.1848,-0.2066,9.7957,0.4142,-0.0995,0.8031,0.1865,0.1361,0.0626,-0.0844,26.25,-26.4,11.7,269.28,-87.29,26.51,48.843887,2.353319,91.4,NaN,,12.485,,0 / 30,,2568,2022-01-12 09:59:27:353
-0.5572,9.9957,-0.1848,-0.2834,9.8001,0.2215,0.144,0.3904,-0.0656,0.1361,0.0626,-0.0844,26.25,-26.4,11.7,269.28,-87.29,26.51,48.843887,2.353319,91.4,NaN,,12.485,,0 / 30,,2572,2022-01-12 09:59:27:357
-0.5572,9.9957,-0.1848,-0.2834,9.8001,0.2215,0.144,0.3904,-0.0656,0.1361,0.0626,-0.0844,26.25,-26.4,11.7,269.28,-87.29,26.51,48.843887,2.353319,91.4,NaN,,12.485,,0 / 30,,2578,2022-01-12 09:59:27:363
-0.5572,9.9957,-0.1848,-0.2834,9.8001,0.2215,0.144,0.3904,-0.0656,0.1361,0.0626,-0.0844,26.25,-26.4,11.7,269.28,-87.29,26.51,48.843887,2.353319,91.4,NaN,,12.485,,0 / 30,,2582,2022-01-12 09:59:27:367
-0.5572,9.9957,-0.1848,-0.2834,9.8001,0.2215,0.144,0.3904,-0.0656,0.1361,0.0626,-0.0844,26.25,-26.4,11.7,269.28,-87.29,26.51,48.843887,2.353319,91.4,NaN,,12.485,,0 / 30,,2588,2022-01-12 09:59:27:373
-0.5572,9.9957,-0.1848,-0.2834,9.8001,0.2215,0.144,0.3904,-0.0656,0.1361,0.0626,-0.0844,26.25,-26.4,11.7,269.28,-87.29,26.51,48.843887,2.353319,91.4,NaN,,12.485,,0 / 30,,2593,2022-01-12 09:59:27:378
-0.3296,9.7514,-0.0592,-0.2834,9.8001,0.2215,0.144,0.3904,-0.0656,0.1361,0.0626,-0.0844,26.25,-26.4,11.7,269.28,-87.29,26.51,48.843887,2.353319,91.4,NaN,,12.485,,0 / 30,,2597,2022-01-12 09:59:27:382
-0.3296,9.7514,-0.0592,-0.2834,9.8001,0.2215,0.144,0.3904,-0.0656,0.1361,0.0626,-0.0844,26.25,-26.4,11.7,269.28,-87.29,26.51,48.843887,2.353319,91.4,NaN,,12.485,,0 / 30,,2603,2022-01-12 09:59:27:388
-0.3296,9.7514,-0.0592,-0.2834,9.8001,0.2215,0.144,0.3904,-0.0656,0.0088,-0.0475,0.0117,26.25,-26.4,11.7,269.28,-87.29,26.51,48.843887,2.353319,91.4,NaN,,12.485,,0 / 30,,2608,2022-01-12 09:59:27:393
-0.3296,9.7514,-0.0592,-0.2834,9.8001,0.2215,0.144,0.3904,-0.0656,0.0088,-0.0475,0.0117,26.25,-26.4,11.7,269.28,-87.29,26.51,48.843887,2.353319,91.4,NaN,,12.485,,0 / 30,,2612,2022-01-12 09:59:27:397
-0.3296,9.7514,-0.0592,-0.2834,9.8001,0.2215,0.144,0.3904,-0.0656,0.0088,-0.0475,0.0117,26.1,-26.25,12.0,295.47,-87.9,51.99,48.843887,2.353319,91.4,NaN,,12.485,,0 / 30,,2617,2022-01-12 09:59:27:402
-0.3296,9.7514,-0.0592,-0.2834,9.8001,0.2215,0.144,0.3904,-0.0656,0.0088,-0.0475,0.0117,26.1,-26.25,12.0,295.47,-87.9,51.99,48.843887,2.353319,91.4,NaN,,12.485,,0 / 30,,2622,2022-01-12 09:59:27:407
-0.3296,9.7514,-0.0592,-0.2834,9.8001,0.2215,0.144,0.3904,-0.0656,0.0088,-0.0475,0.0117,26.1,-26.25,12.0,295.47,-87.9,51.99,48.843887,2.353319,91.4,NaN,,12.485,,0 / 30,,2629,2022-01-12 09:59:27:414
-0.3296,9.7514,-0.0592,-0.2834,9.8001,0.2215,0.144,0.3904,-0.0656,0.0088,-0.0475,0.0117,26.1,-26.25,12.0,295.47,-87.9,51.99,48.843887,2.353319,91.4,NaN,,12.485,,0 / 30,,2632,2022-01-12 09:59:27:417
-0.3296,9.7514,-0.0592,-0.2773,9.8004,0.2156,-0.1325,0.3063,-0.3214,0.0088,-0.0475,0.0117,26.1,-26.25,12.0,295.47,-87.9,51.99,48.843887,2.353319,91.4,NaN,,12.485,,0 / 30,,2638,2022-01-12 09:59:27:423
-0.3296,9.7514,-0.0592,-0.2773,9.8004,0.2156,-0.1325,0.3063,-0.3214,0.0088,-0.0475,0.0117,26.1,-26.25,12.0,295.47,-87.9,51.99,48.843887,2.353319,91.4,NaN,,12.485,,0 / 30,,2643,2022-01-12 09:59:27:428
-0.3296,9.7514,-0.0592,-0.2773,9.8004,0.2156,-0.1325,0.3063,-0.3214,0.0088,-0.0475,0.0117,26.1,-26.25,12.0,295.47,-87.9,51.99,48.843887,2.353319,91.4,NaN,,12.485,,0 / 30,,2647,2022-01-12 09:59:27:432
-0.3296,9.7514,-0.0592,-0.2773,9.8004,0.2156,-0.1325,0.3063,-0.3214,0.0088,-0.0475,0.0117,26.1,-26.25,12.0,295.47,-87.9,51.99,48.843887,2.353319,91.4,NaN,,12.485,,0 / 30,,2653,2022-01-12 09:59:27:438
-0.3296,9.7514,-0.0592,-0.2773,9.8004,0.2156,-0.1325,0.3063,-0.3214,0.0088,-0.0475,0.0117,26.1,-26.25,12.0,295.47,-87.9,51.99,48.843887,2.353319,91.4,NaN,,12.485,,0 / 30,,2657,2022-01-12 09:59:27:442
0.1828,9.7442,-3.0E-4,-0.2773,9.8004,0.2156,-0.1325,0.3063,-0.3214,0.0088,-0.0475,0.0117,26.1,-26.25,12.0,295.47,-87.9,51.99,48.843887,2.353319,91.4,NaN,,12.485,,0 / 30,,2663,2022-01-12 09:59:27:448
0.1828,9.7442,-3.0E-4,-0.2773,9.8004,0.2156,-0.1325,0.3063,-0.3214,0.0088,-0.0475,0.0117,26.1,-26.25,12.0,295.47,-87.9,51.99,48.843887,2.353319,91.4,NaN,,12.485,,0 / 30,,2668,2022-01-12 09:59:27:453
0.1828,9.7442,-3.0E-4,-0.2773,9.8004,0.2156,-0.1325,0.3063,-0.3214,0.0088,-0.0475,0.0117,26.1,-26.25,12.0,295.47,-87.9,51.99,48.843887,2.353319,91.4,NaN,,12.485,,0 / 30,,2672,2022-01-12 09:59:27:457
0.1828,9.7442,-3.0E-4,-0.2773,9.8004,0.2156,-0.1325,0.3063,-0.3214,0.0088,-0.0475,0.0117,26.1,-26.25,12.0,295.47,-87.9,51.99,48.843887,2.353319,91.4,NaN,,12.485,,0 / 30,,2680,2022-01-12 09:59:27:465
0.1828,9.7442,-3.0E-4,-0.2773,9.8004,0.2156,-0.1325,0.3063,-0.3214,0.0487,0.0419,-0.0567,26.1,-26.25,12.0,295.47,-87.9,51.99,48.843887,2.353319,91.4,NaN,,12.485,,0 / 30,,2684,2022-01-12 09:59:27:469
0.1828,9.7442,-3.0E-4,-0.2773,9.8004,0.2156,-0.1325,0.3063,-0.3214,0.0487,0.0419,-0.0567,26.1,-26.25,12.0,295.47,-87.9,51.99,48.843887,2.353319,91.4,NaN,,12.485,,0 / 30,,2688,2022-01-12 09:59:27:473
0.1828,9.7442,-3.0E-4,-0.2773,9.8004,0.2156,-0.1325,0.3063,-0.3214,0.0487,0.0419,-0.0567,26.1,-26.25,12.0,295.47,-87.9,51.99,48.843887,2.353319,91.4,NaN,,12.485,,0 / 30,,2692,2022-01-12 09:59:27:477
0.1828,9.7442,-3.0E-4,-0.2773,9.8004,0.2156,-0.1325,0.3063,-0.3214,0.0487,0.0419,-0.0567,26.1,-26.25,12.0,295.47,-87.9,51.99,48.843887,2.353319,91.4,NaN,,12.485,,0 / 30,,2697,2022-01-12 09:59:27:482
0.1828,9.7442,-3.0E-4,-0.2773,9.8004,0.2156,-0.1325,0.3063,-0.3214,0.0487,0.0419,-0.0567,26.1,-26.25,12.0,295.47,-87.9,51.99,48.843887,2.353319,91.4,NaN,,12.485,,0 / 30,,2702,2022-01-12 09:59:27:487
0.1828,9.7442,-3.0E-4,-0.3128,9.8,0.1818,0.1871,0.1678,-0.0758,0.0487,0.0419,-0.0567,26.1,-26.25,12.0,295.47,-87.9,51.99,48.843887,2.353319,91.4,NaN,,12.485,,0 / 30,,2708,2022-01-12 09:59:27:493
0.1828,9.7442,-3.0E-4,-0.3128,9.8,0.1818,0.1871,0.1678,-0.0758,0.0487,0.0419,-0.0567,26.1,-26.25,12.0,295.47,-87.9,51.99,48.843887,2.353319,91.4,NaN,,12.485,,0 / 30,,2714,2022-01-12 09:59:27:499
0.1828,9.7442,-3.0E-4,-0.3128,9.8,0.1818,0.1871,0.1678,-0.0758,0.0487,0.0419,-0.0567,26.25,-25.8,11.7,303.44,-87.89,59.83,48.843887,2.353319,91.4,NaN,,12.485,,0 / 30,,2718,2022-01-12 09:59:27:503
-0.1501,9.7537,0.3147,-0.3128,9.8,0.1818,0.1871,0.1678,-0.0758,0.0487,0.0419,-0.0567,26.25,-25.8,11.7,303.44,-87.89,59.83,48.843887,2.353319,91.4,NaN,,12.485,,0 / 30,,2723,2022-01-12 09:59:27:508
-0.1501,9.7537,0.3147,-0.3128,9.8,0.1818,0.1871,0.1678,-0.0758,0.0487,0.0419,-0.0567,26.25,-25.8,11.7,303.44,-87.89,59.83,48.843887,2.353319,91.4,NaN,,12.485,,0 / 30,,2727,2022-01-12 09:59:27:512
-0.1501,9.7537,0.3147,-0.3128,9.8,0.1818,0.1871,0.1678,-0.0758,0.0487,0.0419,-0.0567,26.25,-25.8,11.7,303.44,-87.89,59.83,48.843887,2.353319,91.4,NaN,,12.485,,0 / 30,,2732,2022-01-12 09:59:27:517
-0.1501,9.7537,0.3147,-0.3128,9.8,0.1818,0.1871,0.1678,-0.0758,0.0487,0.0419,-0.0567,26.25,-25.8,11.7,303.44,-87.89,59.83,48.843887,2.353319,91.4,NaN,,12.485,,0 / 30,,2737,2022-01-12 09:59:27:522
-0.1501,9.7537,0.3147,-0.3128,9.8,0.1818,0.1871,0.1678,-0.0758,0.0487,0.0419,-0.0567,26.25,-25.8,11.7,303.44,-87.89,59.83,48.843887,2.353319,91.4,NaN,,12.485,,0 / 30,,2743,2022-01-12 09:59:27:528
-0.1501,9.7537,0.3147,-0.3128,9.8,0.1818,0.1871,0.1678,-0.0758,0.0487,0.0419,-0.0567,26.25,-25.8,11.7,303.44,-87.89,59.83,48.843887,2.353319,91.4,NaN,,12.485,,0 / 30,,2747,2022-01-12 09:59:27:532
-0.1501,9.7537,0.3147,-0.3128,9.8,0.1818,0.1871,0.1678,-0.0758,0.0487,0.0419,-0.0567,26.25,-25.8,11.7,303.44,-87.89,59.83,48.843887,2.353319,91.4,NaN,,12.485,,0 / 30,,2752,2022-01-12 09:59:27:537
-0.1501,9.7537,0.3147,-0.3128,9.8,0.1818,0.1871,0.1678,-0.0758,0.049,-0.0107,-0.0675,26.25,-25.8,11.7,303.44,-87.89,59.83,48.843887,2.353319,91.4,NaN,,12.485,,0 / 30,,2759,2022-01-12 09:59:27:544
-0.1501,9.7537,0.3147,-0.3128,9.8,0.1818,0.1871,0.1678,-0.0758,0.049,-0.0107,-0.0675,26.25,-25.8,11.7,303.44,-87.89,59.83,48.843887,2.353319,91.4,NaN,,12.485,,0 / 30,,2764,2022-01-12 09:59:27:549
-0.1501,9.7537,0.3147,-0.3128,9.8,0.1818,0.1871,0.1678,-0.0758,0.049,-0.0107,-0.0675,26.25,-25.8,11.7,303.44,-87.89,59.83,48.843887,2.353319,91.4,NaN,,12.485,,0 / 30,,2767,2022-01-12 09:59:27:552
-0.1501,9.7537,0.3147,-0.3128,9.8,0.1818,0.1871,0.1678,-0.0758,0.049,-0.0107,-0.0675,26.25,-25.8,11.7,303.44,-87.89,59.83,48.843887,2.353319,91.4,NaN,,12.485,,0 / 30,,2772,2022-01-12 09:59:27:557
-0.1501,9.7537,0.3147,-0.3128,9.8,0.1818,0.1871,0.1678,-0.0758,0.049,-0.0107,-0.0675,26.25,-25.8,11.7,303.44,-87.89,59.83,48.843887,2.353319,91.4,NaN,,12.485,,0 / 30,,2779,2022-01-12 09:59:27:564
-0.1501,9.7537,0.3147,-0.3128,9.8,0.1818,0.1871,0.1678,-0.0758,0.049,-0.0107,-0.0675,26.25,-25.8,11.7,303.44,-87.89,59.83,48.843887,2.353319,91.4,NaN,,12.485,,0 / 30,,2783,2022-01-12 09:59:27:568
-0.1501,9.7537,0.3147,-0.3128,9.8,0.1818,0.1871,0.1678,-0.0758,0.049,-0.0107,-0.0675,26.25,-25.8,11.7,303.44,-87.89,59.83,48.843887,2.353319,91.4,NaN,,12.485,,0 / 30,,2788,2022-01-12 09:59:27:573
-0.1501,9.7537,0.3147,-0.3128,9.8,0.1818,0.1871,0.1678,-0.0758,0.049,-0.0107,-0.0675,26.25,-25.8,11.7,303.44,-87.89,59.83,48.843887,2.353319,91.4,NaN,,12.485,,0 / 30,,2793,2022-01-12 09:59:27:578
-0.6087,9.9263,-0.0927,-0.3128,9.8,0.1818,0.1871,0.1678,-0.0758,0.049,-0.0107,-0.0675,26.25,-25.8,11.7,303.44,-87.89,59.83,48.843887,2.353319,91.4,NaN,,12.485,,0 / 30,,2797,2022-01-12 09:59:27:582
-0.6087,9.9263,-0.0927,-0.3128,9.8,0.1818,0.1871,0.1678,-0.0758,0.049,-0.0107,-0.0675,26.25,-25.8,11.7,303.44,-87.89,59.83,48.843887,2.353319,91.4,NaN,,12.485,,0 / 30,,2804,2022-01-12 09:59:27:589
-0.6087,9.9263,-0.0927,-0.3128,9.8,0.1818,0.1871,0.1678,-0.0758,0.049,-0.0107,-0.0675,26.25,-25.8,11.7,303.44,-87.89,59.83,48.843887,2.353319,91.4,NaN,,12.485,,0 / 30,,2807,2022-01-12 09:59:27:592
-0.6087,9.9263,-0.0927,-0.3953,9.7978,0.1286,0.2038,0.2148,-0.0863,0.049,-0.0107,-0.0675,26.25,-25.8,11.7,303.44,-87.89,59.83,48.843887,2.353319,91.4,NaN,,12.485,,0 / 30,,2813,2022-01-12 09:59:27:598
-0.6087,9.9263,-0.0927,-0.3953,9.7978,0.1286,0.2038,0.2148,-0.0863,0.049,-0.0107,-0.0675,26.48,-25.57,11.63,315.63,-87.57,71.97,48.843887,2.353319,91.4,NaN,,12.485,,0 / 30,,2817,2022-01-12 09:59:27:602
-0.6087,9.9263,-0.0927,-0.3953,9.7978,0.1286,0.2038,0.2148,-0.0863,0.049,-0.0107,-0.0675,26.48,-25.57,11.63,315.63,-87.57,71.97,48.843887,2.353319,91.4,NaN,,12.485,,0 / 30,,2822,2022-01-12 09:59:27:607
-0.6087,9.9263,-0.0927,-0.3953,9.7978,0.1286,0.2038,0.2148,-0.0863,0.049,-0.0107,-0.0675,26.48,-25.57,11.63,315.63,-87.57,71.97,48.843887,2.353319,91.4,NaN,,12.485,,0 / 30,,2828,2022-01-12 09:59:27:613
-0.6087,9.9263,-0.0927,-0.3953,9.7978,0.1286,0.2038,0.2148,-0.0863,0.049,-0.0107,-0.0675,26.48,-25.57,11.63,315.63,-87.57,71.97,48.843887,2.353319,91.4,NaN,,12.485,,0 / 30,,2832,2022-01-12 09:59:27:617
-0.6087,9.9263,-0.0927,-0.3953,9.7978,0.1286,0.2038,0.2148,-0.0863,0.0277,0.0276,-0.0695,26.48,-25.57,11.63,315.63,-87.57,71.97,48.843887,2.353319,91.4,NaN,,12.485,,0 / 30,,2838,2022-01-12 09:59:27:623
-0.6087,9.9263,-0.0927,-0.3953,9.7978,0.1286,0.2038,0.2148,-0.0863,0.0277,0.0276,-0.0695,26.48,-25.57,11.63,315.63,-87.57,71.97,48.843887,2.353319,91.4,NaN,,12.485,,0 / 30,,2842,2022-01-12 09:59:27:627
-0.6087,9.9263,-0.0927,-0.3953,9.7978,0.1286,0.2038,0.2148,-0.0863,0.0277,0.0276,-0.0695,26.48,-25.57,11.63,315.63,-87.57,71.97,48.843887,2.353319,91.4,NaN,,12.485,,0 / 30,,2848,2022-01-12 09:59:27:633
-0.6087,9.9263,-0.0927,-0.3953,9.7978,0.1286,0.2038,0.2148,-0.0863,0.0277,0.0276,-0.0695,26.48,-25.57,11.63,315.63,-87.57,71.97,48.843887,2.353319,91.4,NaN,,12.485,,0 / 30,,2852,2022-01-12 09:59:27:637
-0.6087,9.9263,-0.0927,-0.3953,9.7978,0.1286,0.2038,0.2148,-0.0863,0.0277,0.0276,-0.0695,26.48,-25.57,11.63,315.63,-87.57,71.97,48.843887,2.353319,91.4,NaN,,12.485,,0 / 30,,2857,2022-01-12 09:59:27:642
-0.5548,9.9299,-0.1083,-0.3953,9.7978,0.1286,0.2038,0.2148,-0.0863,0.0277,0.0276,-0.0695,26.48,-25.57,11.63,315.63,-87.57,71.97,48.843887,2.353319,91.4,NaN,,12.485,,0 / 30,,2862,2022-01-12 09:59:27:647
-0.5548,9.9299,-0.1083,-0.3953,9.7978,0.1286,0.2038,0.2148,-0.0863,0.0277,0.0276,-0.0695,26.48,-25.57,11.63,315.63,-87.57,71.97,48.843887,2.353319,91.4,NaN,,12.485,,0 / 30,,2868,2022-01-12 09:59:27:653
-0.5548,9.9299,-0.1083,-0.3953,9.7978,0.1286,0.2038,0.2148,-0.0863,0.0277,0.0276,-0.0695,26.48,-25.57,11.63,315.63,-87.57,71.97,48.843887,2.353319,91.4,NaN,,12.485,,0 / 30,,2873,2022-01-12 09:59:27:658
-0.5548,9.9299,-0.1083,-0.3953,9.7978,0.1286,0.2038,0.2148,-0.0863,0.0277,0.0276,-0.0695,26.48,-25.57,11.63,315.63,-87.57,71.97,48.843887,2.353319,91.4,NaN,,12.485,,0 / 30,,2877,2022-01-12 09:59:27:662
-0.5548,9.9299,-0.1083,-0.3953,9.7978,0.1286,0.2038,0.2148,-0.0863,0.0277,0.0276,-0.0695,26.48,-25.57,11.63,315.63,-87.57,71.97,48.843887,2.353319,91.4,NaN,,12.485,,0 / 30,,2882,2022-01-12 09:59:27:667
-0.5548,9.9299,-0.1083,-0.4016,9.7975,0.135,-0.1994,0.3163,-0.2383,0.0277,0.0276,-0.0695,26.48,-25.57,11.63,315.63,-87.57,71.97,48.843887,2.353319,91.4,NaN,,12.485,,0 / 30,,2888,2022-01-12 09:59:27:673
-0.5548,9.9299,-0.1083,-0.4016,9.7975,0.135,-0.1994,0.3163,-0.2383,0.0277,0.0276,-0.0695,26.48,-25.57,11.63,315.63,-87.57,71.97,48.843887,2.353319,91.4,NaN,,12.485,,0 / 30,,2904,2022-01-12 09:59:27:689
-0.5548,9.9299,-0.1083,-0.4016,9.7975,0.135,-0.1994,0.3163,-0.2383,0.0277,0.0276,-0.0695,26.48,-25.57,11.63,315.63,-87.57,71.97,48.843887,2.353319,91.4,NaN,,12.485,,0 / 30,,2905,2022-01-12 09:59:27:690
-0.5548,9.9299,-0.1083,-0.4016,9.7975,0.135,-0.1994,0.3163,-0.2383,0.0277,0.0276,-0.0695,26.48,-25.57,11.63,315.63,-87.57,71.97,48.843887,2.353319,91.4,NaN,,12.485,,0 / 30,,2905,2022-01-12 09:59:27:690
-0.5548,9.9299,-0.1083,-0.4016,9.7975,0.135,-0.1994,0.3163,-0.2383,0.0277,0.0276,-0.0695,26.48,-25.57,11.63,315.63,-87.57,71.97,48.843887,2.353319,91.4,NaN,,12.485,,0 / 30,,2908,2022-01-12 09:59:27:693
-0.5548,9.9299,-0.1083,-0.4016,9.7975,0.135,-0.1994,0.3163,-0.2383,0.0277,0.0276,-0.0695,26.48,-25.57,11.63,315.63,-87.57,71.97,48.843887,2.353319,91.4,NaN,,12.485,,0 / 30,,2913,2022-01-12 09:59:27:698
-0.4699,9.821,0.0296,-0.4016,9.7975,0.135,-0.1994,0.3163,-0.2383,0.0277,0.0276,-0.0695,26.63,-25.42,12.08,315.98,-87.52,71.43,48.843887,2.353319,91.4,NaN,,12.485,,0 / 30,,2918,2022-01-12 09:59:27:703
-0.4699,9.821,0.0296,-0.4016,9.7975,0.135,-0.1994,0.3163,-0.2383,0.0277,0.0276,-0.0695,26.63,-25.42,12.08,315.98,-87.52,71.43,48.843887,2.353319,91.4,NaN,,12.485,,0 / 30,,2923,2022-01-12 09:59:27:708
-0.4699,9.821,0.0296,-0.4016,9.7975,0.135,-0.1994,0.3163,-0.2383,0.0277,0.0276,-0.0695,26.63,-25.42,12.08,315.98,-87.52,71.43,48.843887,2.353319,91.4,NaN,,12.485,,0 / 30,,2928,2022-01-12 09:59:27:713
-0.4699,9.821,0.0296,-0.4016,9.7975,0.135,-0.1994,0.3163,-0.2383,0.0277,0.0276,-0.0695,26.63,-25.42,12.08,315.98,-87.52,71.43,48.843887,2.353319,91.4,NaN,,12.485,,0 / 30,,2933,2022-01-12 09:59:27:718
-0.4699,9.821,0.0296,-0.4016,9.7975,0.135,-0.1994,0.3163,-0.2383,0.0277,0.0276,-0.0695,26.63,-25.42,12.08,315.98,-87.52,71.43,48.843887,2.353319,91.4,NaN,,12.485,,0 / 30,,2937,2022-01-12 09:59:27:722
-0.4699,9.821,0.0296,-0.4016,9.7975,0.135,-0.1994,0.3163,-0.2383,0.0277,0.0276,-0.0695,26.63,-25.42,12.08,315.98,-87.52,71.43,48.843887,2.353319,91.4,NaN,,12.485,,0 / 30,,2943,2022-01-12 09:59:27:728
-0.4699,9.821,0.0296,-0.3994,9.7973,0.1523,-0.0589,0.2213,-0.2263,0.0277,0.0276,-0.0695,26.63,-25.42,12.08,315.98,-87.52,71.43,48.843887,2.353319,91.4,NaN,,12.485,,0 / 30,,2948,2022-01-12 09:59:27:733
-0.4699,9.821,0.0296,-0.3994,9.7973,0.1523,-0.0589,0.2213,-0.2263,0.0277,0.0276,-0.0695,26.63,-25.42,12.08,315.98,-87.52,71.43,48.843887,2.353319,91.4,NaN,,12.485,,0 / 30,,2953,2022-01-12 09:59:27:738
-0.4699,9.821,0.0296,-0.3994,9.7973,0.1523,-0.0589,0.2213,-0.2263,0.0277,0.0276,-0.0695,26.63,-25.42,12.08,315.98,-87.52,71.43,48.843887,2.353319,91.4,NaN,,12.485,,0 / 30,,2958,2022-01-12 09:59:27:743
-0.4699,9.821,0.0296,-0.3994,9.7973,0.1523,-0.0589,0.2213,-0.2263,0.0277,0.0276,-0.0695,26.63,-25.42,12.08,315.98,-87.52,71.43,48.843887,2.353319,91.4,NaN,,12.485,,0 / 30,,2962,2022-01-12 09:59:27:747
-0.4699,9.821,0.0296,-0.3994,9.7973,0.1523,-0.0589,0.2213,-0.2263,-0.0631,0.0162,0.0089,26.63,-25.42,12.08,315.98,-87.52,71.43,48.843887,2.353319,91.4,NaN,,12.485,,0 / 30,,2967,2022-01-12 09:59:27:752
-0.3188,9.7621,0.2991,-0.3994,9.7973,0.1523,-0.0589,0.2213,-0.2263,-0.0631,0.0162,0.0089,26.63,-25.42,12.08,315.98,-87.52,71.43,48.843887,2.353319,91.4,NaN,,12.485,,0 / 30,,2973,2022-01-12 09:59:27:758
-0.3188,9.7621,0.2991,-0.3994,9.7973,0.1523,-0.0589,0.2213,-0.2263,-0.0631,0.0162,0.0089,26.63,-25.42,12.08,315.98,-87.52,71.43,48.843887,2.353319,91.4,NaN,,12.485,,0 / 30,,2977,2022-01-12 09:59:27:762
-0.3188,9.7621,0.2991,-0.3994,9.7973,0.1523,-0.0589,0.2213,-0.2263,-0.0631,0.0162,0.0089,26.63,-25.42,12.08,315.98,-87.52,71.43,48.843887,2.353319,91.4,NaN,,12.485,,0 / 30,,2985,2022-01-12 09:59:27:770
-0.3188,9.7621,0.2991,-0.3994,9.7973,0.1523,-0.0589,0.2213,-0.2263,-0.0631,0.0162,0.0089,26.63,-25.42,12.08,315.98,-87.52,71.43,48.843887,2.353319,91.4,NaN,,12.485,,0 / 30,,2989,2022-01-12 09:59:27:774
-0.3188,9.7621,0.2991,-0.3994,9.7973,0.1523,-0.0589,0.2213,-0.2263,-0.0631,0.0162,0.0089,26.63,-25.42,12.08,315.98,-87.52,71.43,48.843887,2.353319,91.4,NaN,,12.485,,0 / 30,,2992,2022-01-12 09:59:27:777
-0.3188,9.7621,0.2991,-0.3994,9.7973,0.1523,-0.0589,0.2213,-0.2263,-0.0631,0.0162,0.0089,26.63,-25.42,12.08,315.98,-87.52,71.43,48.843887,2.353319,91.4,NaN,,12.485,,0 / 30,,2997,2022-01-12 09:59:27:782
-0.3188,9.7621,0.2991,-0.3994,9.7973,0.1523,-0.0589,0.2213,-0.2263,-0.0631,0.0162,0.0089,26.63,-25.42,12.08,315.98,-87.52,71.43,48.843887,2.353319,91.4,NaN,,12.485,,0 / 30,,3003,2022-01-12 09:59:27:788
-0.3188,9.7621,0.2991,-0.3994,9.7973,0.1523,-0.0589,0.2213,-0.2263,-0.0631,0.0162,0.0089,26.63,-25.42,12.08,315.98,-87.52,71.43,48.843887,2.353319,91.4,NaN,,12.485,,0 / 30,,3008,2022-01-12 09:59:27:793
-0.3188,9.7621,0.2991,-0.3994,9.7973,0.1523,-0.0589,0.2213,-0.2263,-0.0631,0.0162,0.0089,26.7,-25.28,12.3,313.6,-87.5,69.13,48.843887,2.353319,91.4,NaN,,12.485,,0 / 30,,3014,2022-01-12 09:59:27:799
-0.3188,9.7621,0.2991,-0.3994,9.7973,0.1523,-0.0589,0.2213,-0.2263,-0.0631,0.0162,0.0089,26.7,-25.28,12.3,313.6,-87.5,69.13,48.843887,2.353319,91.4,NaN,,12.485,,0 / 30,,3018,2022-01-12 09:59:27:803
-0.3188,9.7621,0.2991,-0.3994,9.7973,0.1523,-0.0589,0.2213,-0.2263,-0.0631,0.0162,0.0089,26.7,-25.28,12.3,313.6,-87.5,69.13,48.843887,2.353319,91.4,NaN,,12.485,,0 / 30,,3024,2022-01-12 09:59:27:809
-0.3188,9.7621,0.2991,-0.3994,9.7973,0.1523,-0.0589,0.2213,-0.2263,-0.0631,0.0162,0.0089,26.7,-25.28,12.3,313.6,-87.5,69.13,48.843887,2.353319,91.4,NaN,,12.485,,0 / 30,,3029,2022-01-12 09:59:27:814
-0.3188,9.7621,0.2991,-0.3994,9.7973,0.1523,-0.0589,0.2213,-0.2263,-0.0631,0.0162,0.0089,26.7,-25.28,12.3,313.6,-87.5,69.13,48.843887,2.353319,91.4,NaN,,12.485,,0 / 30,,3033,2022-01-12 09:59:27:818
