ACCELEROMETER X (m/s²),ACCELEROMETER Y (m/s²),ACCELEROMETER Z (m/s²),GRAVITY X (m/s²),GRAVITY Y (m/s²),GRAVITY Z (m/s²),LINEAR ACCELERATION X (m/s²),LINEAR ACCELERATION Y (m/s²),LINEAR ACCELERATION Z (m/s²),GYROSCOPE X (rad/s),GYROSCOPE Y (rad/s),GYROSCOPE Z (rad/s),MAGNETIC FIELD X (μT),MAGNETIC FIELD Y (μT),MAGNETIC FIELD Z (μT),ORIENTATION Z (azimuth °),ORIENTATION X (pitch °),ORIENTATION Y (roll °),LOCATION Latitude : ,LOCATION Longitude : ,LOCATION Altitude ( m),LOCATION Altitude-google ( m),LOCATION Speed ( Kmh),LOCATION Accuracy ( m),LOCATION ORIENTATION (°),Satellites in range,GPS NMEA,Time since start in ms ,YYYY-MO-DD HH-MI-SS_SSS
-1.84128,5.24208,8.58874,-2.72321,5.1136,7.91237,-0.98058,0.44197,-0.84132,-0.50106,-0.14034,0.50852,23.925,-20.4,-9.075,246.594,-31.429,18.992,48.84388,2.3533132,102.823,NaN,0.0,12.864,,4 / 24,,8,2022-01-20 11:40:08:971
-1.84128,5.24208,8.58874,-2.72321,5.1136,7.91237,-0.98058,0.44197,-0.84132,-0.50106,-0.14034,0.50852,23.925,-20.4,-9.075,246.594,-31.429,18.992,48.84388,2.3533132,102.823,NaN,0.0,12.864,,4 / 24,,14,2022-01-20 11:40:08:977
-1.84128,5.24208,8.58874,-2.72321,5.1136,7.91237,-0.98058,0.44197,-0.84132,-0.50106,-0.14034,0.50852,23.925,-20.4,-9.075,246.594,-31.429,18.992,48.84388,2.3533132,102.823,NaN,0.0,12.864,,4 / 24,,20,2022-01-20 11:40:08:983
-1.84128,5.24208,8.58874,-2.72321,5.1136,7.91237,-0.98058,0.44197,-0.84132,-0.50106,-0.14034,0.50852,23.925,-20.4,-9.075,246.594,-31.429,18.992,48.84388,2.3533132,102.823,NaN,0.0,12.864,,4 / 24,,24,2022-01-20 11:40:08:987
-1.84128,5.24208,8.58874,-2.72321,5.1136,7.91237,-0.98058,0.44197,-0.84132,-0.50106,-0.14034,0.50852,23.925,-20.4,-9.075,246.594,-31.429,18.992,48.84388,2.3533132,102.823,NaN,0.0,12.864,,4 / 24,,29,2022-01-20 11:40:08:992
-1.84128,5.24208,8.58874,-2.72321,5.1136,7.91237,-0.98058,0.44197,-0.84132,-0.50106,-0.14034,0.50852,23.925,-20.4,-9.075,246.594,-31.429,18.992,48.84388,2.3533132,102.823,NaN,0.0,12.864,,4 / 24,,34,2022-01-20 11:40:08:997
-3.15404,5.23609,8.74068,-2.72321,5.1136,7.91237,-0.98058,0.44197,-0.84132,-0.28628,0.36711,0.71743,23.925,-20.4,-9.075,246.594,-31.429,18.992,48.84388,2.3533132,102.823,NaN,0.0,12.864,,4 / 24,,40,2022-01-20 11:40:09:003
-3.15404,5.23609,8.74068,-2.72321,5.1136,7.91237,-0.98058,0.44197,-0.84132,-0.28628,0.36711,0.71743,23.925,-20.4,-9.075,246.594,-31.429,18.992,48.84388,2.3533132,102.823,NaN,0.0,12.864,,4 / 24,,44,2022-01-20 11:40:09:007
-3.15404,5.23609,8.74068,-2.72321,5.1136,7.91237,-0.98058,0.44197,-0.84132,-0.28628,0.36711,0.71743,23.025,-20.7,-9.825,243.836,-31.429,18.992,48.84388,2.3533132,102.823,NaN,0.0,12.864,,4 / 24,,49,2022-01-20 11:40:09:012
-3.15404,5.23609,8.74068,-2.48652,4.99536,8.06437,-0.98058,0.44197,-0.84132,-0.28628,0.36711,0.71743,23.025,-20.7,-9.825,243.836,-31.429,18.992,48.84388,2.3533132,102.823,NaN,0.0,12.864,,4 / 24,,57,2022-01-20 11:40:09:020
-3.15404,5.23609,8.74068,-2.48652,4.99536,8.06437,-0.98058,0.44197,-0.84132,-0.28628,0.36711,0.71743,23.025,-20.7,-9.825,243.836,-31.429,18.992,48.84388,2.3533132,102.823,NaN,0.0,12.864,,4 / 24,,59,2022-01-20 11:40:09:022
-3.15404,5.23609,8.74068,-2.48652,4.99536,8.06437,0.22687,0.22828,0.66259,-0.28628,0.36711,0.71743,23.025,-20.7,-9.825,243.836,-31.429,18.992,48.84388,2.3533132,102.823,NaN,0.0,12.864,,4 / 24,,64,2022-01-20 11:40:09:027
-3.15404,5.23609,8.74068,-2.48652,4.99536,8.06437,0.22687,0.22828,0.66259,-0.28628,0.36711,0.71743,23.025,-20.7,-9.825,243.836,-31.429,18.992,48.84388,2.3533132,102.823,NaN,0.0,12.864,,4 / 24,,70,2022-01-20 11:40:09:033
-3.15404,5.23609,8.74068,-2.48652,4.99536,8.06437,0.22687,0.22828,0.66259,-0.28628,0.36711,0.71743,23.025,-20.7,-9.825,243.836,-31.429,18.992,48.84388,2.3533132,102.823,NaN,0.0,12.864,,4 / 24,,74,2022-01-20 11:40:09:037
-3.15404,5.23609,8.74068,-2.48652,4.99536,8.06437,0.22687,0.22828,0.66259,-0.28628,0.36711,0.71743,23.025,-20.7,-9.825,243.836,-31.429,18.992,48.84388,2.3533132,102.823,NaN,0.0,12.864,,4 / 24,,79,2022-01-20 11:40:09:042
-3.15404,5.23609,8.74068,-2.48652,4.99536,8.06437,0.22687,0.22828,0.66259,-0.28628,0.36711,0.71743,23.025,-20.7,-9.825,243.836,-31.429,18.992,48.84388,2.3533132,102.823,NaN,0.0,12.864,,4 / 24,,84,2022-01-20 11:40:09:047
-3.15404,5.23609,8.74068,-2.48652,4.99536,8.06437,0.22687,0.22828,0.66259,-0.28628,0.36711,0.71743,23.025,-20.7,-9.825,243.836,-31.429,18.992,48.84388,2.3533132,102.823,NaN,0.0,12.864,,4 / 24,,89,2022-01-20 11:40:09:052
-3.15404,5.23609,8.74068,-2.48652,4.99536,8.06437,0.22687,0.22828,0.66259,-0.28628,0.36711,0.71743,23.025,-20.7,-9.825,243.836,-31.429,18.992,48.84388,2.3533132,102.823,NaN,0.0,12.864,,4 / 24,,95,2022-01-20 11:40:09:058
-4.41416,5.11017,6.87099,-2.48652,4.99536,8.06437,0.22687,0.22828,0.66259,-0.28628,0.36711,0.71743,23.025,-20.7,-9.825,243.836,-31.429,18.992,48.84388,2.3533132,102.823,NaN,0.0,12.864,,4 / 24,,102,2022-01-20 11:40:09:065
-4.41416,5.11017,6.87099,-2.48652,4.99536,8.06437,0.22687,0.22828,0.66259,-0.28628,0.36711,0.71743,23.025,-20.7,-9.825,243.836,-31.429,18.992,48.84388,2.3533132,102.823,NaN,0.0,12.864,,4 / 24,,105,2022-01-20 11:40:09:068
-4.41416,5.11017,6.87099,-2.48652,4.99536,8.06437,0.22687,0.22828,0.66259,-0.28628,0.36711,0.71743,23.025,-20.7,-9.825,243.836,-31.429,18.992,48.84388,2.3533132,102.823,NaN,0.0,12.864,,4 / 24,,109,2022-01-20 11:40:09:072
-4.41416,5.11017,6.87099,-2.48652,4.99536,8.06437,0.22687,0.22828,0.66259,-0.28628,0.36711,0.71743,23.025,-20.7,-9.825,243.836,-31.429,18.992,48.84388,2.3533132,102.823,NaN,0.0,12.864,,4 / 24,,115,2022-01-20 11:40:09:078
-4.41416,5.11017,6.87099,-2.48652,4.99536,8.06437,0.22687,0.22828,0.66259,-0.28628,0.36711,0.71743,23.025,-20.7,-9.825,243.836,-31.429,18.992,48.84388,2.3533132,102.823,NaN,0.0,12.864,,4 / 24,,119,2022-01-20 11:40:09:082
-4.41416,5.11017,6.87099,-2.48652,4.99536,8.06437,0.22687,0.22828,0.66259,-0.28628,0.36711,0.71743,23.025,-20.7,-9.825,243.836,-31.429,18.992,48.84388,2.3533132,102.823,NaN,0.0,12.864,,4 / 24,,124,2022-01-20 11:40:09:087
-4.41416,5.11017,6.87099,-2.48652,4.99536,8.06437,0.22687,0.22828,0.66259,-0.28628,0.36711,0.71743,23.025,-20.7,-9.825,243.836,-31.429,18.992,48.84388,2.3533132,102.823,NaN,0.0,12.864,,4 / 24,,129,2022-01-20 11:40:09:092
-4.41416,5.11017,6.87099,-2.48652,4.99536,8.06437,0.22687,0.22828,0.66259,-0.28628,0.36711,0.71743,23.025,-20.7,-9.825,243.836,-31.429,18.992,48.84388,2.3533132,102.823,NaN,0.0,12.864,,4 / 24,,134,2022-01-20 11:40:09:097
-4.41416,5.11017,6.87099,-2.48652,4.99536,8.06437,0.22687,0.22828,0.66259,-0.28628,0.36711,0.71743,23.025,-20.7,-9.825,243.836,-31.429,18.992,48.84388,2.3533132,102.823,NaN,0.0,12.864,,4 / 24,,139,2022-01-20 11:40:09:102
-4.41416,5.11017,6.87099,-2.48652,4.99536,8.06437,0.22687,0.22828,0.66259,-0.28628,0.36711,0.71743,23.025,-20.7,-9.825,243.836,-31.429,18.992,48.84388,2.3533132,102.823,NaN,0.0,12.864,,4 / 24,,145,2022-01-20 11:40:09:108
-4.41416,5.11017,6.87099,-2.48652,4.99536,8.06437,0.22687,0.22828,0.66259,-0.28628,0.36711,0.71743,22.425,-21.225,-10.125,241.288,-30.623,17.136,48.84388,2.3533132,102.823,NaN,0.0,12.864,,4 / 24,,149,2022-01-20 11:40:09:112
-4.41416,5.11017,6.87099,-2.48652,4.99536,8.06437,0.22687,0.22828,0.66259,-0.28628,0.36711,0.71743,22.425,-21.225,-10.125,241.288,-30.623,17.136,48.84388,2.3533132,102.823,NaN,0.0,12.864,,4 / 24,,155,2022-01-20 11:40:09:118
-4.41416,5.11017,6.87099,-2.48652,4.99536,8.06437,0.22687,0.22828,0.66259,-0.28628,0.36711,0.71743,22.425,-21.225,-10.125,241.288,-30.623,17.136,48.84388,2.3533132,102.823,NaN,0.0,12.864,,4 / 24,,159,2022-01-20 11:40:09:122
-4.41416,5.11017,6.87099,-2.48652,4.99536,8.06437,0.22687,0.22828,0.66259,-0.28628,0.36711,0.71743,22.425,-21.225,-10.125,241.288,-30.623,17.136,48.84388,2.3533132,102.823,NaN,0.0,12.864,,4 / 24,,165,2022-01-20 11:40:09:128
-4.41416,5.11017,6.87099,-2.48652,4.99536,8.06437,0.22687,0.22828,0.66259,-0.28628,0.36711,0.71743,22.425,-21.225,-10.125,241.288,-30.623,17.136,48.84388,2.3533132,102.823,NaN,0.0,12.864,,4 / 24,,170,2022-01-20 11:40:09:133
-1.54786,4.56162,8.53819,-2.28703,5.20809,7.98847,-0.98061,-0.28874,-1.2245,-0.25645,0.71198,1.33514,22.425,-21.225,-10.125,241.288,-30.623,17.136,48.84388,2.3533132,102.823,NaN,0.0,12.864,,4 / 24,,174,2022-01-20 11:40:09:137
-1.54786,4.56162,8.53819,-2.28703,5.20809,7.98847,-0.98061,-0.28874,-1.2245,-0.25645,0.71198,1.33514,22.425,-21.225,-10.125,241.288,-30.623,17.136,48.84388,2.3533132,102.823,NaN,0.0,12.864,,4 / 24,,179,2022-01-20 11:40:09:142
-1.54786,4.56162,8.53819,-2.28703,5.20809,7.98847,-0.98061,-0.28874,-1.2245,-0.25645,0.71198,1.33514,22.425,-21.225,-10.125,241.288,-30.623,17.136,48.84388,2.3533132,102.823,NaN,0.0,12.864,,4 / 24,,185,2022-01-20 11:40:09:148
-1.54786,4.56162,8.53819,-2.28703,5.20809,7.98847,-0.98061,-0.28874,-1.2245,-0.25645,0.71198,1.33514,22.425,-21.225,-10.125,241.288,-30.623,17.136,48.84388,2.3533132,102.823,NaN,0.0,12.864,,4 / 24,,189,2022-01-20 11:40:09:152
-1.54786,4.56162,8.53819,-2.28703,5.20809,7.98847,-0.98061,-0.28874,-1.2245,-0.25645,0.71198,1.33514,22.425,-21.225,-10.125,241.288,-30.623,17.136,48.84388,2.3533132,102.823,NaN,0.0,12.864,,4 / 24,,194,2022-01-20 11:40:09:157
-1.54786,4.56162,8.53819,-2.28703,5.20809,7.98847,-0.98061,-0.28874,-1.2245,-0.25645,0.71198,1.33514,22.425,-21.225,-10.125,241.288,-30.623,17.136,48.84388,2.3533132,102.823,NaN,0.0,12.864,,4 / 24,,199,2022-01-20 11:40:09:162
-1.54786,4.56162,8.53819,-2.28703,5.20809,7.98847,-0.98061,-0.28874,-1.2245,-0.25645,0.71198,1.33514,22.425,-21.225,-10.125,241.288,-30.623,17.136,48.84388,2.3533132,102.823,NaN,0.0,12.864,,4 / 24,,204,2022-01-20 11:40:09:167
-1.54786,4.56162,8.53819,-2.28703,5.20809,7.98847,-0.98061,-0.28874,-1.2245,-0.25645,0.71198,1.33514,22.425,-21.225,-10.125,241.288,-30.623,17.136,48.84388,2.3533132,102.823,NaN,0.0,12.864,,4 / 24,,209,2022-01-20 11:40:09:172
-1.54786,4.56162,8.53819,-2.28703,5.20809,7.98847,-0.98061,-0.28874,-1.2245,-0.25645,0.71198,1.33514,22.425,-21.225,-10.125,241.288,-30.623,17.136,48.84388,2.3533132,102.823,NaN,0.0,12.864,,4 / 24,,214,2022-01-20 11:40:09:177
-1.54786,4.56162,8.53819,-2.28703,5.20809,7.98847,-0.98061,-0.28874,-1.2245,-0.25645,0.71198,1.33514,22.425,-21.225,-10.125,241.288,-30.623,17.136,48.84388,2.3533132,102.823,NaN,0.0,12.864,,4 / 24,,219,2022-01-20 11:40:09:182
-1.54786,4.56162,8.53819,-2.28703,5.20809,7.98847,-0.98061,-0.28874,-1.2245,-0.25645,0.71198,1.33514,22.425,-21.225,-10.125,241.288,-30.623,17.136,48.84388,2.3533132,102.823,NaN,0.0,12.864,,4 / 24,,223,2022-01-20 11:40:09:186
-1.54786,4.56162,8.53819,-2.28703,5.20809,7.98847,-0.98061,-0.28874,-1.2245,-0.25645,0.71198,1.33514,22.425,-21.225,-10.125,241.288,-30.623,17.136,48.84388,2.3533132,102.823,NaN,0.0,12.864,,4 / 24,,229,2022-01-20 11:40:09:192
-1.54786,4.56162,8.53819,-2.28703,5.20809,7.98847,-0.98061,-0.28874,-1.2245,-0.25645,0.71198,1.33514,22.425,-21.225,-10.125,241.288,-30.623,17.136,48.84388,2.3533132,102.823,NaN,0.0,12.864,,4 / 24,,234,2022-01-20 11:40:09:197
0.032,3.57847,9.28924,-2.28542,5.1577,8.02155,0.99137,-0.7308,0.29335,-0.25645,0.71198,1.33514,22.425,-21.225,-10.125,241.288,-30.623,17.136,48.84388,2.3533132,102.823,NaN,0.0,12.864,,4 / 24,,239,2022-01-20 11:40:09:202
0.032,3.57847,9.28924,-2.28542,5.1577,8.02155,0.99137,-0.7308,0.29335,-0.42343,0.72423,1.04686,22.425,-21.225,-10.125,241.288,-30.623,17.136,48.84388,2.3533132,102.823,NaN,0.0,12.864,,4 / 24,,244,2022-01-20 11:40:09:207
0.032,3.57847,9.28924,-2.28542,5.1577,8.02155,0.99137,-0.7308,0.29335,-0.42343,0.72423,1.04686,21.075,-22.425,-10.35,238.668,-31.732,15.903,48.84388,2.3533132,102.823,NaN,0.0,12.864,,4 / 24,,249,2022-01-20 11:40:09:212
0.032,3.57847,9.28924,-2.28542,5.1577,8.02155,0.99137,-0.7308,0.29335,-0.42343,0.72423,1.04686,21.075,-22.425,-10.35,238.668,-31.732,15.903,48.84388,2.3533132,102.823,NaN,0.0,12.864,,4 / 24,,254,2022-01-20 11:40:09:217
0.032,3.57847,9.28924,-2.28542,5.1577,8.02155,0.99137,-0.7308,0.29335,-0.42343,0.72423,1.04686,21.075,-22.425,-10.35,238.668,-31.732,15.903,48.84388,2.3533132,102.823,NaN,0.0,12.864,,4 / 24,,259,2022-01-20 11:40:09:222
0.032,3.57847,9.28924,-2.28542,5.1577,8.02155,0.99137,-0.7308,0.29335,-0.42343,0.72423,1.04686,21.075,-22.425,-10.35,238.668,-31.732,15.903,48.84388,2.3533132,102.823,NaN,0.0,12.864,,4 / 24,,264,2022-01-20 11:40:09:227
0.032,3.57847,9.28924,-2.28542,5.1577,8.02155,0.99137,-0.7308,0.29335,-0.42343,0.72423,1.04686,21.075,-22.425,-10.35,238.668,-31.732,15.903,48.84388,2.3533132,102.823,NaN,0.0,12.864,,4 / 24,,269,2022-01-20 11:40:09:232
0.032,3.57847,9.28924,-2.28542,5.1577,8.02155,0.99137,-0.7308,0.29335,-0.42343,0.72423,1.04686,21.075,-22.425,-10.35,238.668,-31.732,15.903,48.84388,2.3533132,102.823,NaN,0.0,12.864,,4 / 24,,289,2022-01-20 11:40:09:252
0.032,3.57847,9.28924,-2.28542,5.1577,8.02155,0.99137,-0.7308,0.29335,-0.42343,0.72423,1.04686,21.075,-22.425,-10.35,238.668,-31.732,15.903,48.84388,2.3533132,102.823,NaN,0.0,12.864,,4 / 24,,290,2022-01-20 11:40:09:253
0.032,3.57847,9.28924,-2.28542,5.1577,8.02155,0.99137,-0.7308,0.29335,-0.42343,0.72423,1.04686,21.075,-22.425,-10.35,238.668,-31.732,15.903,48.84388,2.3533132,102.823,NaN,0.0,12.864,,4 / 24,,290,2022-01-20 11:40:09:253
0.032,3.57847,9.28924,-2.28542,5.1577,8.02155,0.99137,-0.7308,0.29335,-0.42343,0.72423,1.04686,21.075,-22.425,-10.35,238.668,-31.732,15.903,48.84388,2.3533132,102.823,NaN,0.0,12.864,,4 / 24,,290,2022-01-20 11:40:09:253
0.032,3.57847,9.28924,-2.28542,5.1577,8.02155,0.99137,-0.7308,0.29335,-0.42343,0.72423,1.04686,21.075,-22.425,-10.35,238.668,-31.732,15.903,48.84388,2.3533132,102.823,NaN,0.0,12.864,,4 / 24,,294,2022-01-20 11:40:09:257
0.032,3.57847,9.28924,-2.28542,5.1577,8.02155,0.99137,-0.7308,0.29335,-0.42343,0.72423,1.04686,21.075,-22.425,-10.35,238.668,-31.732,15.903,48.84388,2.3533132,102.823,NaN,0.0,12.864,,4 / 24,,299,2022-01-20 11:40:09:262
-0.90239,4.47907,6.83031,-2.56987,5.02567,8.01928,2.40815,-0.98861,1.00673,-0.42343,0.72423,1.04686,21.075,-22.425,-10.35,238.668,-31.732,15.903,48.84388,2.3533132,102.823,NaN,0.0,12.864,,4 / 24,,305,2022-01-20 11:40:09:268
-0.90239,4.47907,6.83031,-2.56987,5.02567,8.01928,2.40815,-0.98861,1.00673,-0.42343,0.72423,1.04686,21.075,-22.425,-10.35,238.668,-31.732,15.903,48.84388,2.3533132,102.823,NaN,0.0,12.864,,4 / 24,,309,2022-01-20 11:40:09:272
-0.90239,4.47907,6.83031,-2.56987,5.02567,8.01928,2.40815,-0.98861,1.00673,-0.42343,0.72423,1.04686,21.075,-22.425,-10.35,238.668,-31.732,15.903,48.84388,2.3533132,102.823,NaN,0.0,12.864,,4 / 24,,314,2022-01-20 11:40:09:277
-0.90239,4.47907,6.83031,-2.56987,5.02567,8.01928,2.40815,-0.98861,1.00673,-0.42343,0.72423,1.04686,21.075,-22.425,-10.35,238.668,-31.732,15.903,48.84388,2.3533132,102.823,NaN,0.0,12.864,,4 / 24,,319,2022-01-20 11:40:09:282
-0.90239,4.47907,6.83031,-2.56987,5.02567,8.01928,2.40815,-0.98861,1.00673,-0.42343,0.72423,1.04686,21.075,-22.425,-10.35,238.668,-31.732,15.903,48.84388,2.3533132,102.823,NaN,0.0,12.864,,4 / 24,,325,2022-01-20 11:40:09:288
-0.90239,4.47907,6.83031,-2.56987,5.02567,8.01928,2.40815,-0.98861,1.00673,-0.42343,0.72423,1.04686,21.075,-22.425,-10.35,238.668,-31.732,15.903,48.84388,2.3533132,102.823,NaN,0.0,12.864,,4 / 24,,330,2022-01-20 11:40:09:293
-0.90239,4.47907,6.83031,-2.56987,5.02567,8.01928,2.40815,-0.98861,1.00673,-0.42343,0.72423,1.04686,21.075,-22.425,-10.35,238.668,-31.732,15.903,48.84388,2.3533132,102.823,NaN,0.0,12.864,,4 / 24,,334,2022-01-20 11:40:09:297
-0.90239,4.47907,6.83031,-2.56987,5.02567,8.01928,2.40815,-0.98861,1.00673,-0.42343,0.72423,1.04686,21.075,-22.425,-10.35,238.668,-31.732,15.903,48.84388,2.3533132,102.823,NaN,0.0,12.864,,4 / 24,,340,2022-01-20 11:40:09:303
-0.90239,4.47907,6.83031,-2.56987,5.02567,8.01928,2.40815,-0.98861,1.00673,-0.42343,0.72423,1.04686,21.075,-22.425,-10.35,238.668,-31.732,15.903,48.84388,2.3533132,102.823,NaN,0.0,12.864,,4 / 24,,345,2022-01-20 11:40:09:308
-0.90239,4.47907,6.83031,-2.56987,5.02567,8.01928,2.40815,-0.98861,1.00673,-0.42343,0.72423,1.04686,20.1,-23.25,-10.275,233.716,-30.829,17.769,48.84388,2.3533132,102.823,NaN,0.0,12.864,,4 / 24,,349,2022-01-20 11:40:09:312
-0.90239,4.47907,6.83031,-2.56987,5.02567,8.01928,2.40815,-0.98861,1.00673,-0.42343,0.72423,1.04686,20.1,-23.25,-10.275,233.716,-30.829,17.769,48.84388,2.3533132,102.823,NaN,0.0,12.864,,4 / 24,,355,2022-01-20 11:40:09:318
-0.90239,4.47907,6.83031,-2.56987,5.02567,8.01928,2.40815,-0.98861,1.00673,-0.42343,0.72423,1.04686,20.1,-23.25,-10.275,233.716,-30.829,17.769,48.84388,2.3533132,102.823,NaN,0.0,12.864,,4 / 24,,360,2022-01-20 11:40:09:323
-0.90239,4.47907,6.83031,-2.56987,5.02567,8.01928,2.40815,-0.98861,1.00673,-0.42343,0.72423,1.04686,20.1,-23.25,-10.275,233.716,-30.829,17.769,48.84388,2.3533132,102.823,NaN,0.0,12.864,,4 / 24,,365,2022-01-20 11:40:09:328
-0.90239,4.47907,6.83031,-2.56987,5.02567,8.01928,2.40815,-0.98861,1.00673,-0.42343,0.72423,1.04686,20.1,-23.25,-10.275,233.716,-30.829,17.769,48.84388,2.3533132,102.823,NaN,0.0,12.864,,4 / 24,,369,2022-01-20 11:40:09:332
2.02732,3.18664,11.10509,-2.56987,5.02567,8.01928,2.40815,-0.98861,1.00673,-1.10837,-0.05007,1.41343,20.1,-23.25,-10.275,233.716,-30.829,17.769,48.84388,2.3533132,102.823,NaN,0.0,12.864,,4 / 24,,375,2022-01-20 11:40:09:338
2.02732,3.18664,11.10509,-2.56987,5.02567,8.01928,2.40815,-0.98861,1.00673,-1.10837,-0.05007,1.41343,20.1,-23.25,-10.275,233.716,-30.829,17.769,48.84388,2.3533132,102.823,NaN,0.0,12.864,,4 / 24,,379,2022-01-20 11:40:09:342
2.02732,3.18664,11.10509,-2.56987,5.02567,8.01928,2.40815,-0.98861,1.00673,-1.10837,-0.05007,1.41343,20.1,-23.25,-10.275,233.716,-30.829,17.769,48.84388,2.3533132,102.823,NaN,0.0,12.864,,4 / 24,,384,2022-01-20 11:40:09:347
2.02732,3.18664,11.10509,-2.56987,5.02567,8.01928,2.40815,-0.98861,1.00673,-1.10837,-0.05007,1.41343,20.1,-23.25,-10.275,233.716,-30.829,17.769,48.84388,2.3533132,102.823,NaN,0.0,12.864,,4 / 24,,389,2022-01-20 11:40:09:352
2.02732,3.18664,11.10509,-2.56987,5.02567,8.01928,2.40815,-0.98861,1.00673,-1.10837,-0.05007,1.41343,20.1,-23.25,-10.275,233.716,-30.829,17.769,48.84388,2.3533132,102.823,NaN,0.0,12.864,,4 / 24,,395,2022-01-20 11:40:09:358
2.02732,3.18664,11.10509,-2.56987,5.02567,8.01928,2.40815,-0.98861,1.00673,-1.10837,-0.05007,1.41343,20.1,-23.25,-10.275,233.716,-30.829,17.769,48.84388,2.3533132,102.823,NaN,0.0,12.864,,4 / 24,,400,2022-01-20 11:40:09:363
2.02732,3.18664,11.10509,-2.56987,5.02567,8.01928,2.40815,-0.98861,1.00673,-1.10837,-0.05007,1.41343,20.1,-23.25,-10.275,233.716,-30.829,17.769,48.84388,2.3533132,102.823,NaN,0.0,12.864,,4 / 24,,405,2022-01-20 11:40:09:368
2.02732,3.18664,11.10509,-2.56987,5.02567,8.01928,2.40815,-0.98861,1.00673,-1.10837,-0.05007,1.41343,20.1,-23.25,-10.275,233.716,-30.829,17.769,48.84388,2.3533132,102.823,NaN,0.0,12.864,,4 / 24,,409,2022-01-20 11:40:09:372
2.02732,3.18664,11.10509,-2.16684,4.3302,8.52787,1.70165,1.19024,2.30623,-1.10837,-0.05007,1.41343,20.1,-23.25,-10.275,233.716,-30.829,17.769,48.84388,2.3533132,102.823,NaN,0.0,12.864,,4 / 24,,414,2022-01-20 11:40:09:377
2.02732,3.18664,11.10509,-2.16684,4.3302,8.52787,1.70165,1.19024,2.30623,-1.10837,-0.05007,1.41343,20.1,-23.25,-10.275,233.716,-30.829,17.769,48.84388,2.3533132,102.823,NaN,0.0,12.864,,4 / 24,,419,2022-01-20 11:40:09:382
2.02732,3.18664,11.10509,-2.16684,4.3302,8.52787,1.70165,1.19024,2.30623,-1.10837,-0.05007,1.41343,20.1,-23.25,-10.275,233.716,-30.829,17.769,48.84388,2.3533132,102.823,NaN,0.0,12.864,,4 / 24,,424,2022-01-20 11:40:09:387
2.02732,3.18664,11.10509,-2.16684,4.3302,8.52787,1.70165,1.19024,2.30623,-1.10837,-0.05007,1.41343,20.1,-23.25,-10.275,233.716,-30.829,17.769,48.84388,2.3533132,102.823,NaN,0.0,12.864,,4 / 24,,429,2022-01-20 11:40:09:392
2.02732,3.18664,11.10509,-2.16684,4.3302,8.52787,1.70165,1.19024,2.30623,-1.10837,-0.05007,1.41343,20.1,-23.25,-10.275,233.716,-30.829,17.769,48.84388,2.3533132,102.823,NaN,0.0,12.864,,4 / 24,,434,2022-01-20 11:40:09:397
2.02732,3.18664,11.10509,-2.16684,4.3302,8.52787,1.70165,1.19024,2.30623,-1.10837,-0.05007,1.41343,20.1,-23.25,-10.275,233.716,-30.829,17.769,48.84388,2.3533132,102.823,NaN,0.0,12.864,,4 / 24,,439,2022-01-20 11:40:09:402
-7.99173,4.15095,11.7338,-2.16684,4.3302,8.52787,1.70165,1.19024,2.30623,-1.52928,2.09318,2.76521,20.1,-23.25,-10.275,233.716,-30.829,17.769,48.84388,2.3533132,102.823,NaN,0.0,12.864,,4 / 24,,444,2022-01-20 11:40:09:407
-7.99173,4.15095,11.7338,-2.16684,4.3302,8.52787,1.70165,1.19024,2.30623,-1.52928,2.09318,2.76521,20.1,-23.25,-10.275,233.716,-30.829,17.769,48.84388,2.3533132,102.823,NaN,0.0,12.864,,4 / 24,,449,2022-01-20 11:40:09:412
-7.99173,4.15095,11.7338,-2.16684,4.3302,8.52787,1.70165,1.19024,2.30623,-1.52928,2.09318,2.76521,17.925,-24.45,-10.875,224.745,-26.203,14.257,48.84388,2.3533132,102.823,NaN,0.0,12.864,,4 / 24,,459,2022-01-20 11:40:09:422
-7.99173,4.15095,11.7338,-2.16684,4.3302,8.52787,1.70165,1.19024,2.30623,-1.52928,2.09318,2.76521,17.925,-24.45,-10.875,224.745,-26.203,14.257,48.84388,2.3533132,102.823,NaN,0.0,12.864,,4 / 24,,460,2022-01-20 11:40:09:423
-7.99173,4.15095,11.7338,-2.16684,4.3302,8.52787,1.70165,1.19024,2.30623,-1.52928,2.09318,2.76521,17.925,-24.45,-10.875,224.745,-26.203,14.257,48.84388,2.3533132,102.823,NaN,0.0,12.864,,4 / 24,,464,2022-01-20 11:40:09:427
-7.99173,4.15095,11.7338,-2.16684,4.3302,8.52787,1.70165,1.19024,2.30623,-1.52928,2.09318,2.76521,17.925,-24.45,-10.875,224.745,-26.203,14.257,48.84388,2.3533132,102.823,NaN,0.0,12.864,,4 / 24,,468,2022-01-20 11:40:09:431
-7.99173,4.15095,11.7338,-2.16684,4.3302,8.52787,1.70165,1.19024,2.30623,-1.52928,2.09318,2.76521,17.925,-24.45,-10.875,224.745,-26.203,14.257,48.84388,2.3533132,102.823,NaN,0.0,12.864,,4 / 24,,474,2022-01-20 11:40:09:437
-7.99173,4.15095,11.7338,-2.16684,4.3302,8.52787,1.70165,1.19024,2.30623,-1.52928,2.09318,2.76521,17.925,-24.45,-10.875,224.745,-26.203,14.257,48.84388,2.3533132,102.823,NaN,0.0,12.864,,4 / 24,,479,2022-01-20 11:40:09:442
-7.99173,4.15095,11.7338,-2.16684,4.3302,8.52787,1.70165,1.19024,2.30623,-1.52928,2.09318,2.76521,17.925,-24.45,-10.875,224.745,-26.203,14.257,48.84388,2.3533132,102.823,NaN,0.0,12.864,,4 / 24,,484,2022-01-20 11:40:09:447
-7.99173,4.15095,11.7338,-2.16684,4.3302,8.52787,1.70165,1.19024,2.30623,-1.52928,2.09318,2.76521,17.925,-24.45,-10.875,224.745,-26.203,14.257,48.84388,2.3533132,102.823,NaN,0.0,12.864,,4 / 24,,489,2022-01-20 11:40:09:452
-7.99173,4.15095,11.7338,-2.43809,4.2991,8.47017,1.30767,-0.94421,1.403,-1.52928,2.09318,2.76521,17.925,-24.45,-10.875,224.745,-26.203,14.257,48.84388,2.3533132,102.823,NaN,0.0,12.864,,4 / 24,,494,2022-01-20 11:40:09:457
-7.99173,4.15095,11.7338,-2.43809,4.2991,8.47017,1.30767,-0.94421,1.403,-1.52928,2.09318,2.76521,17.925,-24.45,-10.875,224.745,-26.203,14.257,48.84388,2.3533132,102.823,NaN,0.0,12.864,,4 / 24,,498,2022-01-20 11:40:09:461
-7.99173,4.15095,11.7338,-2.43809,4.2991,8.47017,1.30767,-0.94421,1.403,-1.52928,2.09318,2.76521,17.925,-24.45,-10.875,224.745,-26.203,14.257,48.84388,2.3533132,102.823,NaN,0.0,12.864,,4 / 24,,504,2022-01-20 11:40:09:467
-5.74846,2.56989,8.81845,-2.43809,4.2991,8.47017,1.30767,-0.94421,1.403,-1.52928,2.09318,2.76521,17.925,-24.45,-10.875,224.745,-26.203,14.257,48.84388,2.3533132,102.823,NaN,0.0,12.864,,4 / 24,,536,2022-01-20 11:40:09:499
-5.74846,2.56989,8.81845,-2.43809,4.2991,8.47017,1.30767,-0.94421,1.403,-1.52928,2.09318,2.76521,17.925,-24.45,-10.875,224.745,-26.203,14.257,48.84388,2.3533132,102.823,NaN,0.0,12.864,,4 / 24,,537,2022-01-20 11:40:09:500
-5.74846,2.56989,8.81845,-2.43809,4.2991,8.47017,1.30767,-0.94421,1.403,-1.52928,2.09318,2.76521,17.925,-24.45,-10.875,224.745,-26.203,14.257,48.84388,2.3533132,102.823,NaN,0.0,12.864,,4 / 24,,538,2022-01-20 11:40:09:501
-5.74846,2.56989,8.81845,-2.43809,4.2991,8.47017,1.30767,-0.94421,1.403,-1.52928,2.09318,2.76521,17.925,-24.45,-10.875,224.745,-26.203,14.257,48.84388,2.3533132,102.823,NaN,0.0,12.864,,4 / 24,,538,2022-01-20 11:40:09:501
-5.74846,2.56989,8.81845,-2.43809,4.2991,8.47017,1.30767,-0.94421,1.403,-1.52928,2.09318,2.76521,17.925,-24.45,-10.875,224.745,-26.203,14.257,48.84388,2.3533132,102.823,NaN,0.0,12.864,,4 / 24,,538,2022-01-20 11:40:09:501
-5.74846,2.56989,8.81845,-2.43809,4.2991,8.47017,1.30767,-0.94421,1.403,-1.52928,2.09318,2.76521,17.925,-24.45,-10.875,224.745,-26.203,14.257,48.84388,2.3533132,102.823,NaN,0.0,12.864,,4 / 24,,539,2022-01-20 11:40:09:502
-5.74846,2.56989,8.81845,-2.43809,4.2991,8.47017,1.30767,-0.94421,1.403,-1.52928,2.09318,2.76521,17.925,-24.45,-10.875,224.745,-26.203,14.257,48.84388,2.3533132,102.823,NaN,0.0,12.864,,4 / 24,,539,2022-01-20 11:40:09:502
-5.74846,2.56989,8.81845,-2.43809,4.2991,8.47017,1.30767,-0.94421,1.403,-1.52928,2.09318,2.76521,17.925,-24.45,-10.875,224.745,-26.203,14.257,48.84388,2.3533132,102.823,NaN,0.0,12.864,,4 / 24,,544,2022-01-20 11:40:09:507
-5.74846,2.56989,8.81845,-2.43809,4.2991,8.47017,1.30767,-0.94421,1.403,-1.52928,2.09318,2.76521,16.35,-25.2,-10.875,217.807,-26.001,16.058,48.84388,2.3533132,102.823,NaN,0.0,12.864,,4 / 24,,548,2022-01-20 11:40:09:511
-5.74846,2.56989,8.81845,-2.43809,4.2991,8.47017,1.30767,-0.94421,1.403,-1.52928,2.09318,2.76521,16.35,-25.2,-10.875,217.807,-26.001,16.058,48.84388,2.3533132,102.823,NaN,0.0,12.864,,4 / 24,,554,2022-01-20 11:40:09:517
-5.74846,2.56989,8.81845,-2.43809,4.2991,8.47017,1.30767,-0.94421,1.403,-1.52928,2.09318,2.76521,16.35,-25.2,-10.875,217.807,-26.001,16.058,48.84388,2.3533132,102.823,NaN,0.0,12.864,,4 / 24,,559,2022-01-20 11:40:09:522
-5.74846,2.56989,8.81845,-2.43809,4.2991,8.47017,1.30767,-0.94421,1.403,-1.52928,2.09318,2.76521,16.35,-25.2,-10.875,217.807,-26.001,16.058,48.84388,2.3533132,102.823,NaN,0.0,12.864,,4 / 24,,564,2022-01-20 11:40:09:527
-5.74846,2.56989,8.81845,-2.43809,4.2991,8.47017,1.30767,-0.94421,1.403,-1.52928,2.09318,2.76521,16.35,-25.2,-10.875,217.807,-26.001,16.058,48.84388,2.3533132,102.823,NaN,0.0,12.864,,4 / 24,,568,2022-01-20 11:40:09:531
-5.74846,2.56989,8.81845,-2.43809,4.2991,8.47017,1.30767,-0.94421,1.403,-0.09481,1.43354,1.55564,16.35,-25.2,-10.875,217.807,-26.001,16.058,48.84388,2.3533132,102.823,NaN,0.0,12.864,,4 / 24,,574,2022-01-20 11:40:09:537
-2.72513,4.12582,6.05534,-2.43809,4.2991,8.47017,1.30767,-0.94421,1.403,-0.09481,1.43354,1.55564,16.35,-25.2,-10.875,217.807,-26.001,16.058,48.84388,2.3533132,102.823,NaN,0.0,12.864,,4 / 24,,578,2022-01-20 11:40:09:541
-2.72513,4.12582,6.05534,-2.43809,4.2991,8.47017,1.30767,-0.94421,1.403,-0.09481,1.43354,1.55564,16.35,-25.2,-10.875,217.807,-26.001,16.058,48.84388,2.3533132,102.823,NaN,0.0,12.864,,4 / 24,,584,2022-01-20 11:40:09:547
-2.72513,4.12582,6.05534,-2.43809,4.2991,8.47017,1.30767,-0.94421,1.403,-0.09481,1.43354,1.55564,16.35,-25.2,-10.875,217.807,-26.001,16.058,48.84388,2.3533132,102.823,NaN,0.0,12.864,,4 / 24,,589,2022-01-20 11:40:09:552
-2.72513,4.12582,6.05534,-2.93377,4.7605,8.05611,-2.59774,-1.74252,-0.95569,-0.09481,1.43354,1.55564,16.35,-25.2,-10.875,217.807,-26.001,16.058,48.84388,2.3533132,102.823,NaN,0.0,12.864,,4 / 24,,594,2022-01-20 11:40:09:557
-2.72513,4.12582,6.05534,-2.93377,4.7605,8.05611,-2.59774,-1.74252,-0.95569,-0.09481,1.43354,1.55564,16.35,-25.2,-10.875,217.807,-26.001,16.058,48.84388,2.3533132,102.823,NaN,0.0,12.864,,4 / 24,,603,2022-01-20 11:40:09:566
-2.72513,4.12582,6.05534,-2.93377,4.7605,8.05611,-2.59774,-1.74252,-0.95569,-0.09481,1.43354,1.55564,16.35,-25.2,-10.875,217.807,-26.001,16.058,48.84388,2.3533132,102.823,NaN,0.0,12.864,,4 / 24,,603,2022-01-20 11:40:09:566
-2.72513,4.12582,6.05534,-2.93377,4.7605,8.05611,-2.59774,-1.74252,-0.95569,-0.09481,1.43354,1.55564,16.35,-25.2,-10.875,217.807,-26.001,16.058,48.84388,2.3533132,102.823,NaN,0.0,12.864,,4 / 24,,609,2022-01-20 11:40:09:572
-2.72513,4.12582,6.05534,-2.93377,4.7605,8.05611,-2.59774,-1.74252,-0.95569,-0.09481,1.43354,1.55564,16.35,-25.2,-10.875,217.807,-26.001,16.058,48.84388,2.3533132,102.823,NaN,0.0,12.864,,4 / 24,,615,2022-01-20 11:40:09:578
-2.72513,4.12582,6.05534,-2.93377,4.7605,8.05611,-2.59774,-1.74252,-0.95569,-0.09481,1.43354,1.55564,16.35,-25.2,-10.875,217.807,-26.001,16.058,48.84388,2.3533132,102.823,NaN,0.0,12.864,,4 / 24,,619,2022-01-20 11:40:09:582
-2.72513,4.12582,6.05534,-2.93377,4.7605,8.05611,-2.59774,-1.74252,-0.95569,-0.09481,1.43354,1.55564,16.35,-25.2,-10.875,217.807,-26.001,16.058,48.84388,2.3533132,102.823,NaN,0.0,12.864,,4 / 24,,624,2022-01-20 11:40:09:587
-2.72513,4.12582,6.05534,-2.93377,4.7605,8.05611,-2.59774,-1.74252,-0.95569,-0.09481,1.43354,1.55564,16.35,-25.2,-10.875,217.807,-26.001,16.058,48.84388,2.3533132,102.823,NaN,0.0,12.864,,4 / 24,,629,2022-01-20 11:40:09:592
-3.80429,5.31984,4.31755,-2.93377,4.7605,8.05611,-2.59774,-1.74252,-0.95569,-0.09481,1.43354,1.55564,16.35,-25.2,-10.875,217.807,-26.001,16.058,48.84388,2.3533132,102.823,NaN,0.0,12.864,,4 / 24,,634,2022-01-20 11:40:09:597
-3.80429,5.31984,4.31755,-2.93377,4.7605,8.05611,-2.59774,-1.74252,-0.95569,-0.09481,1.43354,1.55564,16.35,-25.2,-10.875,217.807,-26.001,16.058,48.84388,2.3533132,102.823,NaN,0.0,12.864,,4 / 24,,639,2022-01-20 11:40:09:602
-3.80429,5.31984,4.31755,-2.93377,4.7605,8.05611,-2.59774,-1.74252,-0.95569,-0.09481,1.43354,1.55564,16.35,-25.2,-10.875,217.807,-26.001,16.058,48.84388,2.3533132,102.823,NaN,0.0,12.864,,4 / 24,,644,2022-01-20 11:40:09:607
-3.80429,5.31984,4.31755,-2.93377,4.7605,8.05611,-2.59774,-1.74252,-0.95569,-0.09481,1.43354,1.55564,12.825,-27.075,-11.175,207.222,-29.041,20.01,48.84388,2.3533132,102.823,NaN,0.0,12.864,,4 / 24,,649,2022-01-20 11:40:09:612
-3.80429,5.31984,4.31755,-2.93377,4.7605,8.05611,-2.59774,-1.74252,-0.95569,-0.09481,1.43354,1.55564,12.825,-27.075,-11.175,207.222,-29.041,20.01,48.84388,2.3533132,102.823,NaN,0.0,12.864,,4 / 24,,654,2022-01-20 11:40:09:617
-3.80429,5.31984,4.31755,-2.93377,4.7605,8.05611,-2.59774,-1.74252,-0.95569,-0.09481,1.43354,1.55564,12.825,-27.075,-11.175,207.222,-29.041,20.01,48.84388,2.3533132,102.823,NaN,0.0,12.864,,4 / 24,,659,2022-01-20 11:40:09:622
-3.80429,5.31984,4.31755,-2.89028,4.83323,8.02849,0.17803,-0.17943,-2.73481,-0.09481,1.43354,1.55564,12.825,-27.075,-11.175,207.222,-29.041,20.01,48.84388,2.3533132,102.823,NaN,0.0,12.864,,4 / 24,,664,2022-01-20 11:40:09:627
-3.80429,5.31984,4.31755,-2.89028,4.83323,8.02849,0.17803,-0.17943,-2.73481,-0.09481,1.43354,1.55564,12.825,-27.075,-11.175,207.222,-29.041,20.01,48.84388,2.3533132,102.823,NaN,0.0,12.864,,4 / 24,,669,2022-01-20 11:40:09:632
-3.80429,5.31984,4.31755,-2.89028,4.83323,8.02849,0.17803,-0.17943,-2.73481,-0.09481,1.43354,1.55564,12.825,-27.075,-11.175,207.222,-29.041,20.01,48.84388,2.3533132,102.823,NaN,0.0,12.864,,4 / 24,,674,2022-01-20 11:40:09:637
-3.80429,5.31984,4.31755,-2.89028,4.83323,8.02849,0.17803,-0.17943,-2.73481,-0.09481,1.43354,1.55564,12.825,-27.075,-11.175,207.222,-29.041,20.01,48.84388,2.3533132,102.823,NaN,0.0,12.864,,4 / 24,,679,2022-01-20 11:40:09:642
-3.80429,5.31984,4.31755,-2.89028,4.83323,8.02849,0.17803,-0.17943,-2.73481,-0.09481,1.43354,1.55564,12.825,-27.075,-11.175,207.222,-29.041,20.01,48.84388,2.3533132,102.823,NaN,0.0,12.864,,4 / 24,,684,2022-01-20 11:40:09:647
-3.80429,5.31984,4.31755,-2.89028,4.83323,8.02849,0.17803,-0.17943,-2.73481,-0.09481,1.43354,1.55564,12.825,-27.075,-11.175,207.222,-29.041,20.01,48.84388,2.3533132,102.823,NaN,0.0,12.864,,4 / 24,,689,2022-01-20 11:40:09:652
-3.80429,5.31984,4.31755,-2.89028,4.83323,8.02849,0.17803,-0.17943,-2.73481,-0.09481,1.43354,1.55564,12.825,-27.075,-11.175,207.222,-29.041,20.01,48.84388,2.3533132,102.823,NaN,0.0,12.864,,4 / 24,,694,2022-01-20 11:40:09:657
-3.80429,5.31984,4.31755,-2.89028,4.83323,8.02849,0.17803,-0.17943,-2.73481,-0.09481,1.43354,1.55564,12.825,-27.075,-11.175,207.222,-29.041,20.01,48.84388,2.3533132,102.823,NaN,0.0,12.864,,4 / 24,,699,2022-01-20 11:40:09:662
-3.80429,5.31984,4.31755,-2.89028,4.83323,8.02849,0.17803,-0.17943,-2.73481,-0.09481,1.43354,1.55564,12.825,-27.075,-11.175,207.222,-29.041,20.01,48.84388,2.3533132,102.823,NaN,0.0,12.864,,4 / 24,,704,2022-01-20 11:40:09:667
-2.68205,5.53071,6.2997,-2.89028,4.83323,8.02849,0.17803,-0.17943,-2.73481,-0.47749,-0.02197,1.02076,12.825,-27.075,-11.175,207.222,-29.041,20.01,48.84388,2.3533132,102.823,NaN,0.0,12.864,,4 / 24,,709,2022-01-20 11:40:09:672
-2.68205,5.53071,6.2997,-2.89028,4.83323,8.02849,0.17803,-0.17943,-2.73481,-0.47749,-0.02197,1.02076,12.825,-27.075,-11.175,207.222,-29.041,20.01,48.84388,2.3533132,102.823,NaN,0.0,12.864,,4 / 24,,714,2022-01-20 11:40:09:677
-2.68205,5.53071,6.2997,-2.89028,4.83323,8.02849,0.17803,-0.17943,-2.73481,-0.47749,-0.02197,1.02076,12.825,-27.075,-11.175,207.222,-29.041,20.01,48.84388,2.3533132,102.823,NaN,0.0,12.864,,4 / 24,,719,2022-01-20 11:40:09:682
-2.68205,5.53071,6.2997,-2.89028,4.83323,8.02849,0.17803,-0.17943,-2.73481,-0.47749,-0.02197,1.02076,12.825,-27.075,-11.175,207.222,-29.041,20.01,48.84388,2.3533132,102.823,NaN,0.0,12.864,,4 / 24,,723,2022-01-20 11:40:09:686
-2.68205,5.53071,6.2997,-2.89028,4.83323,8.02849,0.17803,-0.17943,-2.73481,-0.47749,-0.02197,1.02076,12.825,-27.075,-11.175,207.222,-29.041,20.01,48.84388,2.3533132,102.823,NaN,0.0,12.864,,4 / 24,,729,2022-01-20 11:40:09:692
-2.68205,5.53071,6.2997,-2.53339,4.76325,8.18925,-1.03238,0.33132,-2.31621,-0.47749,-0.02197,1.02076,12.825,-27.075,-11.175,207.222,-29.041,20.01,48.84388,2.3533132,102.823,NaN,0.0,12.864,,4 / 24,,734,2022-01-20 11:40:09:697
-2.68205,5.53071,6.2997,-2.53339,4.76325,8.18925,-1.03238,0.33132,-2.31621,-0.47749,-0.02197,1.02076,12.825,-27.075,-11.175,207.222,-29.041,20.01,48.84388,2.3533132,102.823,NaN,0.0,12.864,,4 / 24,,738,2022-01-20 11:40:09:701
-2.68205,5.53071,6.2997,-2.53339,4.76325,8.18925,-1.03238,0.33132,-2.31621,-0.47749,-0.02197,1.02076,12.825,-27.075,-11.175,207.222,-29.041,20.01,48.84388,2.3533132,102.823,NaN,0.0,12.864,,4 / 24,,744,2022-01-20 11:40:09:707
-2.68205,5.53071,6.2997,-2.53339,4.76325,8.18925,-1.03238,0.33132,-2.31621,-0.47749,-0.02197,1.02076,10.95,-27.6,-11.4,202.192,-29.059,17.19,48.84388,2.3533132,102.823,NaN,0.0,12.864,,4 / 24,,748,2022-01-20 11:40:09:711
-2.68205,5.53071,6.2997,-2.53339,4.76325,8.18925,-1.03238,0.33132,-2.31621,-0.47749,-0.02197,1.02076,10.95,-27.6,-11.4,202.192,-29.059,17.19,48.84388,2.3533132,102.823,NaN,0.0,12.864,,4 / 24,,754,2022-01-20 11:40:09:717
-2.68205,5.53071,6.2997,-2.53339,4.76325,8.18925,-1.03238,0.33132,-2.31621,-0.47749,-0.02197,1.02076,10.95,-27.6,-11.4,202.192,-29.059,17.19,48.84388,2.3533132,102.823,NaN,0.0,12.864,,4 / 24,,759,2022-01-20 11:40:09:722
-2.68205,5.53071,6.2997,-2.53339,4.76325,8.18925,-1.03238,0.33132,-2.31621,-0.47749,-0.02197,1.02076,10.95,-27.6,-11.4,202.192,-29.059,17.19,48.84388,2.3533132,102.823,NaN,0.0,12.864,,4 / 24,,764,2022-01-20 11:40:09:727
-2.68205,5.53071,6.2997,-2.53339,4.76325,8.18925,-1.03238,0.33132,-2.31621,-0.47749,-0.02197,1.02076,10.95,-27.6,-11.4,202.192,-29.059,17.19,48.84388,2.3533132,102.823,NaN,0.0,12.864,,4 / 24,,770,2022-01-20 11:40:09:733
1.3017,2.27647,12.07149,-2.53339,4.76325,8.18925,-1.03238,0.33132,-2.31621,-0.47749,-0.02197,1.02076,10.95,-27.6,-11.4,202.192,-29.059,17.19,48.84388,2.3533132,102.823,NaN,0.0,12.864,,4 / 24,,773,2022-01-20 11:40:09:736
1.3017,2.27647,12.07149,-2.53339,4.76325,8.18925,-1.03238,0.33132,-2.31621,-0.47749,-0.02197,1.02076,10.95,-27.6,-11.4,202.192,-29.059,17.19,48.84388,2.3533132,102.823,NaN,0.0,12.864,,4 / 24,,779,2022-01-20 11:40:09:742
1.3017,2.27647,12.07149,-2.53339,4.76325,8.18925,-1.03238,0.33132,-2.31621,-0.47749,-0.02197,1.02076,10.95,-27.6,-11.4,202.192,-29.059,17.19,48.84388,2.3533132,102.823,NaN,0.0,12.864,,4 / 24,,784,2022-01-20 11:40:09:747
1.3017,2.27647,12.07149,-2.53339,4.76325,8.18925,-1.03238,0.33132,-2.31621,-0.47749,-0.02197,1.02076,10.95,-27.6,-11.4,202.192,-29.059,17.19,48.84388,2.3533132,102.823,NaN,0.0,12.864,,4 / 24,,789,2022-01-20 11:40:09:752
1.3017,2.27647,12.07149,-2.53339,4.76325,8.18925,-1.03238,0.33132,-2.31621,-0.47749,-0.02197,1.02076,10.95,-27.6,-11.4,202.192,-29.059,17.19,48.84388,2.3533132,102.823,NaN,0.0,12.864,,4 / 24,,794,2022-01-20 11:40:09:757
1.3017,2.27647,12.07149,-2.53339,4.76325,8.18925,-1.03238,0.33132,-2.31621,-0.47749,-0.02197,1.02076,10.95,-27.6,-11.4,202.192,-29.059,17.19,48.84388,2.3533132,102.823,NaN,0.0,12.864,,4 / 24,,799,2022-01-20 11:40:09:762
1.3017,2.27647,12.07149,-2.53339,4.76325,8.18925,-1.03238,0.33132,-2.31621,-0.47749,-0.02197,1.02076,10.95,-27.6,-11.4,202.192,-29.059,17.19,48.84388,2.3533132,102.823,NaN,0.0,12.864,,4 / 24,,803,2022-01-20 11:40:09:766
1.3017,2.27647,12.07149,-2.53339,4.76325,8.18925,-1.03238,0.33132,-2.31621,-0.47749,-0.02197,1.02076,10.95,-27.6,-11.4,202.192,-29.059,17.19,48.84388,2.3533132,102.823,NaN,0.0,12.864,,4 / 24,,809,2022-01-20 11:40:09:772
1.3017,2.27647,12.07149,-2.53339,4.76325,8.18925,-1.03238,0.33132,-2.31621,-0.47749,-0.02197,1.02076,10.95,-27.6,-11.4,202.192,-29.059,17.19,48.84388,2.3533132,102.823,NaN,0.0,12.864,,4 / 24,,813,2022-01-20 11:40:09:776
1.3017,2.27647,12.07149,-2.53339,4.76325,8.18925,-1.03238,0.33132,-2.31621,-0.47749,-0.02197,1.02076,10.95,-27.6,-11.4,202.192,-29.059,17.19,48.84388,2.3533132,102.823,NaN,0.0,12.864,,4 / 24,,819,2022-01-20 11:40:09:782
1.3017,2.27647,12.07149,-2.53339,4.76325,8.18925,-1.03238,0.33132,-2.31621,-0.47749,-0.02197,1.02076,10.95,-27.6,-11.4,202.192,-29.059,17.19,48.84388,2.3533132,102.823,NaN,0.0,12.864,,4 / 24,,824,2022-01-20 11:40:09:787
1.3017,2.27647,12.07149,-2.53339,4.76325,8.18925,-1.03238,0.33132,-2.31621,-0.47749,-0.02197,1.02076,10.95,-27.6,-11.4,202.192,-29.059,17.19,48.84388,2.3533132,102.823,NaN,0.0,12.864,,4 / 24,,829,2022-01-20 11:40:09:792
1.3017,2.27647,12.07149,-2.53339,4.76325,8.18925,-1.03238,0.33132,-2.31621,-0.47749,-0.02197,1.02076,10.95,-27.6,-11.4,202.192,-29.059,17.19,48.84388,2.3533132,102.823,NaN,0.0,12.864,,4 / 24,,834,2022-01-20 11:40:09:797
-3.05833,4.22034,7.49253,-2.32985,4.61124,8.33538,-1.03238,0.33132,-2.31621,0.09774,0.03622,0.03462,10.95,-27.6,-11.4,202.192,-29.059,17.19,48.84388,2.3533132,102.823,NaN,0.0,12.864,,4 / 24,,839,2022-01-20 11:40:09:802
-3.05833,4.22034,7.49253,-2.32985,4.61124,8.33538,2.8259,-0.33766,2.71143,0.09774,0.03622,0.03462,10.95,-27.6,-11.4,202.192,-29.059,17.19,48.84388,2.3533132,102.823,NaN,0.0,12.864,,4 / 24,,844,2022-01-20 11:40:09:807
-3.05833,4.22034,7.49253,-2.32985,4.61124,8.33538,2.8259,-0.33766,2.71143,0.09774,0.03622,0.03462,10.95,-27.6,-11.4,202.192,-29.059,17.19,48.84388,2.3533132,102.823,NaN,0.0,12.864,,4 / 24,,849,2022-01-20 11:40:09:812
-3.05833,4.22034,7.49253,-2.32985,4.61124,8.33538,2.8259,-0.33766,2.71143,0.09774,0.03622,0.03462,10.95,-27.6,-11.4,202.192,-29.059,17.19,48.84388,2.3533132,102.823,NaN,0.0,12.864,,4 / 24,,854,2022-01-20 11:40:09:817
-3.05833,4.22034,7.49253,-2.32985,4.61124,8.33538,2.8259,-0.33766,2.71143,0.09774,0.03622,0.03462,7.125,-28.35,-12.3,190.809,-28.048,15.616,48.84388,2.3533132,102.823,NaN,0.0,12.864,,4 / 24,,860,2022-01-20 11:40:09:823
-3.05833,4.22034,7.49253,-2.32985,4.61124,8.33538,2.8259,-0.33766,2.71143,0.09774,0.03622,0.03462,7.125,-28.35,-12.3,190.809,-28.048,15.616,48.84388,2.3533132,102.823,NaN,0.0,12.864,,4 / 24,,864,2022-01-20 11:40:09:827
-3.05833,4.22034,7.49253,-2.32985,4.61124,8.33538,2.8259,-0.33766,2.71143,0.09774,0.03622,0.03462,7.125,-28.35,-12.3,190.809,-28.048,15.616,48.84388,2.3533132,102.823,NaN,0.0,12.864,,4 / 24,,869,2022-01-20 11:40:09:832
-3.05833,4.22034,7.49253,-2.32985,4.61124,8.33538,2.8259,-0.33766,2.71143,0.09774,0.03622,0.03462,7.125,-28.35,-12.3,190.809,-28.048,15.616,48.84388,2.3533132,102.823,NaN,0.0,12.864,,4 / 24,,874,2022-01-20 11:40:09:837
-3.05833,4.22034,7.49253,-2.32985,4.61124,8.33538,2.8259,-0.33766,2.71143,0.09774,0.03622,0.03462,7.125,-28.35,-12.3,190.809,-28.048,15.616,48.84388,2.3533132,102.823,NaN,0.0,12.864,,4 / 24,,879,2022-01-20 11:40:09:842
-3.05833,4.22034,7.49253,-2.32985,4.61124,8.33538,2.8259,-0.33766,2.71143,0.09774,0.03622,0.03462,7.125,-28.35,-12.3,190.809,-28.048,15.616,48.84388,2.3533132,102.823,NaN,0.0,12.864,,4 / 24,,884,2022-01-20 11:40:09:847
-3.05833,4.22034,7.49253,-2.32985,4.61124,8.33538,2.8259,-0.33766,2.71143,0.09774,0.03622,0.03462,7.125,-28.35,-12.3,190.809,-28.048,15.616,48.84388,2.3533132,102.823,NaN,0.0,12.864,,4 / 24,,889,2022-01-20 11:40:09:852
-3.05833,4.22034,7.49253,-2.32985,4.61124,8.33538,2.8259,-0.33766,2.71143,0.09774,0.03622,0.03462,7.125,-28.35,-12.3,190.809,-28.048,15.616,48.84388,2.3533132,102.823,NaN,0.0,12.864,,4 / 24,,894,2022-01-20 11:40:09:857
-3.05833,4.22034,7.49253,-2.32985,4.61124,8.33538,2.8259,-0.33766,2.71143,0.09774,0.03622,0.03462,7.125,-28.35,-12.3,190.809,-28.048,15.616,48.84388,2.3533132,102.823,NaN,0.0,12.864,,4 / 24,,899,2022-01-20 11:40:09:862
-1.85803,4.83829,8.07009,-2.32985,4.61124,8.33538,2.8259,-0.33766,2.71143,0.09774,0.03622,0.03462,7.125,-28.35,-12.3,190.809,-28.048,15.616,48.84388,2.3533132,102.823,NaN,0.0,12.864,,4 / 24,,904,2022-01-20 11:40:09:867
-1.85803,4.83829,8.07009,-2.21718,4.5724,8.38735,-1.13124,-0.23142,-0.43548,0.09774,0.03622,0.03462,7.125,-28.35,-12.3,190.809,-28.048,15.616,48.84388,2.3533132,102.823,NaN,0.0,12.864,,4 / 24,,908,2022-01-20 11:40:09:871
-1.85803,4.83829,8.07009,-2.21718,4.5724,8.38735,-1.13124,-0.23142,-0.43548,0.09774,0.03622,0.03462,7.125,-28.35,-12.3,190.809,-28.048,15.616,48.84388,2.3533132,102.823,NaN,0.0,12.864,,4 / 24,,913,2022-01-20 11:40:09:876
-1.85803,4.83829,8.07009,-2.21718,4.5724,8.38735,-1.13124,-0.23142,-0.43548,0.09774,0.03622,0.03462,7.125,-28.35,-12.3,190.809,-28.048,15.616,48.84388,2.3533132,102.823,NaN,0.0,12.864,,4 / 24,,919,2022-01-20 11:40:09:882
-1.85803,4.83829,8.07009,-2.21718,4.5724,8.38735,-1.13124,-0.23142,-0.43548,0.09774,0.03622,0.03462,7.125,-28.35,-12.3,190.809,-28.048,15.616,48.84388,2.3533132,102.823,NaN,0.0,12.864,,4 / 24,,924,2022-01-20 11:40:09:887
-1.85803,4.83829,8.07009,-2.21718,4.5724,8.38735,-1.13124,-0.23142,-0.43548,0.09774,0.03622,0.03462,7.125,-28.35,-12.3,190.809,-28.048,15.616,48.84388,2.3533132,102.823,NaN,0.0,12.864,,4 / 24,,929,2022-01-20 11:40:09:892
-1.85803,4.83829,8.07009,-2.21718,4.5724,8.38735,-1.13124,-0.23142,-0.43548,0.09774,0.03622,0.03462,7.125,-28.35,-12.3,190.809,-28.048,15.616,48.84388,2.3533132,102.823,NaN,0.0,12.864,,4 / 24,,934,2022-01-20 11:40:09:897
-1.85803,4.83829,8.07009,-2.21718,4.5724,8.38735,-1.13124,-0.23142,-0.43548,0.09774,0.03622,0.03462,7.125,-28.35,-12.3,190.809,-28.048,15.616,48.84388,2.3533132,102.823,NaN,0.0,12.864,,4 / 24,,939,2022-01-20 11:40:09:902
-1.85803,4.83829,8.07009,-2.21718,4.5724,8.38735,-1.13124,-0.23142,-0.43548,0.09774,0.03622,0.03462,7.125,-28.35,-12.3,190.809,-28.048,15.616,48.84388,2.3533132,102.823,NaN,0.0,12.864,,4 / 24,,944,2022-01-20 11:40:09:907
-1.85803,4.83829,8.07009,-2.21718,4.5724,8.38735,-1.13124,-0.23142,-0.43548,0.09774,0.03622,0.03462,7.125,-28.35,-12.3,190.809,-28.048,15.616,48.84388,2.3533132,102.823,NaN,0.0,12.864,,4 / 24,,950,2022-01-20 11:40:09:913
-1.85803,4.83829,8.07009,-2.21718,4.5724,8.38735,-1.13124,-0.23142,-0.43548,0.09774,0.03622,0.03462,5.325,-28.725,-12.75,184.502,-27.791,14.807,48.84388,2.3533132,102.823,NaN,0.0,12.864,,4 / 24,,953,2022-01-20 11:40:09:916
-1.85803,4.83829,8.07009,-2.21718,4.5724,8.38735,-1.13124,-0.23142,-0.43548,0.09774,0.03622,0.03462,5.325,-28.725,-12.75,184.502,-27.791,14.807,48.84388,2.3533132,102.823,NaN,0.0,12.864,,4 / 24,,958,2022-01-20 11:40:09:921
-1.85803,4.83829,8.07009,-2.21718,4.5724,8.38735,-1.13124,-0.23142,-0.43548,0.09774,0.03622,0.03462,5.325,-28.725,-12.75,184.502,-27.791,14.807,48.84388,2.3533132,102.823,NaN,0.0,12.864,,4 / 24,,963,2022-01-20 11:40:09:926
-1.85803,4.83829,8.07009,-2.21718,4.5724,8.38735,-1.13124,-0.23142,-0.43548,0.09774,0.03622,0.03462,5.325,-28.725,-12.75,184.502,-27.791,14.807,48.84388,2.3533132,102.823,NaN,0.0,12.864,,4 / 24,,969,2022-01-20 11:40:09:932
-3.08225,1.75424,9.20788,-2.07817,4.35422,8.5377,-0.06629,0.36032,-1.20466,-0.41131,-0.24554,0.12903,5.325,-28.725,-12.75,184.502,-27.791,14.807,48.84388,2.3533132,102.823,NaN,0.0,12.864,,4 / 24,,975,2022-01-20 11:40:09:938
-3.08225,1.75424,9.20788,-2.07817,4.35422,8.5377,-0.06629,0.36032,-1.20466,-0.41131,-0.24554,0.12903,5.325,-28.725,-12.75,184.502,-27.791,14.807,48.84388,2.3533132,102.823,NaN,0.0,12.864,,4 / 24,,978,2022-01-20 11:40:09:941
-3.08225,1.75424,9.20788,-2.07817,4.35422,8.5377,-0.06629,0.36032,-1.20466,-0.41131,-0.24554,0.12903,5.325,-28.725,-12.75,184.502,-27.791,14.807,48.84388,2.3533132,102.823,NaN,0.0,12.864,,4 / 24,,987,2022-01-20 11:40:09:950
-3.08225,1.75424,9.20788,-2.07817,4.35422,8.5377,-0.06629,0.36032,-1.20466,-0.41131,-0.24554,0.12903,5.325,-28.725,-12.75,184.502,-27.791,14.807,48.84388,2.3533132,102.823,NaN,0.0,12.864,,4 / 24,,989,2022-01-20 11:40:09:952
-3.08225,1.75424,9.20788,-2.07817,4.35422,8.5377,-0.06629,0.36032,-1.20466,-0.41131,-0.24554,0.12903,5.325,-28.725,-12.75,184.502,-27.791,14.807,48.84388,2.3533132,102.823,NaN,0.0,12.864,,4 / 24,,994,2022-01-20 11:40:09:957
-3.08225,1.75424,9.20788,-2.07817,4.35422,8.5377,-0.06629,0.36032,-1.20466,-0.41131,-0.24554,0.12903,5.325,-28.725,-12.75,184.502,-27.791,14.807,48.84388,2.3533132,102.823,NaN,0.0,12.864,,4 / 24,,999,2022-01-20 11:40:09:962
-3.08225,1.75424,9.20788,-2.07817,4.35422,8.5377,-0.06629,0.36032,-1.20466,-0.41131,-0.24554,0.12903,5.325,-28.725,-12.75,184.502,-27.791,14.807,48.84388,2.3533132,102.823,NaN,0.0,12.864,,4 / 24,,1003,2022-01-20 11:40:09:966
-3.08225,1.75424,9.20788,-2.07817,4.35422,8.5377,-0.06629,0.36032,-1.20466,-0.41131,-0.24554,0.12903,5.325,-28.725,-12.75,184.502,-27.791,14.807,48.84388,2.3533132,102.823,NaN,0.0,12.864,,4 / 24,,1009,2022-01-20 11:40:09:972
-3.08225,1.75424,9.20788,-2.07817,4.35422,8.5377,-0.06629,0.36032,-1.20466,-0.41131,-0.24554,0.12903,5.325,-28.725,-12.75,184.502,-27.791,14.807,48.84388,2.3533132,102.823,NaN,0.0,12.864,,4 / 24,,1014,2022-01-20 11:40:09:977
-3.08225,1.75424,9.20788,-2.07817,4.35422,8.5377,-0.06629,0.36032,-1.20466,-0.41131,-0.24554,0.12903,5.325,-28.725,-12.75,184.502,-27.791,14.807,48.84388,2.3533132,102.823,NaN,0.0,12.864,,4 / 24,,1019,2022-01-20 11:40:09:982
-3.08225,1.75424,9.20788,-2.07817,4.35422,8.5377,-0.06629,0.36032,-1.20466,-0.41131,-0.24554,0.12903,5.325,-28.725,-12.75,184.502,-27.791,14.807,48.84388,2.3533132,102.823,NaN,0.0,12.864,,4 / 24,,1024,2022-01-20 11:40:09:987
-3.08225,1.75424,9.20788,-2.07817,4.35422,8.5377,-0.06629,0.36032,-1.20466,-0.41131,-0.24554,0.12903,5.325,-28.725,-12.75,184.502,-27.791,14.807,48.84388,2.3533132,102.823,NaN,0.0,12.864,,4 / 24,,1028,2022-01-20 11:40:09:991
-2.48196,3.58804,8.87737,-2.07817,4.35422,8.5377,-0.06629,0.36032,-1.20466,-0.41131,-0.24554,0.12903,5.325,-28.725,-12.75,184.502,-27.791,14.807,48.84388,2.3533132,102.823,NaN,0.0,12.864,,4 / 24,,1035,2022-01-20 11:40:09:998
-2.48196,3.58804,8.87737,-1.86662,4.29892,8.61426,-0.06629,0.36032,-1.20466,-0.41131,-0.24554,0.12903,5.325,-28.725,-12.75,184.502,-27.791,14.807,48.84388,2.3533132,102.823,NaN,0.0,12.864,,4 / 24,,1039,2022-01-20 11:40:10:002
-2.48196,3.58804,8.87737,-1.86662,4.29892,8.61426,-1.41431,-0.93096,1.42458,-0.41131,-0.24554,0.12903,5.325,-28.725,-12.75,184.502,-27.791,14.807,48.84388,2.3533132,102.823,NaN,0.0,12.864,,4 / 24,,1044,2022-01-20 11:40:10:007
-2.48196,3.58804,8.87737,-1.86662,4.29892,8.61426,-1.41431,-0.93096,1.42458,-0.41131,-0.24554,0.12903,5.325,-28.725,-12.75,184.502,-27.791,14.807,48.84388,2.3533132,102.823,NaN,0.0,12.864,,4 / 24,,1050,2022-01-20 11:40:10:013
-2.48196,3.58804,8.87737,-1.86662,4.29892,8.61426,-1.41431,-0.93096,1.42458,-0.41131,-0.24554,0.12903,5.325,-28.725,-12.75,184.502,-27.791,14.807,48.84388,2.3533132,102.823,NaN,0.0,12.864,,4 / 24,,1054,2022-01-20 11:40:10:017
-2.48196,3.58804,8.87737,-1.86662,4.29892,8.61426,-1.41431,-0.93096,1.42458,-0.41131,-0.24554,0.12903,2.775,-28.8,-13.5,179.905,-26.0,12.226,48.84388,2.3533132,102.823,NaN,0.0,12.864,,4 / 24,,1058,2022-01-20 11:40:10:021
-2.48196,3.58804,8.87737,-1.86662,4.29892,8.61426,-1.41431,-0.93096,1.42458,-0.41131,-0.24554,0.12903,2.775,-28.8,-13.5,179.905,-26.0,12.226,48.84388,2.3533132,102.823,NaN,0.0,12.864,,4 / 24,,1064,2022-01-20 11:40:10:027
-2.48196,3.58804,8.87737,-1.86662,4.29892,8.61426,-1.41431,-0.93096,1.42458,-0.41131,-0.24554,0.12903,2.775,-28.8,-13.5,179.905,-26.0,12.226,48.84388,2.3533132,102.823,NaN,0.0,12.864,,4 / 24,,1069,2022-01-20 11:40:10:032
-2.48196,3.58804,8.87737,-1.86662,4.29892,8.61426,-1.41431,-0.93096,1.42458,-0.41131,-0.24554,0.12903,2.775,-28.8,-13.5,179.905,-26.0,12.226,48.84388,2.3533132,102.823,NaN,0.0,12.864,,4 / 24,,1074,2022-01-20 11:40:10:037
-2.48196,3.58804,8.87737,-1.86662,4.29892,8.61426,-1.41431,-0.93096,1.42458,-0.41131,-0.24554,0.12903,2.775,-28.8,-13.5,179.905,-26.0,12.226,48.84388,2.3533132,102.823,NaN,0.0,12.864,,4 / 24,,1079,2022-01-20 11:40:10:042
-2.48196,3.58804,8.87737,-1.86662,4.29892,8.61426,-1.41431,-0.93096,1.42458,-0.41131,-0.24554,0.12903,2.775,-28.8,-13.5,179.905,-26.0,12.226,48.84388,2.3533132,102.823,NaN,0.0,12.864,,4 / 24,,1084,2022-01-20 11:40:10:047
-2.48196,3.58804,8.87737,-1.86662,4.29892,8.61426,-1.41431,-0.93096,1.42458,-0.41131,-0.24554,0.12903,2.775,-28.8,-13.5,179.905,-26.0,12.226,48.84388,2.3533132,102.823,NaN,0.0,12.864,,4 / 24,,1089,2022-01-20 11:40:10:052
-1.48325,3.88744,8.96591,-1.86662,4.29892,8.61426,-1.41431,-0.93096,1.42458,-0.41131,-0.24554,0.12903,2.775,-28.8,-13.5,179.905,-26.0,12.226,48.84388,2.3533132,102.823,NaN,0.0,12.864,,4 / 24,,1094,2022-01-20 11:40:10:057
-1.48325,3.88744,8.96591,-1.86662,4.29892,8.61426,-1.41431,-0.93096,1.42458,-0.41131,-0.24554,0.12903,2.775,-28.8,-13.5,179.905,-26.0,12.226,48.84388,2.3533132,102.823,NaN,0.0,12.864,,4 / 24,,1099,2022-01-20 11:40:10:062
-1.48325,3.88744,8.96591,-1.86662,4.29892,8.61426,-1.41431,-0.93096,1.42458,-0.00799,-0.43714,0.18761,2.775,-28.8,-13.5,179.905,-26.0,12.226,48.84388,2.3533132,102.823,NaN,0.0,12.864,,4 / 24,,1104,2022-01-20 11:40:10:067
-1.48325,3.88744,8.96591,-1.86662,4.29892,8.61426,-1.41431,-0.93096,1.42458,-0.00799,-0.43714,0.18761,2.775,-28.8,-13.5,179.905,-26.0,12.226,48.84388,2.3533132,102.823,NaN,0.0,12.864,,4 / 24,,1109,2022-01-20 11:40:10:072
-1.48325,3.88744,8.96591,-1.86662,4.29892,8.61426,-1.41431,-0.93096,1.42458,-0.00799,-0.43714,0.18761,2.775,-28.8,-13.5,179.905,-26.0,12.226,48.84388,2.3533132,102.823,NaN,0.0,12.864,,4 / 24,,1114,2022-01-20 11:40:10:077
-1.48325,3.88744,8.96591,-1.86662,4.29892,8.61426,-1.41431,-0.93096,1.42458,-0.00799,-0.43714,0.18761,2.775,-28.8,-13.5,179.905,-26.0,12.226,48.84388,2.3533132,102.823,NaN,0.0,12.864,,4 / 24,,1119,2022-01-20 11:40:10:082
-1.48325,3.88744,8.96591,-1.86662,4.29892,8.61426,-1.41431,-0.93096,1.42458,-0.00799,-0.43714,0.18761,2.775,-28.8,-13.5,179.905,-26.0,12.226,48.84388,2.3533132,102.823,NaN,0.0,12.864,,4 / 24,,1124,2022-01-20 11:40:10:087
-1.48325,3.88744,8.96591,-1.86662,4.29892,8.61426,-1.41431,-0.93096,1.42458,-0.00799,-0.43714,0.18761,2.775,-28.8,-13.5,179.905,-26.0,12.226,48.84388,2.3533132,102.823,NaN,0.0,12.864,,4 / 24,,1128,2022-01-20 11:40:10:091
-1.48325,3.88744,8.96591,-1.86662,4.29892,8.61426,-1.41431,-0.93096,1.42458,-0.00799,-0.43714,0.18761,2.775,-28.8,-13.5,179.905,-26.0,12.226,48.84388,2.3533132,102.823,NaN,0.0,12.864,,4 / 24,,1133,2022-01-20 11:40:10:096
-1.48325,3.88744,8.96591,-1.86662,4.29892,8.61426,-1.41431,-0.93096,1.42458,-0.00799,-0.43714,0.18761,2.775,-28.8,-13.5,179.905,-26.0,12.226,48.84388,2.3533132,102.823,NaN,0.0,12.864,,4 / 24,,1139,2022-01-20 11:40:10:102
-1.48325,3.88744,8.96591,-1.38344,4.28111,8.7137,0.08381,-0.13706,0.06555,-0.00799,-0.43714,0.18761,2.775,-28.8,-13.5,179.905,-26.0,12.226,48.84388,2.3533132,102.823,NaN,0.0,12.864,,4 / 24,,1144,2022-01-20 11:40:10:107
-1.48325,3.88744,8.96591,-1.38344,4.28111,8.7137,0.08381,-0.13706,0.06555,-0.00799,-0.43714,0.18761,1.8,-28.575,-13.875,179.367,-25.884,9.021,48.84388,2.3533132,102.823,NaN,0.0,12.864,,4 / 24,,1149,2022-01-20 11:40:10:112
-1.48325,3.88744,8.96591,-1.38344,4.28111,8.7137,0.08381,-0.13706,0.06555,-0.00799,-0.43714,0.18761,1.8,-28.575,-13.875,179.367,-25.884,9.021,48.84388,2.3533132,102.823,NaN,0.0,12.864,,4 / 24,,1154,2022-01-20 11:40:10:117
-1.48325,3.88744,8.96591,-1.38344,4.28111,8.7137,0.08381,-0.13706,0.06555,-0.00799,-0.43714,0.18761,1.8,-28.575,-13.875,179.367,-25.884,9.021,48.84388,2.3533132,102.823,NaN,0.0,12.864,,4 / 24,,1161,2022-01-20 11:40:10:124
-1.48325,3.88744,8.96591,-1.38344,4.28111,8.7137,0.08381,-0.13706,0.06555,-0.00799,-0.43714,0.18761,1.8,-28.575,-13.875,179.367,-25.884,9.021,48.84388,2.3533132,102.823,NaN,0.0,12.864,,4 / 24,,1163,2022-01-20 11:40:10:126
-1.30708,4.88973,9.48934,-1.38344,4.28111,8.7137,0.08381,-0.13706,0.06555,-0.00799,-0.43714,0.18761,1.8,-28.575,-13.875,179.367,-25.884,9.021,48.84388,2.3533132,102.823,NaN,0.0,12.864,,4 / 24,,1173,2022-01-20 11:40:10:136
-1.30708,4.88973,9.48934,-1.38344,4.28111,8.7137,0.08381,-0.13706,0.06555,-0.00799,-0.43714,0.18761,1.8,-28.575,-13.875,179.367,-25.884,9.021,48.84388,2.3533132,102.823,NaN,0.0,12.864,,4 / 24,,1174,2022-01-20 11:40:10:137
-1.30708,4.88973,9.48934,-1.38344,4.28111,8.7137,0.08381,-0.13706,0.06555,-0.00799,-0.43714,0.18761,1.8,-28.575,-13.875,179.367,-25.884,9.021,48.84388,2.3533132,102.823,NaN,0.0,12.864,,4 / 24,,1178,2022-01-20 11:40:10:141
-1.30708,4.88973,9.48934,-1.38344,4.28111,8.7137,0.08381,-0.13706,0.06555,-0.00799,-0.43714,0.18761,1.8,-28.575,-13.875,179.367,-25.884,9.021,48.84388,2.3533132,102.823,NaN,0.0,12.864,,4 / 24,,1183,2022-01-20 11:40:10:146
-1.30708,4.88973,9.48934,-1.38344,4.28111,8.7137,0.08381,-0.13706,0.06555,-0.00799,-0.43714,0.18761,1.8,-28.575,-13.875,179.367,-25.884,9.021,48.84388,2.3533132,102.823,NaN,0.0,12.864,,4 / 24,,1189,2022-01-20 11:40:10:152
-1.30708,4.88973,9.48934,-1.38344,4.28111,8.7137,0.08381,-0.13706,0.06555,-0.00799,-0.43714,0.18761,1.8,-28.575,-13.875,179.367,-25.884,9.021,48.84388,2.3533132,102.823,NaN,0.0,12.864,,4 / 24,,1193,2022-01-20 11:40:10:156
-1.30708,4.88973,9.48934,-1.38344,4.28111,8.7137,0.08381,-0.13706,0.06555,-0.00799,-0.43714,0.18761,1.8,-28.575,-13.875,179.367,-25.884,9.021,48.84388,2.3533132,102.823,NaN,0.0,12.864,,4 / 24,,1199,2022-01-20 11:40:10:162
-1.30708,4.88973,9.48934,-1.38344,4.28111,8.7137,0.08381,-0.13706,0.06555,-0.00799,-0.43714,0.18761,1.8,-28.575,-13.875,179.367,-25.884,9.021,48.84388,2.3533132,102.823,NaN,0.0,12.864,,4 / 24,,1204,2022-01-20 11:40:10:167
-1.30708,4.88973,9.48934,-1.38344,4.28111,8.7137,0.08381,-0.13706,0.06555,-0.00799,-0.43714,0.18761,1.8,-28.575,-13.875,179.367,-25.884,9.021,48.84388,2.3533132,102.823,NaN,0.0,12.864,,4 / 24,,1209,2022-01-20 11:40:10:172
-1.30708,4.88973,9.48934,-1.38344,4.28111,8.7137,0.08381,-0.13706,0.06555,-0.00799,-0.43714,0.18761,1.8,-28.575,-13.875,179.367,-25.884,9.021,48.84388,2.3533132,102.823,NaN,0.0,12.864,,4 / 24,,1213,2022-01-20 11:40:10:176
-1.30708,4.88973,9.48934,-1.3051,4.29806,8.71744,0.53359,-0.74479,-0.45744,-0.00799,-0.43714,0.18761,1.8,-28.575,-13.875,179.367,-25.884,9.021,48.84388,2.3533132,102.823,NaN,0.0,12.864,,4 / 24,,1219,2022-01-20 11:40:10:182
-1.30708,4.88973,9.48934,-1.3051,4.29806,8.71744,0.53359,-0.74479,-0.45744,-0.00799,-0.43714,0.18761,1.8,-28.575,-13.875,179.367,-25.884,9.021,48.84388,2.3533132,102.823,NaN,0.0,12.864,,4 / 24,,1224,2022-01-20 11:40:10:187
-1.30708,4.88973,9.48934,-1.3051,4.29806,8.71744,0.53359,-0.74479,-0.45744,-0.00799,-0.43714,0.18761,1.8,-28.575,-13.875,179.367,-25.884,9.021,48.84388,2.3533132,102.823,NaN,0.0,12.864,,4 / 24,,1229,2022-01-20 11:40:10:192
-1.30708,4.88973,9.48934,-1.3051,4.29806,8.71744,0.53359,-0.74479,-0.45744,-0.00799,-0.43714,0.18761,1.8,-28.575,-13.875,179.367,-25.884,9.021,48.84388,2.3533132,102.823,NaN,0.0,12.864,,4 / 24,,1234,2022-01-20 11:40:10:197
-1.30708,4.11984,8.28904,-1.3051,4.29806,8.71744,0.53359,-0.74479,-0.45744,0.0763,-0.36298,-0.03529,1.8,-28.575,-13.875,179.367,-25.884,9.021,48.84388,2.3533132,102.823,NaN,0.0,12.864,,4 / 24,,1239,2022-01-20 11:40:10:202
-1.37527,4.11984,8.28904,-1.3051,4.29806,8.71744,0.53359,-0.74479,-0.45744,0.0763,-0.36298,-0.03529,1.8,-28.575,-13.875,179.367,-25.884,9.021,48.84388,2.3533132,102.823,NaN,0.0,12.864,,4 / 24,,1244,2022-01-20 11:40:10:207
-1.37527,4.11984,8.28904,-1.3051,4.29806,8.71744,0.53359,-0.74479,-0.45744,0.0763,-0.36298,-0.03529,0.45,-28.125,-14.25,173.806,-25.994,8.515,48.84388,2.3533132,102.823,NaN,0.0,12.864,,4 / 24,,1254,2022-01-20 11:40:10:217
-1.37527,4.11984,8.28904,-1.3051,4.29806,8.71744,0.53359,-0.74479,-0.45744,0.0763,-0.36298,-0.03529,0.45,-28.125,-14.25,173.806,-25.994,8.515,48.84388,2.3533132,102.823,NaN,0.0,12.864,,4 / 24,,1256,2022-01-20 11:40:10:219
-1.37527,4.11984,8.28904,-1.3051,4.29806,8.71744,0.53359,-0.74479,-0.45744,0.0763,-0.36298,-0.03529,0.45,-28.125,-14.25,173.806,-25.994,8.515,48.84388,2.3533132,102.823,NaN,0.0,12.864,,4 / 24,,1259,2022-01-20 11:40:10:222
-1.37527,4.11984,8.28904,-1.3051,4.29806,8.71744,0.53359,-0.74479,-0.45744,0.0763,-0.36298,-0.03529,0.45,-28.125,-14.25,173.806,-25.994,8.515,48.84388,2.3533132,102.823,NaN,0.0,12.864,,4 / 24,,1264,2022-01-20 11:40:10:227
-1.37527,4.11984,8.28904,-1.3051,4.29806,8.71744,0.53359,-0.74479,-0.45744,0.0763,-0.36298,-0.03529,0.45,-28.125,-14.25,173.806,-25.994,8.515,48.84388,2.3533132,102.823,NaN,0.0,12.864,,4 / 24,,1270,2022-01-20 11:40:10:233
-1.37527,4.11984,8.28904,-1.3051,4.29806,8.71744,0.53359,-0.74479,-0.45744,0.0763,-0.36298,-0.03529,0.45,-28.125,-14.25,173.806,-25.994,8.515,48.84388,2.3533132,102.823,NaN,0.0,12.864,,4 / 24,,1274,2022-01-20 11:40:10:237
-1.37527,4.11984,8.28904,-1.3051,4.29806,8.71744,0.53359,-0.74479,-0.45744,0.0763,-0.36298,-0.03529,0.45,-28.125,-14.25,173.806,-25.994,8.515,48.84388,2.3533132,102.823,NaN,0.0,12.864,,4 / 24,,1279,2022-01-20 11:40:10:242
-1.37527,4.11984,8.28904,-1.05569,4.29692,8.75171,-0.91179,0.3592,0.29484,0.0763,-0.36298,-0.03529,0.45,-28.125,-14.25,173.806,-25.994,8.515,48.84388,2.3533132,102.823,NaN,0.0,12.864,,4 / 24,,1284,2022-01-20 11:40:10:247
-1.37527,4.11984,8.28904,-1.05569,4.29692,8.75171,-0.91179,0.3592,0.29484,0.0763,-0.36298,-0.03529,0.45,-28.125,-14.25,173.806,-25.994,8.515,48.84388,2.3533132,102.823,NaN,0.0,12.864,,4 / 24,,1289,2022-01-20 11:40:10:252
-1.37527,4.11984,8.28904,-1.05569,4.29692,8.75171,-0.91179,0.3592,0.29484,0.0763,-0.36298,-0.03529,0.45,-28.125,-14.25,173.806,-25.994,8.515,48.84388,2.3533132,102.823,NaN,0.0,12.864,,4 / 24,,1294,2022-01-20 11:40:10:257
-1.37527,4.11984,8.28904,-1.05569,4.29692,8.75171,-0.91179,0.3592,0.29484,0.0763,-0.36298,-0.03529,0.45,-28.125,-14.25,173.806,-25.994,8.515,48.84388,2.3533132,102.823,NaN,0.0,12.864,,4 / 24,,1299,2022-01-20 11:40:10:262
-1.37527,4.11984,8.28904,-1.05569,4.29692,8.75171,-0.91179,0.3592,0.29484,0.0763,-0.36298,-0.03529,0.45,-28.125,-14.25,173.806,-25.994,8.515,48.84388,2.3533132,102.823,NaN,0.0,12.864,,4 / 24,,1304,2022-01-20 11:40:10:267
-1.84846,5.11137,8.06292,-1.05569,4.29692,8.75171,-0.91179,0.3592,0.29484,0.0763,-0.36298,-0.03529,0.45,-28.125,-14.25,173.806,-25.994,8.515,48.84388,2.3533132,102.823,NaN,0.0,12.864,,4 / 24,,1308,2022-01-20 11:40:10:271
-1.84846,5.11137,8.06292,-1.05569,4.29692,8.75171,-0.91179,0.3592,0.29484,0.0763,-0.36298,-0.03529,0.45,-28.125,-14.25,173.806,-25.994,8.515,48.84388,2.3533132,102.823,NaN,0.0,12.864,,4 / 24,,1314,2022-01-20 11:40:10:277
-1.84846,5.11137,8.06292,-1.05569,4.29692,8.75171,-0.91179,0.3592,0.29484,0.0763,-0.36298,-0.03529,0.45,-28.125,-14.25,173.806,-25.994,8.515,48.84388,2.3533132,102.823,NaN,0.0,12.864,,4 / 24,,1319,2022-01-20 11:40:10:282
-1.84846,5.11137,8.06292,-1.05569,4.29692,8.75171,-0.91179,0.3592,0.29484,0.0763,-0.36298,-0.03529,0.45,-28.125,-14.25,173.806,-25.994,8.515,48.84388,2.3533132,102.823,NaN,0.0,12.864,,4 / 24,,1324,2022-01-20 11:40:10:287
-1.84846,5.11137,8.06292,-1.05569,4.29692,8.75171,-0.91179,0.3592,0.29484,0.0763,-0.36298,-0.03529,0.45,-28.125,-14.25,173.806,-25.994,8.515,48.84388,2.3533132,102.823,NaN,0.0,12.864,,4 / 24,,1329,2022-01-20 11:40:10:292
-1.84846,5.11137,8.06292,-1.05569,4.29692,8.75171,-0.91179,0.3592,0.29484,0.0763,-0.36298,-0.03529,0.45,-28.125,-14.25,173.806,-25.994,8.515,48.84388,2.3533132,102.823,NaN,0.0,12.864,,4 / 24,,1334,2022-01-20 11:40:10:297
-1.84846,5.11137,8.06292,-1.05569,4.29692,8.75171,-0.91179,0.3592,0.29484,0.0763,-0.36298,-0.03529,0.45,-28.125,-14.25,173.806,-25.994,8.515,48.84388,2.3533132,102.823,NaN,0.0,12.864,,4 / 24,,1340,2022-01-20 11:40:10:303
-1.84846,5.11137,8.06292,-1.05569,4.29692,8.75171,-0.91179,0.3592,0.29484,0.0763,-0.36298,-0.03529,0.45,-28.125,-14.25,173.806,-25.994,8.515,48.84388,2.3533132,102.823,NaN,0.0,12.864,,4 / 24,,1344,2022-01-20 11:40:10:307
-1.84846,5.11137,8.06292,-1.05569,4.29692,8.75171,-0.91179,0.3592,0.29484,0.0763,-0.36298,-0.03529,-0.075,-28.05,-14.7,174.496,-25.987,6.878,48.84388,2.3533132,102.823,NaN,0.0,12.864,,4 / 24,,1349,2022-01-20 11:40:10:312
-1.84846,5.11137,8.06292,-1.05569,4.29692,8.75171,-0.91179,0.3592,0.29484,0.0763,-0.36298,-0.03529,-0.075,-28.05,-14.7,174.496,-25.987,6.878,48.84388,2.3533132,102.823,NaN,0.0,12.864,,4 / 24,,1354,2022-01-20 11:40:10:317
-1.84846,5.11137,8.06292,-1.05569,4.29692,8.75171,-0.91179,0.3592,0.29484,0.0763,-0.36298,-0.03529,-0.075,-28.05,-14.7,174.496,-25.987,6.878,48.84388,2.3533132,102.823,NaN,0.0,12.864,,4 / 24,,1359,2022-01-20 11:40:10:322
-1.84846,5.11137,8.06292,-1.05569,4.29692,8.75171,-0.91179,0.3592,0.29484,0.0763,-0.36298,-0.03529,-0.075,-28.05,-14.7,174.496,-25.987,6.878,48.84388,2.3533132,102.823,NaN,0.0,12.864,,4 / 24,,1365,2022-01-20 11:40:10:328
-1.84846,5.11137,8.06292,-1.05569,4.29692,8.75171,-0.91179,0.3592,0.29484,-0.11331,-0.23355,0.16817,-0.075,-28.05,-14.7,174.496,-25.987,6.878,48.84388,2.3533132,102.823,NaN,0.0,12.864,,4 / 24,,1369,2022-01-20 11:40:10:332
-0.69631,4.47069,8.42812,-1.05569,4.29692,8.75171,-0.91179,0.3592,0.29484,-0.11331,-0.23355,0.16817,-0.075,-28.05,-14.7,174.496,-25.987,6.878,48.84388,2.3533132,102.823,NaN,0.0,12.864,,4 / 24,,1375,2022-01-20 11:40:10:338
-0.69631,4.47069,8.42812,-1.05569,4.29692,8.75171,-0.91179,0.3592,0.29484,-0.11331,-0.23355,0.16817,-0.075,-28.05,-14.7,174.496,-25.987,6.878,48.84388,2.3533132,102.823,NaN,0.0,12.864,,4 / 24,,1380,2022-01-20 11:40:10:343
-0.69631,4.47069,8.42812,-1.05569,4.29692,8.75171,-0.91179,0.3592,0.29484,-0.11331,-0.23355,0.16817,-0.075,-28.05,-14.7,174.496,-25.987,6.878,48.84388,2.3533132,102.823,NaN,0.0,12.864,,4 / 24,,1384,2022-01-20 11:40:10:347
-0.69631,4.47069,8.42812,-1.05569,4.29692,8.75171,-0.91179,0.3592,0.29484,-0.11331,-0.23355,0.16817,-0.075,-28.05,-14.7,174.496,-25.987,6.878,48.84388,2.3533132,102.823,NaN,0.0,12.864,,4 / 24,,1389,2022-01-20 11:40:10:352
-0.69631,4.47069,8.42812,-1.05569,4.29692,8.75171,-0.91179,0.3592,0.29484,-0.11331,-0.23355,0.16817,-0.075,-28.05,-14.7,174.496,-25.987,6.878,48.84388,2.3533132,102.823,NaN,0.0,12.864,,4 / 24,,1395,2022-01-20 11:40:10:358
-0.69631,4.47069,8.42812,-0.7094,4.20886,8.82908,-0.91179,0.3592,0.29484,-0.11331,-0.23355,0.16817,-0.075,-28.05,-14.7,174.496,-25.987,6.878,48.84388,2.3533132,102.823,NaN,0.0,12.864,,4 / 24,,1398,2022-01-20 11:40:10:361
-0.69631,4.47069,8.42812,-0.7094,4.20886,8.82908,-0.07909,0.0179,-0.4788,-0.11331,-0.23355,0.16817,-0.075,-28.05,-14.7,174.496,-25.987,6.878,48.84388,2.3533132,102.823,NaN,0.0,12.864,,4 / 24,,1404,2022-01-20 11:40:10:367
-0.69631,4.47069,8.42812,-0.7094,4.20886,8.82908,-0.07909,0.0179,-0.4788,-0.11331,-0.23355,0.16817,-0.075,-28.05,-14.7,174.496,-25.987,6.878,48.84388,2.3533132,102.823,NaN,0.0,12.864,,4 / 24,,1410,2022-01-20 11:40:10:373
-0.69631,4.47069,8.42812,-0.7094,4.20886,8.82908,-0.07909,0.0179,-0.4788,-0.11331,-0.23355,0.16817,-0.075,-28.05,-14.7,174.496,-25.987,6.878,48.84388,2.3533132,102.823,NaN,0.0,12.864,,4 / 24,,1415,2022-01-20 11:40:10:378
-0.69631,4.47069,8.42812,-0.7094,4.20886,8.82908,-0.07909,0.0179,-0.4788,-0.11331,-0.23355,0.16817,-0.075,-28.05,-14.7,174.496,-25.987,6.878,48.84388,2.3533132,102.823,NaN,0.0,12.864,,4 / 24,,1419,2022-01-20 11:40:10:382
-0.69631,4.47069,8.42812,-0.7094,4.20886,8.82908,-0.07909,0.0179,-0.4788,-0.11331,-0.23355,0.16817,-0.075,-28.05,-14.7,174.496,-25.987,6.878,48.84388,2.3533132,102.823,NaN,0.0,12.864,,4 / 24,,1425,2022-01-20 11:40:10:388
-0.69631,4.47069,8.42812,-0.7094,4.20886,8.82908,-0.07909,0.0179,-0.4788,-0.11331,-0.23355,0.16817,-0.075,-28.05,-14.7,174.496,-25.987,6.878,48.84388,2.3533132,102.823,NaN,0.0,12.864,,4 / 24,,1429,2022-01-20 11:40:10:392
-0.69631,4.47069,8.42812,-0.7094,4.20886,8.82908,-0.07909,0.0179,-0.4788,-0.11331,-0.23355,0.16817,-0.075,-28.05,-14.7,174.496,-25.987,6.878,48.84388,2.3533132,102.823,NaN,0.0,12.864,,4 / 24,,1434,2022-01-20 11:40:10:397
-0.31047,3.96999,9.95055,-0.7094,4.20886,8.82908,-0.07909,0.0179,-0.4788,-0.19054,-0.01784,0.09108,-0.075,-28.05,-14.7,174.496,-25.987,6.878,48.84388,2.3533132,102.823,NaN,0.0,12.864,,4 / 24,,1440,2022-01-20 11:40:10:403
-0.31047,3.96999,9.95055,-0.7094,4.20886,8.82908,-0.07909,0.0179,-0.4788,-0.19054,-0.01784,0.09108,-0.075,-28.05,-14.7,174.496,-25.987,6.878,48.84388,2.3533132,102.823,NaN,0.0,12.864,,4 / 24,,1445,2022-01-20 11:40:10:408
-0.31047,3.96999,9.95055,-0.7094,4.20886,8.82908,-0.07909,0.0179,-0.4788,-0.19054,-0.01784,0.09108,-0.075,-28.05,-14.7,174.496,-25.987,6.878,48.84388,2.3533132,102.823,NaN,0.0,12.864,,4 / 24,,1449,2022-01-20 11:40:10:412
-0.31047,3.96999,9.95055,-0.7094,4.20886,8.82908,-0.07909,0.0179,-0.4788,-0.19054,-0.01784,0.09108,-1.2,-27.825,-14.7,173.369,-25.416,4.594,48.84388,2.3533132,102.823,NaN,0.0,12.864,,4 / 24,,1453,2022-01-20 11:40:10:416
-0.31047,3.96999,9.95055,-0.7094,4.20886,8.82908,-0.07909,0.0179,-0.4788,-0.19054,-0.01784,0.09108,-1.2,-27.825,-14.7,173.369,-25.416,4.594,48.84388,2.3533132,102.823,NaN,0.0,12.864,,4 / 24,,1458,2022-01-20 11:40:10:421
-0.31047,3.96999,9.95055,-0.68751,4.11774,8.87367,-0.39741,0.00309,-0.3769,-0.19054,-0.01784,0.09108,-1.2,-27.825,-14.7,173.369,-25.416,4.594,48.84388,2.3533132,102.823,NaN,0.0,12.864,,4 / 24,,1463,2022-01-20 11:40:10:426
-0.31047,3.96999,9.95055,-0.68751,4.11774,8.87367,-0.39741,0.00309,-0.3769,-0.19054,-0.01784,0.09108,-1.2,-27.825,-14.7,173.369,-25.416,4.594,48.84388,2.3533132,102.823,NaN,0.0,12.864,,4 / 24,,1469,2022-01-20 11:40:10:432
-0.31047,3.96999,9.95055,-0.68751,4.11774,8.87367,-0.39741,0.00309,-0.3769,-0.19054,-0.01784,0.09108,-1.2,-27.825,-14.7,173.369,-25.416,4.594,48.84388,2.3533132,102.823,NaN,0.0,12.864,,4 / 24,,1475,2022-01-20 11:40:10:438
-0.31047,3.96999,9.95055,-0.68751,4.11774,8.87367,-0.39741,0.00309,-0.3769,-0.19054,-0.01784,0.09108,-1.2,-27.825,-14.7,173.369,-25.416,4.594,48.84388,2.3533132,102.823,NaN,0.0,12.864,,4 / 24,,1478,2022-01-20 11:40:10:441
-0.31047,3.96999,9.95055,-0.68751,4.11774,8.87367,-0.39741,0.00309,-0.3769,-0.19054,-0.01784,0.09108,-1.2,-27.825,-14.7,173.369,-25.416,4.594,48.84388,2.3533132,102.823,NaN,0.0,12.864,,4 / 24,,1484,2022-01-20 11:40:10:447
-0.31047,3.96999,9.95055,-0.68751,4.11774,8.87367,-0.39741,0.00309,-0.3769,-0.19054,-0.01784,0.09108,-1.2,-27.825,-14.7,173.369,-25.416,4.594,48.84388,2.3533132,102.823,NaN,0.0,12.864,,4 / 24,,1488,2022-01-20 11:40:10:451
-0.31047,3.96999,9.95055,-0.68751,4.11774,8.87367,-0.39741,0.00309,-0.3769,-0.19054,-0.01784,0.09108,-1.2,-27.825,-14.7,173.369,-25.416,4.594,48.84388,2.3533132,102.823,NaN,0.0,12.864,,4 / 24,,1494,2022-01-20 11:40:10:457
-0.31047,3.96999,9.95055,-0.68751,4.11774,8.87367,-0.39741,0.00309,-0.3769,-0.19054,-0.01784,0.09108,-1.2,-27.825,-14.7,173.369,-25.416,4.594,48.84388,2.3533132,102.823,NaN,0.0,12.864,,4 / 24,,1499,2022-01-20 11:40:10:462
-0.31047,3.96999,9.95055,-0.68751,4.11774,8.87367,-0.39741,0.00309,-0.3769,-0.19054,-0.01784,0.09108,-1.2,-27.825,-14.7,173.369,-25.416,4.594,48.84388,2.3533132,102.823,NaN,0.0,12.864,,4 / 24,,1504,2022-01-20 11:40:10:467
-0.89761,3.37238,8.21366,-0.68751,4.11774,8.87367,-0.39741,0.00309,-0.3769,-0.19054,-0.01784,0.09108,-1.2,-27.825,-14.7,173.369,-25.416,4.594,48.84388,2.3533132,102.823,NaN,0.0,12.864,,4 / 24,,1511,2022-01-20 11:40:10:474
-0.89761,3.37238,8.21366,-0.68751,4.11774,8.87367,-0.39741,0.00309,-0.3769,-0.19054,-0.01784,0.09108,-1.2,-27.825,-14.7,173.369,-25.416,4.594,48.84388,2.3533132,102.823,NaN,0.0,12.864,,4 / 24,,1513,2022-01-20 11:40:10:476
-0.89761,3.37238,8.21366,-0.68751,4.11774,8.87367,-0.39741,0.00309,-0.3769,-0.19054,-0.01784,0.09108,-1.2,-27.825,-14.7,173.369,-25.416,4.594,48.84388,2.3533132,102.823,NaN,0.0,12.864,,4 / 24,,1519,2022-01-20 11:40:10:482
-0.89761,3.37238,8.21366,-0.68751,4.11774,8.87367,-0.39741,0.00309,-0.3769,-0.19054,-0.01784,0.09108,-1.2,-27.825,-14.7,173.369,-25.416,4.594,48.84388,2.3533132,102.823,NaN,0.0,12.864,,4 / 24,,1524,2022-01-20 11:40:10:487
-0.89761,3.37238,8.21366,-0.68751,4.11774,8.87367,-0.39741,0.00309,-0.3769,-0.19054,-0.01784,0.09108,-1.2,-27.825,-14.7,173.369,-25.416,4.594,48.84388,2.3533132,102.823,NaN,0.0,12.864,,4 / 24,,1529,2022-01-20 11:40:10:492
-0.89761,3.37238,8.21366,-0.68751,4.11774,8.87367,-0.39741,0.00309,-0.3769,-0.19054,-0.01784,0.09108,-1.2,-27.825,-14.7,173.369,-25.416,4.594,48.84388,2.3533132,102.823,NaN,0.0,12.864,,4 / 24,,1533,2022-01-20 11:40:10:496
-0.89761,3.37238,8.21366,-0.68751,4.11774,8.87367,-0.39741,0.00309,-0.3769,-0.19054,-0.01784,0.09108,-1.2,-27.825,-14.7,173.369,-25.416,4.594,48.84388,2.3533132,102.823,NaN,0.0,12.864,,4 / 24,,1539,2022-01-20 11:40:10:502
-0.89761,3.37238,8.21366,-0.68751,4.11774,8.87367,-0.39741,0.00309,-0.3769,-0.19054,-0.01784,0.09108,-1.2,-27.825,-14.7,173.369,-25.416,4.594,48.84388,2.3533132,102.823,NaN,0.0,12.864,,4 / 24,,1544,2022-01-20 11:40:10:507
-0.89761,3.37238,8.21366,-0.68751,4.11774,8.87367,-0.39741,0.00309,-0.3769,-0.19054,-0.01784,0.09108,-1.875,-27.975,-14.925,170.674,-24.828,4.43,48.84388,2.3533132,102.823,NaN,0.0,12.864,,4 / 24,,1549,2022-01-20 11:40:10:512
-0.89761,3.37238,8.21366,-0.68751,4.11774,8.87367,-0.39741,0.00309,-0.3769,-0.19054,-0.01784,0.09108,-1.875,-27.975,-14.925,170.674,-24.828,4.43,48.84388,2.3533132,102.823,NaN,0.0,12.864,,4 / 24,,1554,2022-01-20 11:40:10:517
-0.89761,3.37238,8.21366,-0.68751,4.11774,8.87367,-0.39741,0.00309,-0.3769,-0.19054,-0.01784,0.09108,-1.875,-27.975,-14.925,170.674,-24.828,4.43,48.84388,2.3533132,102.823,NaN,0.0,12.864,,4 / 24,,1560,2022-01-20 11:40:10:523
-0.89761,3.37238,8.21366,-0.68751,4.11774,8.87367,-0.39741,0.00309,-0.3769,-0.19054,-0.01784,0.09108,-1.875,-27.975,-14.925,170.674,-24.828,4.43,48.84388,2.3533132,102.823,NaN,0.0,12.864,,4 / 24,,1565,2022-01-20 11:40:10:528
-0.89761,3.37238,8.21366,-0.68751,4.11774,8.87367,-0.39741,0.00309,-0.3769,-0.19054,-0.01784,0.09108,-1.875,-27.975,-14.925,170.674,-24.828,4.43,48.84388,2.3533132,102.823,NaN,0.0,12.864,,4 / 24,,1569,2022-01-20 11:40:10:532
-1.29153,2.80588,8.47239,-0.59958,3.89981,8.97788,-0.1126,-0.19322,-0.68757,-0.34953,-0.00759,0.04794,-1.875,-27.975,-14.925,170.674,-24.828,4.43,48.84388,2.3533132,102.823,NaN,0.0,12.864,,4 / 24,,1574,2022-01-20 11:40:10:537
-1.29153,2.80588,8.47239,-0.59958,3.89981,8.97788,-0.1126,-0.19322,-0.68757,-0.34953,-0.00759,0.04794,-1.875,-27.975,-14.925,170.674,-24.828,4.43,48.84388,2.3533132,102.823,NaN,0.0,12.864,,4 / 24,,1579,2022-01-20 11:40:10:542
-1.29153,2.80588,8.47239,-0.59958,3.89981,8.97788,-0.1126,-0.19322,-0.68757,-0.34953,-0.00759,0.04794,-1.875,-27.975,-14.925,170.674,-24.828,4.43,48.84388,2.3533132,102.823,NaN,0.0,12.864,,4 / 24,,1584,2022-01-20 11:40:10:547
-1.29153,2.80588,8.47239,-0.59958,3.89981,8.97788,-0.1126,-0.19322,-0.68757,-0.34953,-0.00759,0.04794,-1.875,-27.975,-14.925,170.674,-24.828,4.43,48.84388,2.3533132,102.823,NaN,0.0,12.864,,4 / 24,,1589,2022-01-20 11:40:10:552
-1.29153,2.80588,8.47239,-0.59958,3.89981,8.97788,-0.1126,-0.19322,-0.68757,-0.34953,-0.00759,0.04794,-1.875,-27.975,-14.925,170.674,-24.828,4.43,48.84388,2.3533132,102.823,NaN,0.0,12.864,,4 / 24,,1594,2022-01-20 11:40:10:557
-1.29153,2.80588,8.47239,-0.59958,3.89981,8.97788,-0.1126,-0.19322,-0.68757,-0.34953,-0.00759,0.04794,-1.875,-27.975,-14.925,170.674,-24.828,4.43,48.84388,2.3533132,102.823,NaN,0.0,12.864,,4 / 24,,1599,2022-01-20 11:40:10:562
-1.29153,2.80588,8.47239,-0.59958,3.89981,8.97788,-0.1126,-0.19322,-0.68757,-0.34953,-0.00759,0.04794,-1.875,-27.975,-14.925,170.674,-24.828,4.43,48.84388,2.3533132,102.823,NaN,0.0,12.864,,4 / 24,,1603,2022-01-20 11:40:10:566
-1.29153,2.80588,8.47239,-0.59958,3.89981,8.97788,-0.1126,-0.19322,-0.68757,-0.34953,-0.00759,0.04794,-1.875,-27.975,-14.925,170.674,-24.828,4.43,48.84388,2.3533132,102.823,NaN,0.0,12.864,,4 / 24,,1609,2022-01-20 11:40:10:572
-1.29153,2.80588,8.47239,-0.59958,3.89981,8.97788,-0.1126,-0.19322,-0.68757,-0.34953,-0.00759,0.04794,-1.875,-27.975,-14.925,170.674,-24.828,4.43,48.84388,2.3533132,102.823,NaN,0.0,12.864,,4 / 24,,1613,2022-01-20 11:40:10:576
-1.29153,2.80588,8.47239,-0.59958,3.89981,8.97788,-0.1126,-0.19322,-0.68757,-0.34953,-0.00759,0.04794,-1.875,-27.975,-14.925,170.674,-24.828,4.43,48.84388,2.3533132,102.823,NaN,0.0,12.864,,4 / 24,,1619,2022-01-20 11:40:10:582
-1.29153,2.80588,8.47239,-0.59958,3.89981,8.97788,-0.1126,-0.19322,-0.68757,-0.34953,-0.00759,0.04794,-1.875,-27.975,-14.925,170.674,-24.828,4.43,48.84388,2.3533132,102.823,NaN,0.0,12.864,,4 / 24,,1624,2022-01-20 11:40:10:587
-1.29153,2.80588,8.47239,-0.59958,3.89981,8.97788,-0.1126,-0.19322,-0.68757,-0.34953,-0.00759,0.04794,-1.875,-27.975,-14.925,170.674,-24.828,4.43,48.84388,2.3533132,102.823,NaN,0.0,12.864,,4 / 24,,1629,2022-01-20 11:40:10:592
-1.33938,4.29691,9.49771,-0.60312,3.69286,9.06473,-0.06618,-0.55739,-0.4052,-0.34953,-0.00759,0.04794,-1.875,-27.975,-14.925,170.674,-24.828,4.43,48.84388,2.3533132,102.823,NaN,0.0,12.864,,4 / 24,,1636,2022-01-20 11:40:10:599
-1.33938,4.29691,9.49771,-0.60312,3.69286,9.06473,-0.06618,-0.55739,-0.4052,-0.34953,-0.00759,0.04794,-1.875,-27.975,-14.925,170.674,-24.828,4.43,48.84388,2.3533132,102.823,NaN,0.0,12.864,,4 / 24,,1639,2022-01-20 11:40:10:602
-1.33938,4.29691,9.49771,-0.60312,3.69286,9.06473,-0.06618,-0.55739,-0.4052,-0.34953,-0.00759,0.04794,-1.875,-27.975,-14.925,170.674,-24.828,4.43,48.84388,2.3533132,102.823,NaN,0.0,12.864,,4 / 24,,1644,2022-01-20 11:40:10:607
-1.33938,4.29691,9.49771,-0.60312,3.69286,9.06473,-0.06618,-0.55739,-0.4052,-0.34953,-0.00759,0.04794,-2.475,-28.05,-15.15,171.639,-22.121,3.807,48.84388,2.3533132,102.823,NaN,0.0,12.864,,4 / 24,,1649,2022-01-20 11:40:10:612
-1.33938,4.29691,9.49771,-0.60312,3.69286,9.06473,-0.06618,-0.55739,-0.4052,-0.34953,-0.00759,0.04794,-2.475,-28.05,-15.15,171.639,-22.121,3.807,48.84388,2.3533132,102.823,NaN,0.0,12.864,,4 / 24,,1654,2022-01-20 11:40:10:617
-1.33938,4.29691,9.49771,-0.60312,3.69286,9.06473,-0.06618,-0.55739,-0.4052,-0.34953,-0.00759,0.04794,-2.475,-28.05,-15.15,171.639,-22.121,3.807,48.84388,2.3533132,102.823,NaN,0.0,12.864,,4 / 24,,1659,2022-01-20 11:40:10:622
-1.33938,4.29691,9.49771,-0.60312,3.69286,9.06473,-0.06618,-0.55739,-0.4052,-0.34953,-0.00759,0.04794,-2.475,-28.05,-15.15,171.639,-22.121,3.807,48.84388,2.3533132,102.823,NaN,0.0,12.864,,4 / 24,,1664,2022-01-20 11:40:10:627
-1.33938,4.29691,9.49771,-0.60312,3.69286,9.06473,-0.06618,-0.55739,-0.4052,-0.34953,-0.00759,0.04794,-2.475,-28.05,-15.15,171.639,-22.121,3.807,48.84388,2.3533132,102.823,NaN,0.0,12.864,,4 / 24,,1669,2022-01-20 11:40:10:632
-1.33938,4.29691,9.49771,-0.60312,3.69286,9.06473,-0.06618,-0.55739,-0.4052,-0.34953,-0.00759,0.04794,-2.475,-28.05,-15.15,171.639,-22.121,3.807,48.84388,2.3533132,102.823,NaN,0.0,12.864,,4 / 24,,1674,2022-01-20 11:40:10:637
-1.33938,4.29691,9.49771,-0.60312,3.69286,9.06473,-0.06618,-0.55739,-0.4052,-0.34953,-0.00759,0.04794,-2.475,-28.05,-15.15,171.639,-22.121,3.807,48.84388,2.3533132,102.823,NaN,0.0,12.864,,4 / 24,,1679,2022-01-20 11:40:10:642
-1.33938,4.29691,9.49771,-0.60312,3.69286,9.06473,-0.06618,-0.55739,-0.4052,-0.34953,-0.00759,0.04794,-2.475,-28.05,-15.15,171.639,-22.121,3.807,48.84388,2.3533132,102.823,NaN,0.0,12.864,,4 / 24,,1684,2022-01-20 11:40:10:647
-1.33938,4.29691,9.49771,-0.60312,3.69286,9.06473,-0.06618,-0.55739,-0.4052,-0.34953,-0.00759,0.04794,-2.475,-28.05,-15.15,171.639,-22.121,3.807,48.84388,2.3533132,102.823,NaN,0.0,12.864,,4 / 24,,1689,2022-01-20 11:40:10:652
-1.33938,4.29691,9.49771,-0.60312,3.69286,9.06473,-0.06618,-0.55739,-0.4052,-0.34953,-0.00759,0.04794,-2.475,-28.05,-15.15,171.639,-22.121,3.807,48.84388,2.3533132,102.823,NaN,0.0,12.864,,4 / 24,,1694,2022-01-20 11:40:10:657
-1.33938,4.29691,9.49771,-0.60312,3.69286,9.06473,-0.06618,-0.55739,-0.4052,-0.34953,-0.00759,0.04794,-2.475,-28.05,-15.15,171.639,-22.121,3.807,48.84388,2.3533132,102.823,NaN,0.0,12.864,,4 / 24,,1699,2022-01-20 11:40:10:662
-0.75852,1.7686,8.54537,-0.52787,3.48655,9.15072,-0.06618,-0.55739,-0.4052,-0.36391,-0.11358,0.08695,-2.475,-28.05,-15.15,171.639,-22.121,3.807,48.84388,2.3533132,102.823,NaN,0.0,12.864,,4 / 24,,1704,2022-01-20 11:40:10:667
-0.75852,1.7686,8.54537,-0.52787,3.48655,9.15072,-0.20803,0.68954,0.31112,-0.36391,-0.11358,0.08695,-2.475,-28.05,-15.15,171.639,-22.121,3.807,48.84388,2.3533132,102.823,NaN,0.0,12.864,,4 / 24,,1709,2022-01-20 11:40:10:672
-0.75852,1.7686,8.54537,-0.52787,3.48655,9.15072,-0.20803,0.68954,0.31112,-0.36391,-0.11358,0.08695,-2.475,-28.05,-15.15,171.639,-22.121,3.807,48.84388,2.3533132,102.823,NaN,0.0,12.864,,4 / 24,,1714,2022-01-20 11:40:10:677
-0.75852,1.7686,8.54537,-0.52787,3.48655,9.15072,-0.20803,0.68954,0.31112,-0.36391,-0.11358,0.08695,-2.475,-28.05,-15.15,171.639,-22.121,3.807,48.84388,2.3533132,102.823,NaN,0.0,12.864,,4 / 24,,1718,2022-01-20 11:40:10:681
-0.75852,1.7686,8.54537,-0.52787,3.48655,9.15072,-0.20803,0.68954,0.31112,-0.36391,-0.11358,0.08695,-2.475,-28.05,-15.15,171.639,-22.121,3.807,48.84388,2.3533132,102.823,NaN,0.0,12.864,,4 / 24,,1723,2022-01-20 11:40:10:686
-0.75852,1.7686,8.54537,-0.52787,3.48655,9.15072,-0.20803,0.68954,0.31112,-0.36391,-0.11358,0.08695,-2.475,-28.05,-15.15,171.639,-22.121,3.807,48.84388,2.3533132,102.823,NaN,0.0,12.864,,4 / 24,,1729,2022-01-20 11:40:10:692
-0.75852,1.7686,8.54537,-0.52787,3.48655,9.15072,-0.20803,0.68954,0.31112,-0.36391,-0.11358,0.08695,-2.475,-28.05,-15.15,171.639,-22.121,3.807,48.84388,2.3533132,102.823,NaN,0.0,12.864,,4 / 24,,1734,2022-01-20 11:40:10:697
-0.75852,1.7686,8.54537,-0.52787,3.48655,9.15072,-0.20803,0.68954,0.31112,-0.36391,-0.11358,0.08695,-2.475,-28.05,-15.15,171.639,-22.121,3.807,48.84388,2.3533132,102.823,NaN,0.0,12.864,,4 / 24,,1738,2022-01-20 11:40:10:701
-0.75852,1.7686,8.54537,-0.52787,3.48655,9.15072,-0.20803,0.68954,0.31112,-0.36391,-0.11358,0.08695,-2.475,-28.05,-15.15,171.639,-22.121,3.807,48.84388,2.3533132,102.823,NaN,0.0,12.864,,4 / 24,,1743,2022-01-20 11:40:10:706
-0.75852,1.7686,8.54537,-0.52787,3.48655,9.15072,-0.20803,0.68954,0.31112,-0.36391,-0.11358,0.08695,-2.85,-27.975,-15.675,169.211,-20.826,3.302,48.84388,2.3533132,102.823,NaN,0.0,12.864,,4 / 24,,1749,2022-01-20 11:40:10:712
-0.75852,1.7686,8.54537,-0.52787,3.48655,9.15072,-0.20803,0.68954,0.31112,-0.36391,-0.11358,0.08695,-2.85,-27.975,-15.675,169.211,-20.826,3.302,48.84388,2.3533132,102.823,NaN,0.0,12.864,,4 / 24,,1754,2022-01-20 11:40:10:717
-0.75852,1.7686,8.54537,-0.52787,3.48655,9.15072,-0.20803,0.68954,0.31112,-0.36391,-0.11358,0.08695,-2.85,-27.975,-15.675,169.211,-20.826,3.302,48.84388,2.3533132,102.823,NaN,0.0,12.864,,4 / 24,,1759,2022-01-20 11:40:10:722
-0.75852,1.7686,8.54537,-0.52787,3.48655,9.15072,-0.20803,0.68954,0.31112,-0.36391,-0.11358,0.08695,-2.85,-27.975,-15.675,169.211,-20.826,3.302,48.84388,2.3533132,102.823,NaN,0.0,12.864,,4 / 24,,1763,2022-01-20 11:40:10:726
-0.75852,1.7686,8.54537,-0.52787,3.48655,9.15072,-0.20803,0.68954,0.31112,-0.36391,-0.11358,0.08695,-2.85,-27.975,-15.675,169.211,-20.826,3.302,48.84388,2.3533132,102.823,NaN,0.0,12.864,,4 / 24,,1769,2022-01-20 11:40:10:732
-1.0675,2.30519,7.88794,-0.52568,3.39682,9.18453,-0.29877,-0.12984,0.1017,-0.36391,-0.11358,0.08695,-2.85,-27.975,-15.675,169.211,-20.826,3.302,48.84388,2.3533132,102.823,NaN,0.0,12.864,,4 / 24,,1774,2022-01-20 11:40:10:737
-1.0675,2.30519,7.88794,-0.52568,3.39682,9.18453,-0.29877,-0.12984,0.1017,-0.36391,-0.11358,0.08695,-2.85,-27.975,-15.675,169.211,-20.826,3.302,48.84388,2.3533132,102.823,NaN,0.0,12.864,,4 / 24,,1779,2022-01-20 11:40:10:742
-1.0675,2.30519,7.88794,-0.52568,3.39682,9.18453,-0.29877,-0.12984,0.1017,-0.36391,-0.11358,0.08695,-2.85,-27.975,-15.675,169.211,-20.826,3.302,48.84388,2.3533132,102.823,NaN,0.0,12.864,,4 / 24,,1783,2022-01-20 11:40:10:746
-1.0675,2.30519,7.88794,-0.52568,3.39682,9.18453,-0.29877,-0.12984,0.1017,-0.36391,-0.11358,0.08695,-2.85,-27.975,-15.675,169.211,-20.826,3.302,48.84388,2.3533132,102.823,NaN,0.0,12.864,,4 / 24,,1789,2022-01-20 11:40:10:752
-1.0675,2.30519,7.88794,-0.52568,3.39682,9.18453,-0.29877,-0.12984,0.1017,-0.36391,-0.11358,0.08695,-2.85,-27.975,-15.675,169.211,-20.826,3.302,48.84388,2.3533132,102.823,NaN,0.0,12.864,,4 / 24,,1794,2022-01-20 11:40:10:757
-1.0675,2.30519,7.88794,-0.52568,3.39682,9.18453,-0.29877,-0.12984,0.1017,-0.36391,-0.11358,0.08695,-2.85,-27.975,-15.675,169.211,-20.826,3.302,48.84388,2.3533132,102.823,NaN,0.0,12.864,,4 / 24,,1799,2022-01-20 11:40:10:762
-1.0675,2.30519,7.88794,-0.52568,3.39682,9.18453,-0.29877,-0.12984,0.1017,-0.36391,-0.11358,0.08695,-2.85,-27.975,-15.675,169.211,-20.826,3.302,48.84388,2.3533132,102.823,NaN,0.0,12.864,,4 / 24,,1804,2022-01-20 11:40:10:767
-1.0675,2.30519,7.88794,-0.52568,3.39682,9.18453,-0.29877,-0.12984,0.1017,-0.36391,-0.11358,0.08695,-2.85,-27.975,-15.675,169.211,-20.826,3.302,48.84388,2.3533132,102.823,NaN,0.0,12.864,,4 / 24,,1809,2022-01-20 11:40:10:772
-1.0675,2.30519,7.88794,-0.52568,3.39682,9.18453,-0.29877,-0.12984,0.1017,-0.36391,-0.11358,0.08695,-2.85,-27.975,-15.675,169.211,-20.826,3.302,48.84388,2.3533132,102.823,NaN,0.0,12.864,,4 / 24,,1814,2022-01-20 11:40:10:777
-1.0675,2.30519,7.88794,-0.52568,3.39682,9.18453,-0.29877,-0.12984,0.1017,-0.36391,-0.11358,0.08695,-2.85,-27.975,-15.675,169.211,-20.826,3.302,48.84388,2.3533132,102.823,NaN,0.0,12.864,,4 / 24,,1819,2022-01-20 11:40:10:782
-1.0675,2.30519,7.88794,-0.52568,3.39682,9.18453,-0.29877,-0.12984,0.1017,-0.36391,-0.11358,0.08695,-2.85,-27.975,-15.675,169.211,-20.826,3.302,48.84388,2.3533132,102.823,NaN,0.0,12.864,,4 / 24,,1824,2022-01-20 11:40:10:787
-1.0675,2.30519,7.88794,-0.52568,3.39682,9.18453,-0.29877,-0.12984,0.1017,-0.36391,-0.11358,0.08695,-2.85,-27.975,-15.675,169.211,-20.826,3.302,48.84388,2.3533132,102.823,NaN,0.0,12.864,,4 / 24,,1829,2022-01-20 11:40:10:792
-1.0675,2.30519,7.88794,-0.52568,3.39682,9.18453,-0.29877,-0.12984,0.1017,-0.36391,-0.11358,0.08695,-2.85,-27.975,-15.675,169.211,-20.826,3.302,48.84388,2.3533132,102.823,NaN,0.0,12.864,,4 / 24,,1833,2022-01-20 11:40:10:796
0.88714,2.69432,9.41037,-0.52568,3.39682,9.18453,-0.29877,-0.12984,0.1017,-0.19307,0.03795,0.0281,-2.85,-27.975,-15.675,169.211,-20.826,3.302,48.84388,2.3533132,102.823,NaN,0.0,12.864,,4 / 24,,1839,2022-01-20 11:40:10:802
0.88714,2.69432,9.41037,-0.52568,3.39682,9.18453,-0.29877,-0.12984,0.1017,-0.19307,0.03795,0.0281,-2.85,-27.975,-15.675,169.211,-20.826,3.302,48.84388,2.3533132,102.823,NaN,0.0,12.864,,4 / 24,,1844,2022-01-20 11:40:10:807
0.88714,2.69432,9.41037,-0.52568,3.39682,9.18453,-0.29877,-0.12984,0.1017,-0.19307,0.03795,0.0281,-2.85,-27.975,-15.675,169.211,-20.826,3.302,48.84388,2.3533132,102.823,NaN,0.0,12.864,,4 / 24,,1850,2022-01-20 11:40:10:813
0.88714,2.69432,9.41037,-0.52568,3.39682,9.18453,-0.29877,-0.12984,0.1017,-0.19307,0.03795,0.0281,-3.15,-27.525,-16.275,169.352,-20.266,3.276,48.84388,2.3533132,102.823,NaN,0.0,12.864,,4 / 24,,1854,2022-01-20 11:40:10:817
0.88714,2.69432,9.41037,-0.52568,3.39682,9.18453,-0.29877,-0.12984,0.1017,-0.19307,0.03795,0.0281,-3.15,-27.525,-16.275,169.352,-20.266,3.276,48.84388,2.3533132,102.823,NaN,0.0,12.864,,4 / 24,,1859,2022-01-20 11:40:10:822
0.88714,2.69432,9.41037,-0.52568,3.39682,9.18453,-0.29877,-0.12984,0.1017,-0.19307,0.03795,0.0281,-3.15,-27.525,-16.275,169.352,-20.266,3.276,48.84388,2.3533132,102.823,NaN,0.0,12.864,,4 / 24,,1864,2022-01-20 11:40:10:827
0.88714,2.69432,9.41037,-0.52568,3.39682,9.18453,-0.29877,-0.12984,0.1017,-0.19307,0.03795,0.0281,-3.15,-27.525,-16.275,169.352,-20.266,3.276,48.84388,2.3533132,102.823,NaN,0.0,12.864,,4 / 24,,1869,2022-01-20 11:40:10:832
0.88714,2.69432,9.41037,-0.52568,3.39682,9.18453,-0.29877,-0.12984,0.1017,-0.19307,0.03795,0.0281,-3.15,-27.525,-16.275,169.352,-20.266,3.276,48.84388,2.3533132,102.823,NaN,0.0,12.864,,4 / 24,,1874,2022-01-20 11:40:10:837
0.88714,2.69432,9.41037,-0.52568,3.39682,9.18453,-0.29877,-0.12984,0.1017,-0.19307,0.03795,0.0281,-3.15,-27.525,-16.275,169.352,-20.266,3.276,48.84388,2.3533132,102.823,NaN,0.0,12.864,,4 / 24,,1879,2022-01-20 11:40:10:842
0.88714,2.69432,9.41037,-0.60596,3.20186,9.24939,-0.35992,-0.22012,0.04018,-0.19307,0.03795,0.0281,-3.15,-27.525,-16.275,169.352,-20.266,3.276,48.84388,2.3533132,102.823,NaN,0.0,12.864,,4 / 24,,1884,2022-01-20 11:40:10:847
0.88714,2.69432,9.41037,-0.60596,3.20186,9.24939,-0.35992,-0.22012,0.04018,-0.19307,0.03795,0.0281,-3.15,-27.525,-16.275,169.352,-20.266,3.276,48.84388,2.3533132,102.823,NaN,0.0,12.864,,4 / 24,,1888,2022-01-20 11:40:10:851
0.88714,2.69432,9.41037,-0.60596,3.20186,9.24939,-0.35992,-0.22012,0.04018,-0.19307,0.03795,0.0281,-3.15,-27.525,-16.275,169.352,-20.266,3.276,48.84388,2.3533132,102.823,NaN,0.0,12.864,,4 / 24,,1893,2022-01-20 11:40:10:856
-0.13699,2.08594,9.28086,-0.60596,3.20186,9.24939,-0.35992,-0.22012,0.04018,-0.19307,0.03795,0.0281,-3.15,-27.525,-16.275,169.352,-20.266,3.276,48.84388,2.3533132,102.823,NaN,0.0,12.864,,4 / 24,,1899,2022-01-20 11:40:10:862
-0.13699,2.08594,9.28086,-0.60596,3.20186,9.24939,-0.35992,-0.22012,0.04018,-0.19307,0.03795,0.0281,-3.15,-27.525,-16.275,169.352,-20.266,3.276,48.84388,2.3533132,102.823,NaN,0.0,12.864,,4 / 24,,1904,2022-01-20 11:40:10:867
-0.13699,2.08594,9.28086,-0.60596,3.20186,9.24939,-0.35992,-0.22012,0.04018,-0.19307,0.03795,0.0281,-3.15,-27.525,-16.275,169.352,-20.266,3.276,48.84388,2.3533132,102.823,NaN,0.0,12.864,,4 / 24,,1909,2022-01-20 11:40:10:872
-0.13699,2.08594,9.28086,-0.60596,3.20186,9.24939,-0.35992,-0.22012,0.04018,-0.19307,0.03795,0.0281,-3.15,-27.525,-16.275,169.352,-20.266,3.276,48.84388,2.3533132,102.823,NaN,0.0,12.864,,4 / 24,,1914,2022-01-20 11:40:10:877
-0.13699,2.08594,9.28086,-0.60596,3.20186,9.24939,-0.35992,-0.22012,0.04018,-0.19307,0.03795,0.0281,-3.15,-27.525,-16.275,169.352,-20.266,3.276,48.84388,2.3533132,102.823,NaN,0.0,12.864,,4 / 24,,1921,2022-01-20 11:40:10:884
-0.13699,2.08594,9.28086,-0.60596,3.20186,9.24939,-0.35992,-0.22012,0.04018,-0.19307,0.03795,0.0281,-3.15,-27.525,-16.275,169.352,-20.266,3.276,48.84388,2.3533132,102.823,NaN,0.0,12.864,,4 / 24,,1924,2022-01-20 11:40:10:887
-0.13699,2.08594,9.28086,-0.60596,3.20186,9.24939,-0.35992,-0.22012,0.04018,-0.19307,0.03795,0.0281,-3.15,-27.525,-16.275,169.352,-20.266,3.276,48.84388,2.3533132,102.823,NaN,0.0,12.864,,4 / 24,,1928,2022-01-20 11:40:10:891
-0.13699,2.08594,9.28086,-0.60596,3.20186,9.24939,-0.35992,-0.22012,0.04018,-0.19307,0.03795,0.0281,-3.15,-27.525,-16.275,169.352,-20.266,3.276,48.84388,2.3533132,102.823,NaN,0.0,12.864,,4 / 24,,1933,2022-01-20 11:40:10:896
-0.13699,2.08594,9.28086,-0.60596,3.20186,9.24939,-0.35992,-0.22012,0.04018,-0.19307,0.03795,0.0281,-3.15,-27.525,-16.275,169.352,-20.266,3.276,48.84388,2.3533132,102.823,NaN,0.0,12.864,,4 / 24,,1939,2022-01-20 11:40:10:902
-0.13699,2.08594,9.28086,-0.60665,3.10361,9.28278,-0.08939,0.69186,0.11752,-0.19307,0.03795,0.0281,-3.15,-27.525,-16.275,169.352,-20.266,3.276,48.84388,2.3533132,102.823,NaN,0.0,12.864,,4 / 24,,1944,2022-01-20 11:40:10:907
-0.13699,2.08594,9.28086,-0.60665,3.10361,9.28278,-0.08939,0.69186,0.11752,-0.19307,0.03795,0.0281,-3.15,-27.525,-16.275,169.352,-20.266,3.276,48.84388,2.3533132,102.823,NaN,0.0,12.864,,4 / 24,,1948,2022-01-20 11:40:10:911
-0.13699,2.08594,9.28086,-0.60665,3.10361,9.28278,-0.08939,0.69186,0.11752,-0.19307,0.03795,0.0281,-3.3,-26.925,-16.575,168.578,-18.45,3.739,48.84388,2.3533132,102.823,NaN,0.0,12.864,,4 / 24,,1953,2022-01-20 11:40:10:916
-0.13699,2.08594,9.28086,-0.60665,3.10361,9.28278,-0.08939,0.69186,0.11752,-0.19307,0.03795,0.0281,-3.3,-26.925,-16.575,168.578,-18.45,3.739,48.84388,2.3533132,102.823,NaN,0.0,12.864,,4 / 24,,1959,2022-01-20 11:40:10:922
-3.20907,5.4024,11.33749,-0.60665,3.10361,9.28278,-0.08939,0.69186,0.11752,-0.01158,0.09707,-0.07244,-3.3,-26.925,-16.575,168.578,-18.45,3.739,48.84388,2.3533132,102.823,NaN,0.0,12.864,,4 / 24,,1964,2022-01-20 11:40:10:927
-3.20907,5.4024,11.33749,-0.60665,3.10361,9.28278,-0.08939,0.69186,0.11752,-0.01158,0.09707,-0.07244,-3.3,-26.925,-16.575,168.578,-18.45,3.739,48.84388,2.3533132,102.823,NaN,0.0,12.864,,4 / 24,,1968,2022-01-20 11:40:10:931
-3.20907,5.4024,11.33749,-0.60665,3.10361,9.28278,-0.08939,0.69186,0.11752,-0.01158,0.09707,-0.07244,-3.3,-26.925,-16.575,168.578,-18.45,3.739,48.84388,2.3533132,102.823,NaN,0.0,12.864,,4 / 24,,1974,2022-01-20 11:40:10:937
-3.20907,5.4024,11.33749,-0.60665,3.10361,9.28278,-0.08939,0.69186,0.11752,-0.01158,0.09707,-0.07244,-3.3,-26.925,-16.575,168.578,-18.45,3.739,48.84388,2.3533132,102.823,NaN,0.0,12.864,,4 / 24,,1979,2022-01-20 11:40:10:942
-3.20907,5.4024,11.33749,-0.60665,3.10361,9.28278,-0.08939,0.69186,0.11752,-0.01158,0.09707,-0.07244,-3.3,-26.925,-16.575,168.578,-18.45,3.739,48.84388,2.3533132,102.823,NaN,0.0,12.864,,4 / 24,,1984,2022-01-20 11:40:10:947
-3.20907,5.4024,11.33749,-0.60665,3.10361,9.28278,-0.08939,0.69186,0.11752,-0.01158,0.09707,-0.07244,-3.3,-26.925,-16.575,168.578,-18.45,3.739,48.84388,2.3533132,102.823,NaN,0.0,12.864,,4 / 24,,1989,2022-01-20 11:40:10:952
-3.20907,5.4024,11.33749,-0.60665,3.10361,9.28278,-0.08939,0.69186,0.11752,-0.01158,0.09707,-0.07244,-3.3,-26.925,-16.575,168.578,-18.45,3.739,48.84388,2.3533132,102.823,NaN,0.0,12.864,,4 / 24,,1994,2022-01-20 11:40:10:957
-3.20907,5.4024,11.33749,-0.60665,3.10361,9.28278,-0.08939,0.69186,0.11752,-0.01158,0.09707,-0.07244,-3.3,-26.925,-16.575,168.578,-18.45,3.739,48.84388,2.3533132,102.823,NaN,0.0,12.864,,4 / 24,,1998,2022-01-20 11:40:10:961
-3.20907,5.4024,11.33749,-0.60665,3.10361,9.28278,-0.08939,0.69186,0.11752,-0.01158,0.09707,-0.07244,-3.3,-26.925,-16.575,168.578,-18.45,3.739,48.84388,2.3533132,102.823,NaN,0.0,12.864,,4 / 24,,2004,2022-01-20 11:40:10:967
-3.20907,5.4024,11.33749,-0.60665,3.10361,9.28278,-0.08939,0.69186,0.11752,-0.01158,0.09707,-0.07244,-3.3,-26.925,-16.575,168.578,-18.45,3.739,48.84388,2.3533132,102.823,NaN,0.0,12.864,,4 / 24,,2008,2022-01-20 11:40:10:971
-3.20907,5.4024,11.33749,-0.60665,3.10361,9.28278,-0.08939,0.69186,0.11752,-0.01158,0.09707,-0.07244,-3.3,-26.925,-16.575,168.578,-18.45,3.739,48.84388,2.3533132,102.823,NaN,0.0,12.864,,4 / 24,,2014,2022-01-20 11:40:10:977
-3.20907,5.4024,11.33749,-0.60665,3.10361,9.28278,-0.08939,0.69186,0.11752,-0.01158,0.09707,-0.07244,-3.3,-26.925,-16.575,168.578,-18.45,3.739,48.84388,2.3533132,102.823,NaN,0.0,12.864,,4 / 24,,2018,2022-01-20 11:40:10:981
-3.20907,5.4024,11.33749,-0.60665,3.10361,9.28278,-0.08939,0.69186,0.11752,-0.01158,0.09707,-0.07244,-3.3,-26.925,-16.575,168.578,-18.45,3.739,48.84388,2.3533132,102.823,NaN,0.0,12.864,,4 / 24,,2024,2022-01-20 11:40:10:987
-3.20907,5.4024,11.33749,-0.60665,3.10361,9.28278,-0.08939,0.69186,0.11752,-0.01158,0.09707,-0.07244,-3.3,-26.925,-16.575,168.578,-18.45,3.739,48.84388,2.3533132,102.823,NaN,0.0,12.864,,4 / 24,,2028,2022-01-20 11:40:10:991
-3.20907,5.4024,11.33749,-0.60665,3.10361,9.28278,-0.08939,0.69186,0.11752,-0.01158,0.09707,-0.07244,-3.3,-26.925,-16.575,168.578,-18.45,3.739,48.84388,2.3533132,102.823,NaN,0.0,12.864,,4 / 24,,2034,2022-01-20 11:40:10:997
2.10419,3.15912,7.701,-0.60665,3.10361,9.28278,-0.08939,0.69186,0.11752,-0.18176,0.02929,-0.0024,-3.3,-26.925,-16.575,168.578,-18.45,3.739,48.84388,2.3533132,102.823,NaN,0.0,12.864,,4 / 24,,2039,2022-01-20 11:40:11:002
2.10419,3.15912,7.701,-0.60665,3.10361,9.28278,-0.08939,0.69186,0.11752,-0.18176,0.02929,-0.0024,-3.3,-26.925,-16.575,168.578,-18.45,3.739,48.84388,2.3533132,102.823,NaN,0.0,12.864,,4 / 24,,2044,2022-01-20 11:40:11:007
2.10419,3.15912,7.701,-0.60665,3.10361,9.28278,-0.08939,0.69186,0.11752,-0.18176,0.02929,-0.0024,-3.225,-26.4,-17.55,167.654,-18.45,3.739,48.84388,2.3533132,102.823,NaN,0.0,12.864,,4 / 24,,2049,2022-01-20 11:40:11:012
2.10419,3.15912,7.701,-0.60665,3.10361,9.28278,-0.08939,0.69186,0.11752,-0.18176,0.02929,-0.0024,-3.225,-26.4,-17.55,167.654,-18.45,3.739,48.84388,2.3533132,102.823,NaN,0.0,12.864,,4 / 24,,2055,2022-01-20 11:40:11:018
2.10419,3.15912,7.701,-0.60665,3.10361,9.28278,-0.08939,0.69186,0.11752,-0.18176,0.02929,-0.0024,-3.225,-26.4,-17.55,167.654,-18.45,3.739,48.84388,2.3533132,102.823,NaN,0.0,12.864,,4 / 24,,2059,2022-01-20 11:40:11:022
2.10419,3.15912,7.701,-0.68178,2.99784,9.31228,0.42997,0.48818,-0.3173,-0.18176,0.02929,-0.0024,-3.225,-26.4,-17.55,167.654,-18.45,3.739,48.84388,2.3533132,102.823,NaN,0.0,12.864,,4 / 24,,2063,2022-01-20 11:40:11:026
2.10419,3.15912,7.701,-0.68178,2.99784,9.31228,0.42997,0.48818,-0.3173,-0.18176,0.02929,-0.0024,-3.225,-26.4,-17.55,167.654,-18.45,3.739,48.84388,2.3533132,102.823,NaN,0.0,12.864,,4 / 24,,2069,2022-01-20 11:40:11:032
2.10419,3.15912,7.701,-0.68178,2.99784,9.31228,0.42997,0.48818,-0.3173,-0.18176,0.02929,-0.0024,-3.225,-26.4,-17.55,167.654,-18.45,3.739,48.84388,2.3533132,102.823,NaN,0.0,12.864,,4 / 24,,2074,2022-01-20 11:40:11:037
2.10419,3.15912,7.701,-0.68178,2.99784,9.31228,0.42997,0.48818,-0.3173,-0.18176,0.02929,-0.0024,-3.225,-26.4,-17.55,167.654,-18.45,3.739,48.84388,2.3533132,102.823,NaN,0.0,12.864,,4 / 24,,2079,2022-01-20 11:40:11:042
2.10419,3.15912,7.701,-0.68178,2.99784,9.31228,0.42997,0.48818,-0.3173,-0.18176,0.02929,-0.0024,-3.225,-26.4,-17.55,167.654,-18.45,3.739,48.84388,2.3533132,102.823,NaN,0.0,12.864,,4 / 24,,2084,2022-01-20 11:40:11:047
2.10419,3.15912,7.701,-0.68178,2.99784,9.31228,0.42997,0.48818,-0.3173,-0.18176,0.02929,-0.0024,-3.225,-26.4,-17.55,167.654,-18.45,3.739,48.84388,2.3533132,102.823,NaN,0.0,12.864,,4 / 24,,2089,2022-01-20 11:40:11:052
2.10419,3.15912,7.701,-0.68178,2.99784,9.31228,0.42997,0.48818,-0.3173,-0.18176,0.02929,-0.0024,-3.225,-26.4,-17.55,167.654,-18.45,3.739,48.84388,2.3533132,102.823,NaN,0.0,12.864,,4 / 24,,2094,2022-01-20 11:40:11:057
-3.20548,1.28824,8.3022,-0.68178,2.99784,9.31228,0.42997,0.48818,-0.3173,-0.18176,0.02929,-0.0024,-3.225,-26.4,-17.55,167.654,-18.45,3.739,48.84388,2.3533132,102.823,NaN,0.0,12.864,,4 / 24,,2099,2022-01-20 11:40:11:062
-3.20548,1.28824,8.3022,-0.68178,2.99784,9.31228,0.42997,0.48818,-0.3173,-0.18176,0.02929,-0.0024,-3.225,-26.4,-17.55,167.654,-18.45,3.739,48.84388,2.3533132,102.823,NaN,0.0,12.864,,4 / 24,,2104,2022-01-20 11:40:11:067
-3.20548,1.28824,8.3022,-0.68178,2.99784,9.31228,0.42997,0.48818,-0.3173,-0.18176,0.02929,-0.0024,-3.225,-26.4,-17.55,167.654,-18.45,3.739,48.84388,2.3533132,102.823,NaN,0.0,12.864,,4 / 24,,2109,2022-01-20 11:40:11:072
-3.20548,1.28824,8.3022,-0.68178,2.99784,9.31228,0.42997,0.48818,-0.3173,-0.18176,0.02929,-0.0024,-3.225,-26.4,-17.55,167.654,-18.45,3.739,48.84388,2.3533132,102.823,NaN,0.0,12.864,,4 / 24,,2114,2022-01-20 11:40:11:077
-3.20548,1.28824,8.3022,-0.68178,2.99784,9.31228,0.42997,0.48818,-0.3173,-0.18176,0.02929,-0.0024,-3.225,-26.4,-17.55,167.654,-18.45,3.739,48.84388,2.3533132,102.823,NaN,0.0,12.864,,4 / 24,,2118,2022-01-20 11:40:11:081
-3.20548,1.28824,8.3022,-0.68178,2.99784,9.31228,0.42997,0.48818,-0.3173,-0.18176,0.02929,-0.0024,-3.225,-26.4,-17.55,167.654,-18.45,3.739,48.84388,2.3533132,102.823,NaN,0.0,12.864,,4 / 24,,2124,2022-01-20 11:40:11:087
-3.20548,1.28824,8.3022,-0.68178,2.99784,9.31228,0.42997,0.48818,-0.3173,-0.18176,0.02929,-0.0024,-3.225,-26.4,-17.55,167.654,-18.45,3.739,48.84388,2.3533132,102.823,NaN,0.0,12.864,,4 / 24,,2129,2022-01-20 11:40:11:092
-3.20548,1.28824,8.3022,-0.784,2.64781,9.40983,-0.09217,0.08529,-1.59627,-0.18176,0.02929,-0.0024,-3.225,-26.4,-17.55,167.654,-18.45,3.739,48.84388,2.3533132,102.823,NaN,0.0,12.864,,4 / 24,,2134,2022-01-20 11:40:11:097
-3.20548,1.28824,8.3022,-0.784,2.64781,9.40983,-0.09217,0.08529,-1.59627,-0.18176,0.02929,-0.0024,-3.225,-26.4,-17.55,167.654,-18.45,3.739,48.84388,2.3533132,102.823,NaN,0.0,12.864,,4 / 24,,2138,2022-01-20 11:40:11:101
-3.20548,1.28824,8.3022,-0.784,2.64781,9.40983,-0.09217,0.08529,-1.59627,-0.18176,0.02929,-0.0024,-3.225,-26.4,-17.55,167.654,-18.45,3.739,48.84388,2.3533132,102.823,NaN,0.0,12.864,,4 / 24,,2143,2022-01-20 11:40:11:106
-3.20548,1.28824,8.3022,-0.784,2.64781,9.40983,-0.09217,0.08529,-1.59627,-0.18176,0.02929,-0.0024,-3.225,-26.4,-17.55,167.654,-18.45,3.739,48.84388,2.3533132,102.823,NaN,0.0,12.864,,4 / 24,,2149,2022-01-20 11:40:11:112
-3.20548,1.28824,8.3022,-0.784,2.64781,9.40983,-0.09217,0.08529,-1.59627,-0.18176,0.02929,-0.0024,-3.225,-26.4,-17.55,167.654,-18.45,3.739,48.84388,2.3533132,102.823,NaN,0.0,12.864,,4 / 24,,2154,2022-01-20 11:40:11:117
-3.20548,1.28824,8.3022,-0.784,2.64781,9.40983,-0.09217,0.08529,-1.59627,-0.18176,0.02929,-0.0024,-3.225,-26.1,-18.075,167.519,-15.664,4.763,48.84388,2.3533132,102.823,NaN,0.0,12.864,,4 / 24,,2159,2022-01-20 11:40:11:122
-3.20548,1.28824,8.3022,-0.784,2.64781,9.40983,-0.09217,0.08529,-1.59627,-0.18176,0.02929,-0.0024,-3.225,-26.1,-18.075,167.519,-15.664,4.763,48.84388,2.3533132,102.823,NaN,0.0,12.864,,4 / 24,,2164,2022-01-20 11:40:11:127
-3.20548,1.28824,8.3022,-0.784,2.64781,9.40983,-0.09217,0.08529,-1.59627,-0.18176,0.02929,-0.0024,-3.225,-26.1,-18.075,167.519,-15.664,4.763,48.84388,2.3533132,102.823,NaN,0.0,12.864,,4 / 24,,2169,2022-01-20 11:40:11:132
-1.2652,-0.24257,11.98774,-0.784,2.64781,9.40983,-0.09217,0.08529,-1.59627,-0.07736,0.35179,0.13742,-3.225,-26.1,-18.075,167.519,-15.664,4.763,48.84388,2.3533132,102.823,NaN,0.0,12.864,,4 / 24,,2174,2022-01-20 11:40:11:137
-1.2652,-0.24257,11.98774,-0.784,2.64781,9.40983,-0.09217,0.08529,-1.59627,-0.07736,0.35179,0.13742,-3.225,-26.1,-18.075,167.519,-15.664,4.763,48.84388,2.3533132,102.823,NaN,0.0,12.864,,4 / 24,,2178,2022-01-20 11:40:11:141
-1.2652,-0.24257,11.98774,-0.784,2.64781,9.40983,-0.09217,0.08529,-1.59627,-0.07736,0.35179,0.13742,-3.225,-26.1,-18.075,167.519,-15.664,4.763,48.84388,2.3533132,102.823,NaN,0.0,12.864,,4 / 24,,2186,2022-01-20 11:40:11:149
-1.2652,-0.24257,11.98774,-0.98333,2.65732,9.3884,-2.06536,-2.51492,0.79634,-0.07736,0.35179,0.13742,-3.225,-26.1,-18.075,167.519,-15.664,4.763,48.84388,2.3533132,102.823,NaN,0.0,12.864,,4 / 24,,2189,2022-01-20 11:40:11:152
-1.2652,-0.24257,11.98774,-0.98333,2.65732,9.3884,-2.06536,-2.51492,0.79634,-0.07736,0.35179,0.13742,-3.225,-26.1,-18.075,167.519,-15.664,4.763,48.84388,2.3533132,102.823,NaN,0.0,12.864,,4 / 24,,2193,2022-01-20 11:40:11:156
-1.2652,-0.24257,11.98774,-0.98333,2.65732,9.3884,-2.06536,-2.51492,0.79634,-0.07736,0.35179,0.13742,-3.225,-26.1,-18.075,167.519,-15.664,4.763,48.84388,2.3533132,102.823,NaN,0.0,12.864,,4 / 24,,2199,2022-01-20 11:40:11:162
-1.2652,-0.24257,11.98774,-0.98333,2.65732,9.3884,-2.06536,-2.51492,0.79634,-0.07736,0.35179,0.13742,-3.225,-26.1,-18.075,167.519,-15.664,4.763,48.84388,2.3533132,102.823,NaN,0.0,12.864,,4 / 24,,2204,2022-01-20 11:40:11:167
-1.2652,-0.24257,11.98774,-0.98333,2.65732,9.3884,-2.06536,-2.51492,0.79634,-0.07736,0.35179,0.13742,-3.225,-26.1,-18.075,167.519,-15.664,4.763,48.84388,2.3533132,102.823,NaN,0.0,12.864,,4 / 24,,2209,2022-01-20 11:40:11:172
-1.2652,-0.24257,11.98774,-0.98333,2.65732,9.3884,-2.06536,-2.51492,0.79634,-0.07736,0.35179,0.13742,-3.225,-26.1,-18.075,167.519,-15.664,4.763,48.84388,2.3533132,102.823,NaN,0.0,12.864,,4 / 24,,2214,2022-01-20 11:40:11:177
-1.2652,-0.24257,11.98774,-0.98333,2.65732,9.3884,-2.06536,-2.51492,0.79634,-0.07736,0.35179,0.13742,-3.225,-26.1,-18.075,167.519,-15.664,4.763,48.84388,2.3533132,102.823,NaN,0.0,12.864,,4 / 24,,2219,2022-01-20 11:40:11:182
-1.2652,-0.24257,11.98774,-0.98333,2.65732,9.3884,-2.06536,-2.51492,0.79634,-0.07736,0.35179,0.13742,-3.225,-26.1,-18.075,167.519,-15.664,4.763,48.84388,2.3533132,102.823,NaN,0.0,12.864,,4 / 24,,2224,2022-01-20 11:40:11:187
-1.2652,-0.24257,11.98774,-0.98333,2.65732,9.3884,-2.06536,-2.51492,0.79634,-0.07736,0.35179,0.13742,-3.225,-26.1,-18.075,167.519,-15.664,4.763,48.84388,2.3533132,102.823,NaN,0.0,12.864,,4 / 24,,2229,2022-01-20 11:40:11:192
-1.2652,-0.24257,11.98774,-0.98333,2.65732,9.3884,-2.06536,-2.51492,0.79634,-0.07736,0.35179,0.13742,-3.225,-26.1,-18.075,167.519,-15.664,4.763,48.84388,2.3533132,102.823,NaN,0.0,12.864,,4 / 24,,2234,2022-01-20 11:40:11:197
1.04058,3.96162,7.52274,-0.98333,2.65732,9.3884,-2.06536,-2.51492,0.79634,-0.07736,0.35179,0.13742,-3.225,-26.1,-18.075,167.519,-15.664,4.763,48.84388,2.3533132,102.823,NaN,0.0,12.864,,4 / 24,,2239,2022-01-20 11:40:11:202
1.04058,3.96162,7.52274,-0.98333,2.65732,9.3884,-2.06536,-2.51492,0.79634,-0.07736,0.35179,0.13742,-3.225,-26.1,-18.075,167.519,-15.664,4.763,48.84388,2.3533132,102.823,NaN,0.0,12.864,,4 / 24,,2244,2022-01-20 11:40:11:207
1.04058,3.96162,7.52274,-0.98333,2.65732,9.3884,-2.06536,-2.51492,0.79634,-0.07736,0.35179,0.13742,-3.225,-26.1,-18.075,167.519,-15.664,4.763,48.84388,2.3533132,102.823,NaN,0.0,12.864,,4 / 24,,2249,2022-01-20 11:40:11:212
1.04058,3.96162,7.52274,-0.98333,2.65732,9.3884,-2.06536,-2.51492,0.79634,-0.07736,0.35179,0.13742,-3.15,-25.425,-18.75,165.382,-15.722,5.979,48.84388,2.3533132,102.823,NaN,0.0,12.864,,4 / 24,,2254,2022-01-20 11:40:11:217
1.04058,3.96162,7.52274,-0.98333,2.65732,9.3884,-2.06536,-2.51492,0.79634,-0.07736,0.35179,0.13742,-3.15,-25.425,-18.75,165.382,-15.722,5.979,48.84388,2.3533132,102.823,NaN,0.0,12.864,,4 / 24,,2258,2022-01-20 11:40:11:221
1.04058,3.96162,7.52274,-0.98333,2.65732,9.3884,-2.06536,-2.51492,0.79634,-0.07736,0.35179,0.13742,-3.15,-25.425,-18.75,165.382,-15.722,5.979,48.84388,2.3533132,102.823,NaN,0.0,12.864,,4 / 24,,2263,2022-01-20 11:40:11:226
1.04058,3.96162,7.52274,-0.98333,2.65732,9.3884,-2.06536,-2.51492,0.79634,-0.07736,0.35179,0.13742,-3.15,-25.425,-18.75,165.382,-15.722,5.979,48.84388,2.3533132,102.823,NaN,0.0,12.864,,4 / 24,,2270,2022-01-20 11:40:11:233
1.04058,3.96162,7.52274,-0.98333,2.65732,9.3884,-2.06536,-2.51492,0.79634,-0.07736,0.35179,0.13742,-3.15,-25.425,-18.75,165.382,-15.722,5.979,48.84388,2.3533132,102.823,NaN,0.0,12.864,,4 / 24,,2274,2022-01-20 11:40:11:237
1.04058,3.96162,7.52274,-0.98333,2.65732,9.3884,-2.06536,-2.51492,0.79634,-0.07736,0.35179,0.13742,-3.15,-25.425,-18.75,165.382,-15.722,5.979,48.84388,2.3533132,102.823,NaN,0.0,12.864,,5 / 24,,2285,2022-01-20 11:40:11:248
1.04058,3.96162,7.52274,-0.98333,2.65732,9.3884,-2.06536,-2.51492,0.79634,-0.07736,0.35179,0.13742,-3.15,-25.425,-18.75,165.382,-15.722,5.979,48.84388,2.3533132,102.823,NaN,0.0,12.864,,5 / 24,,2286,2022-01-20 11:40:11:249
1.04058,3.96162,7.52274,-0.98333,2.65732,9.3884,-2.06536,-2.51492,0.79634,-0.07736,0.35179,0.13742,-3.15,-25.425,-18.75,165.382,-15.722,5.979,48.84388,2.3533132,102.823,NaN,0.0,12.864,,5 / 24,,2290,2022-01-20 11:40:11:253
1.04058,3.96162,7.52274,-0.98333,2.65732,9.3884,-2.06536,-2.51492,0.79634,-0.07736,0.35179,0.13742,-3.15,-25.425,-18.75,165.382,-15.722,5.979,48.84388,2.3533132,102.823,NaN,0.0,12.864,,5 / 24,,2294,2022-01-20 11:40:11:257
1.04058,3.96162,7.52274,-0.98333,2.65732,9.3884,-2.06536,-2.51492,0.79634,-0.07736,0.35179,0.13742,-3.15,-25.425,-18.75,165.382,-15.722,5.979,48.84388,2.3533132,102.823,NaN,0.0,12.864,,5 / 24,,2300,2022-01-20 11:40:11:263
-1.47488,4.72941,10.98036,-0.50289,2.78081,9.39066,-0.51336,-0.12339,-0.38845,0.02889,-0.50985,-0.00373,-3.15,-25.425,-18.75,165.382,-15.722,5.979,48.84388,2.3533132,102.823,NaN,0.0,12.864,,5 / 24,,2303,2022-01-20 11:40:11:266
-1.47488,4.72941,10.98036,-0.50289,2.78081,9.39066,-0.51336,-0.12339,-0.38845,0.02889,-0.50985,-0.00373,-3.15,-25.425,-18.75,165.382,-15.722,5.979,48.84388,2.3533132,102.823,NaN,0.0,12.864,,5 / 24,,2309,2022-01-20 11:40:11:272
-1.47488,4.72941,10.98036,-0.50289,2.78081,9.39066,-0.51336,-0.12339,-0.38845,0.02889,-0.50985,-0.00373,-3.15,-25.425,-18.75,165.382,-15.722,5.979,48.84388,2.3533132,102.823,NaN,0.0,12.864,,5 / 24,,2314,2022-01-20 11:40:11:277
-1.47488,4.72941,10.98036,-0.50289,2.78081,9.39066,-0.51336,-0.12339,-0.38845,0.02889,-0.50985,-0.00373,-3.15,-25.425,-18.75,165.382,-15.722,5.979,48.84388,2.3533132,102.823,NaN,0.0,12.864,,5 / 24,,2319,2022-01-20 11:40:11:282
-1.47488,4.72941,10.98036,-0.50289,2.78081,9.39066,-0.51336,-0.12339,-0.38845,0.02889,-0.50985,-0.00373,-3.15,-25.425,-18.75,165.382,-15.722,5.979,48.84388,2.3533132,102.823,NaN,0.0,12.864,,5 / 24,,2324,2022-01-20 11:40:11:287
-1.47488,4.72941,10.98036,-0.50289,2.78081,9.39066,-0.51336,-0.12339,-0.38845,0.02889,-0.50985,-0.00373,-3.15,-25.425,-18.75,165.382,-15.722,5.979,48.84388,2.3533132,102.823,NaN,0.0,12.864,,5 / 24,,2329,2022-01-20 11:40:11:292
-1.47488,4.72941,10.98036,-0.50289,2.78081,9.39066,-0.51336,-0.12339,-0.38845,0.02889,-0.50985,-0.00373,-3.15,-25.425,-18.75,165.382,-15.722,5.979,48.84388,2.3533132,102.823,NaN,0.0,12.864,,5 / 24,,2334,2022-01-20 11:40:11:297
-1.47488,4.72941,10.98036,-0.50289,2.78081,9.39066,-0.51336,-0.12339,-0.38845,0.02889,-0.50985,-0.00373,-3.15,-25.425,-18.75,165.382,-15.722,5.979,48.84388,2.3533132,102.823,NaN,0.0,12.864,,5 / 24,,2339,2022-01-20 11:40:11:302
-1.47488,4.72941,10.98036,-0.50289,2.78081,9.39066,-0.51336,-0.12339,-0.38845,0.02889,-0.50985,-0.00373,-3.15,-25.425,-18.75,165.382,-15.722,5.979,48.84388,2.3533132,102.823,NaN,0.0,12.864,,5 / 24,,2344,2022-01-20 11:40:11:307
-1.47488,4.72941,10.98036,-0.50289,2.78081,9.39066,-0.51336,-0.12339,-0.38845,0.02889,-0.50985,-0.00373,-3.15,-25.425,-18.75,165.382,-15.722,5.979,48.84388,2.3533132,102.823,NaN,0.0,12.864,,5 / 24,,2349,2022-01-20 11:40:11:312
-1.47488,4.72941,10.98036,-0.50289,2.78081,9.39066,-0.51336,-0.12339,-0.38845,0.02889,-0.50985,-0.00373,-3.15,-25.2,-18.9,167.854,-16.473,3.065,48.84388,2.3533132,102.823,NaN,0.0,12.864,,5 / 24,,2354,2022-01-20 11:40:11:317
-1.47488,4.72941,10.98036,-0.50289,2.78081,9.39066,-0.51336,-0.12339,-0.38845,0.02889,-0.50985,-0.00373,-3.15,-25.2,-18.9,167.854,-16.473,3.065,48.84388,2.3533132,102.823,NaN,0.0,12.864,,5 / 24,,2359,2022-01-20 11:40:11:322
-1.47488,4.72941,10.98036,-0.50289,2.78081,9.39066,-0.51336,-0.12339,-0.38845,0.02889,-0.50985,-0.00373,-3.15,-25.2,-18.9,167.854,-16.473,3.065,48.84388,2.3533132,102.823,NaN,0.0,12.864,,5 / 24,,2364,2022-01-20 11:40:11:327
-1.04596,1.52901,7.79103,-0.17108,2.80974,9.39396,-0.51336,0.80533,-0.17816,0.02889,-0.50985,-0.00373,-3.15,-25.2,-18.9,167.854,-16.473,3.065,48.84388,2.3533132,102.823,NaN,0.0,12.864,,5 / 24,,2369,2022-01-20 11:40:11:332
-1.04596,1.52901,7.79103,-0.17108,2.80974,9.39396,-0.97999,0.80533,-0.17816,0.02889,-0.50985,-0.00373,-3.15,-25.2,-18.9,167.854,-16.473,3.065,48.84388,2.3533132,102.823,NaN,0.0,12.864,,5 / 24,,2374,2022-01-20 11:40:11:337
-1.04596,1.52901,7.79103,-0.17108,2.80974,9.39396,-0.97999,0.80533,-0.17816,0.02889,-0.50985,-0.00373,-3.15,-25.2,-18.9,167.854,-16.473,3.065,48.84388,2.3533132,102.823,NaN,0.0,12.864,,5 / 24,,2379,2022-01-20 11:40:11:342
-1.04596,1.52901,7.79103,-0.17108,2.80974,9.39396,-0.97999,0.80533,-0.17816,0.02889,-0.50985,-0.00373,-3.15,-25.2,-18.9,167.854,-16.473,3.065,48.84388,2.3533132,102.823,NaN,0.0,12.864,,5 / 24,,2384,2022-01-20 11:40:11:347
-1.04596,1.52901,7.79103,-0.17108,2.80974,9.39396,-0.97999,0.80533,-0.17816,0.02889,-0.50985,-0.00373,-3.15,-25.2,-18.9,167.854,-16.473,3.065,48.84388,2.3533132,102.823,NaN,0.0,12.864,,5 / 24,,2389,2022-01-20 11:40:11:352
-1.04596,1.52901,7.79103,-0.17108,2.80974,9.39396,-0.97999,0.80533,-0.17816,0.02889,-0.50985,-0.00373,-3.15,-25.2,-18.9,167.854,-16.473,3.065,48.84388,2.3533132,102.823,NaN,0.0,12.864,,5 / 24,,2393,2022-01-20 11:40:11:356
-1.04596,1.52901,7.79103,-0.17108,2.80974,9.39396,-0.97999,0.80533,-0.17816,0.02889,-0.50985,-0.00373,-3.15,-25.2,-18.9,167.854,-16.473,3.065,48.84388,2.3533132,102.823,NaN,0.0,12.864,,5 / 24,,2399,2022-01-20 11:40:11:362
-1.04596,1.52901,7.79103,-0.17108,2.80974,9.39396,-0.97999,0.80533,-0.17816,0.02889,-0.50985,-0.00373,-3.15,-25.2,-18.9,167.854,-16.473,3.065,48.84388,2.3533132,102.823,NaN,0.0,12.864,,5 / 24,,2404,2022-01-20 11:40:11:367
-1.04596,1.52901,7.79103,-0.17108,2.80974,9.39396,-0.97999,0.80533,-0.17816,0.02889,-0.50985,-0.00373,-3.15,-25.2,-18.9,167.854,-16.473,3.065,48.84388,2.3533132,102.823,NaN,0.0,12.864,,5 / 24,,2409,2022-01-20 11:40:11:372
-1.04596,1.52901,7.79103,-0.17108,2.80974,9.39396,-0.97999,0.80533,-0.17816,0.02889,-0.50985,-0.00373,-3.15,-25.2,-18.9,167.854,-16.473,3.065,48.84388,2.3533132,102.823,NaN,0.0,12.864,,5 / 24,,2414,2022-01-20 11:40:11:377
-1.04596,1.52901,7.79103,-0.17108,2.80974,9.39396,-0.97999,0.80533,-0.17816,0.02889,-0.50985,-0.00373,-3.15,-25.2,-18.9,167.854,-16.473,3.065,48.84388,2.3533132,102.823,NaN,0.0,12.864,,5 / 24,,2419,2022-01-20 11:40:11:382
-1.04596,1.52901,7.79103,-0.17108,2.80974,9.39396,-0.97999,0.80533,-0.17816,0.02889,-0.50985,-0.00373,-3.15,-25.2,-18.9,167.854,-16.473,3.065,48.84388,2.3533132,102.823,NaN,0.0,12.864,,5 / 24,,2424,2022-01-20 11:40:11:387
-1.04596,1.52901,7.79103,-0.17108,2.80974,9.39396,-0.97999,0.80533,-0.17816,0.02889,-0.50985,-0.00373,-3.15,-25.2,-18.9,167.854,-16.473,3.065,48.84388,2.3533132,102.823,NaN,0.0,12.864,,5 / 24,,2429,2022-01-20 11:40:11:392
-1.04596,1.52901,7.79103,-0.17108,2.80974,9.39396,-0.97999,0.80533,-0.17816,0.02889,-0.50985,-0.00373,-3.15,-25.2,-18.9,167.854,-16.473,3.065,48.84388,2.3533132,102.823,NaN,0.0,12.864,,5 / 24,,2434,2022-01-20 11:40:11:397
-1.04596,1.52901,7.79103,-0.17108,2.80974,9.39396,-0.97999,0.80533,-0.17816,0.02889,-0.50985,-0.00373,-3.15,-25.2,-18.9,167.854,-16.473,3.065,48.84388,2.3533132,102.823,NaN,0.0,12.864,,5 / 24,,2439,2022-01-20 11:40:11:402
0.29671,2.22622,7.34297,0.12705,2.66402,9.43701,-0.29127,0.23967,-0.50501,-0.26458,-0.35832,0.28934,-3.15,-25.2,-18.9,167.854,-16.473,3.065,48.84388,2.3533132,102.823,NaN,0.0,12.864,,5 / 24,,2443,2022-01-20 11:40:11:406
0.29671,2.22622,7.34297,0.12705,2.66402,9.43701,-0.29127,0.23967,-0.50501,-0.26458,-0.35832,0.28934,-3.15,-25.2,-18.9,167.854,-16.473,3.065,48.84388,2.3533132,102.823,NaN,0.0,12.864,,5 / 24,,2450,2022-01-20 11:40:11:413
0.29671,2.22622,7.34297,0.12705,2.66402,9.43701,-0.29127,0.23967,-0.50501,-0.26458,-0.35832,0.28934,-3.675,-25.05,-18.9,168.786,-15.763,-0.771,48.84388,2.3533132,102.823,NaN,0.0,12.864,,5 / 24,,2454,2022-01-20 11:40:11:417
0.29671,2.22622,7.34297,0.12705,2.66402,9.43701,-0.29127,0.23967,-0.50501,-0.26458,-0.35832,0.28934,-3.675,-25.05,-18.9,168.786,-15.763,-0.771,48.84388,2.3533132,102.823,NaN,0.0,12.864,,5 / 24,,2458,2022-01-20 11:40:11:421
0.29671,2.22622,7.34297,0.12705,2.66402,9.43701,-0.29127,0.23967,-0.50501,-0.26458,-0.35832,0.28934,-3.675,-25.05,-18.9,168.786,-15.763,-0.771,48.84388,2.3533132,102.823,NaN,0.0,12.864,,5 / 24,,2464,2022-01-20 11:40:11:427
0.29671,2.22622,7.34297,0.12705,2.66402,9.43701,-0.29127,0.23967,-0.50501,-0.26458,-0.35832,0.28934,-3.675,-25.05,-18.9,168.786,-15.763,-0.771,48.84388,2.3533132,102.823,NaN,0.0,12.864,,5 / 24,,2468,2022-01-20 11:40:11:431
0.29671,2.22622,7.34297,0.12705,2.66402,9.43701,-0.29127,0.23967,-0.50501,-0.26458,-0.35832,0.28934,-3.675,-25.05,-18.9,168.786,-15.763,-0.771,48.84388,2.3533132,102.823,NaN,0.0,12.864,,5 / 24,,2474,2022-01-20 11:40:11:437
0.29671,2.22622,7.34297,0.12705,2.66402,9.43701,-0.29127,0.23967,-0.50501,-0.26458,-0.35832,0.28934,-3.675,-25.05,-18.9,168.786,-15.763,-0.771,48.84388,2.3533132,102.823,NaN,0.0,12.864,,5 / 24,,2479,2022-01-20 11:40:11:442
0.29671,2.22622,7.34297,0.12705,2.66402,9.43701,-0.29127,0.23967,-0.50501,-0.26458,-0.35832,0.28934,-3.675,-25.05,-18.9,168.786,-15.763,-0.771,48.84388,2.3533132,102.823,NaN,0.0,12.864,,5 / 24,,2484,2022-01-20 11:40:11:447
0.29671,2.22622,7.34297,0.12705,2.66402,9.43701,-0.29127,0.23967,-0.50501,-0.26458,-0.35832,0.28934,-3.675,-25.05,-18.9,168.786,-15.763,-0.771,48.84388,2.3533132,102.823,NaN,0.0,12.864,,5 / 24,,2489,2022-01-20 11:40:11:452
0.29671,2.22622,7.34297,0.12705,2.66402,9.43701,-0.29127,0.23967,-0.50501,-0.26458,-0.35832,0.28934,-3.675,-25.05,-18.9,168.786,-15.763,-0.771,48.84388,2.3533132,102.823,NaN,0.0,12.864,,5 / 24,,2494,2022-01-20 11:40:11:457
0.29671,2.22622,7.34297,0.12705,2.66402,9.43701,-0.29127,0.23967,-0.50501,-0.26458,-0.35832,0.28934,-3.675,-25.05,-18.9,168.786,-15.763,-0.771,48.84388,2.3533132,102.823,NaN,0.0,12.864,,5 / 24,,2498,2022-01-20 11:40:11:461
0.29671,2.22622,7.34297,0.12705,2.66402,9.43701,-0.29127,0.23967,-0.50501,-0.26458,-0.35832,0.28934,-3.675,-25.05,-18.9,168.786,-15.763,-0.771,48.84388,2.3533132,102.823,NaN,0.0,12.864,,5 / 24,,2504,2022-01-20 11:40:11:467
-0.43639,2.18644,8.89053,0.12705,2.66402,9.43701,-0.29127,0.23967,-0.50501,-0.26458,-0.35832,0.28934,-3.675,-25.05,-18.9,168.786,-15.763,-0.771,48.84388,2.3533132,102.823,NaN,0.0,12.864,,5 / 24,,2510,2022-01-20 11:40:11:473
-0.43639,2.18644,8.89053,0.12705,2.66402,9.43701,-0.29127,0.23967,-0.50501,-0.26458,-0.35832,0.28934,-3.675,-25.05,-18.9,168.786,-15.763,-0.771,48.84388,2.3533132,102.823,NaN,0.0,12.864,,5 / 24,,2514,2022-01-20 11:40:11:477
-0.43639,2.18644,8.89053,0.12705,2.66402,9.43701,-0.29127,0.23967,-0.50501,-0.26458,-0.35832,0.28934,-3.675,-25.05,-18.9,168.786,-15.763,-0.771,48.84388,2.3533132,102.823,NaN,0.0,12.864,,5 / 24,,2522,2022-01-20 11:40:11:485
-0.43639,2.18644,8.89053,0.12705,2.66402,9.43701,-0.29127,0.23967,-0.50501,-0.26458,-0.35832,0.28934,-3.675,-25.05,-18.9,168.786,-15.763,-0.771,48.84388,2.3533132,102.823,NaN,0.0,12.864,,5 / 24,,2524,2022-01-20 11:40:11:487
-0.43639,2.18644,8.89053,0.12705,2.66402,9.43701,-0.29127,0.23967,-0.50501,-0.26458,-0.35832,0.28934,-3.675,-25.05,-18.9,168.786,-15.763,-0.771,48.84388,2.3533132,102.823,NaN,0.0,12.864,,5 / 24,,2529,2022-01-20 11:40:11:492
-0.43639,2.18644,8.89053,0.12705,2.66402,9.43701,-0.29127,0.23967,-0.50501,-0.26458,-0.35832,0.28934,-3.675,-25.05,-18.9,168.786,-15.763,-0.771,48.84388,2.3533132,102.823,NaN,0.0,12.864,,5 / 24,,2534,2022-01-20 11:40:11:497
-0.43639,2.18644,8.89053,0.12705,2.66402,9.43701,-0.29127,0.23967,-0.50501,-0.26458,-0.35832,0.28934,-3.675,-25.05,-18.9,168.786,-15.763,-0.771,48.84388,2.3533132,102.823,NaN,0.0,12.864,,5 / 24,,2539,2022-01-20 11:40:11:502
-0.43639,2.18644,8.89053,0.06929,2.68362,9.43206,-0.29127,0.23967,-0.50501,-0.26458,-0.35832,0.28934,-3.675,-25.05,-18.9,168.786,-15.763,-0.771,48.84388,2.3533132,102.823,NaN,0.0,12.864,,5 / 24,,2544,2022-01-20 11:40:11:507
-0.43639,2.18644,8.89053,0.06929,2.68362,9.43206,-0.21234,-0.79065,0.2406,-0.26458,-0.35832,0.28934,-3.9,-24.975,-19.05,168.419,-15.882,-0.421,48.84388,2.3533132,102.823,NaN,0.0,12.864,,5 / 24,,2549,2022-01-20 11:40:11:512
-0.43639,2.18644,8.89053,0.06929,2.68362,9.43206,-0.21234,-0.79065,0.2406,-0.26458,-0.35832,0.28934,-3.9,-24.975,-19.05,168.419,-15.882,-0.421,48.84388,2.3533132,102.823,NaN,0.0,12.864,,5 / 24,,2554,2022-01-20 11:40:11:517
-0.43639,2.18644,8.89053,0.06929,2.68362,9.43206,-0.21234,-0.79065,0.2406,-0.26458,-0.35832,0.28934,-3.9,-24.975,-19.05,168.419,-15.882,-0.421,48.84388,2.3533132,102.823,NaN,0.0,12.864,,5 / 24,,2559,2022-01-20 11:40:11:522
-0.43639,2.18644,8.89053,0.06929,2.68362,9.43206,-0.21234,-0.79065,0.2406,-0.26458,-0.35832,0.28934,-3.9,-24.975,-19.05,168.419,-15.882,-0.421,48.84388,2.3533132,102.823,NaN,0.0,12.864,,5 / 24,,2564,2022-01-20 11:40:11:527
-0.43639,2.18644,8.89053,0.06929,2.68362,9.43206,-0.21234,-0.79065,0.2406,-0.26458,-0.35832,0.28934,-3.9,-24.975,-19.05,168.419,-15.882,-0.421,48.84388,2.3533132,102.823,NaN,0.0,12.864,,5 / 24,,2569,2022-01-20 11:40:11:532
-2.22802,2.7338,9.31795,0.06929,2.68362,9.43206,-0.21234,-0.79065,0.2406,0.09094,0.01132,0.06418,-3.9,-24.975,-19.05,168.419,-15.882,-0.421,48.84388,2.3533132,102.823,NaN,0.0,12.864,,5 / 24,,2574,2022-01-20 11:40:11:537
-2.22802,2.7338,9.31795,0.06929,2.68362,9.43206,-0.21234,-0.79065,0.2406,0.09094,0.01132,0.06418,-3.9,-24.975,-19.05,168.419,-15.882,-0.421,48.84388,2.3533132,102.823,NaN,0.0,12.864,,5 / 24,,2579,2022-01-20 11:40:11:542
-2.22802,2.7338,9.31795,0.06929,2.68362,9.43206,-0.21234,-0.79065,0.2406,0.09094,0.01132,0.06418,-3.9,-24.975,-19.05,168.419,-15.882,-0.421,48.84388,2.3533132,102.823,NaN,0.0,12.864,,5 / 24,,2584,2022-01-20 11:40:11:547
-2.22802,2.7338,9.31795,0.06929,2.68362,9.43206,-0.21234,-0.79065,0.2406,0.09094,0.01132,0.06418,-3.9,-24.975,-19.05,168.419,-15.882,-0.421,48.84388,2.3533132,102.823,NaN,0.0,12.864,,5 / 24,,2589,2022-01-20 11:40:11:552
-2.22802,2.7338,9.31795,0.06929,2.68362,9.43206,-0.21234,-0.79065,0.2406,0.09094,0.01132,0.06418,-3.9,-24.975,-19.05,168.419,-15.882,-0.421,48.84388,2.3533132,102.823,NaN,0.0,12.864,,5 / 24,,2594,2022-01-20 11:40:11:557
-2.22802,2.7338,9.31795,0.06929,2.68362,9.43206,-0.21234,-0.79065,0.2406,0.09094,0.01132,0.06418,-3.9,-24.975,-19.05,168.419,-15.882,-0.421,48.84388,2.3533132,102.823,NaN,0.0,12.864,,5 / 24,,2598,2022-01-20 11:40:11:561
-2.22802,2.7338,9.31795,0.06929,2.68362,9.43206,-0.21234,-0.79065,0.2406,0.09094,0.01132,0.06418,-3.9,-24.975,-19.05,168.419,-15.882,-0.421,48.84388,2.3533132,102.823,NaN,0.0,12.864,,5 / 24,,2604,2022-01-20 11:40:11:567
-2.22802,2.7338,9.31795,0.06929,2.68362,9.43206,-0.21234,-0.79065,0.2406,0.09094,0.01132,0.06418,-3.9,-24.975,-19.05,168.419,-15.882,-0.421,48.84388,2.3533132,102.823,NaN,0.0,12.864,,5 / 24,,2609,2022-01-20 11:40:11:572
-2.22802,2.7338,9.31795,0.06929,2.68362,9.43206,-0.21234,-0.79065,0.2406,0.09094,0.01132,0.06418,-3.9,-24.975,-19.05,168.419,-15.882,-0.421,48.84388,2.3533132,102.823,NaN,0.0,12.864,,5 / 24,,2614,2022-01-20 11:40:11:577
-2.22802,2.7338,9.31795,0.21051,2.70958,9.42254,-0.21234,-0.79065,0.2406,0.09094,0.01132,0.06418,-3.9,-24.975,-19.05,168.419,-15.882,-0.421,48.84388,2.3533132,102.823,NaN,0.0,12.864,,5 / 24,,2619,2022-01-20 11:40:11:582
-2.22802,2.7338,9.31795,0.21051,2.70958,9.42254,-0.17873,-0.44518,0.60082,0.09094,0.01132,0.06418,-3.9,-24.975,-19.05,168.419,-15.882,-0.421,48.84388,2.3533132,102.823,NaN,0.0,12.864,,5 / 24,,2624,2022-01-20 11:40:11:587
-2.22802,2.7338,9.31795,0.21051,2.70958,9.42254,-0.17873,-0.44518,0.60082,0.09094,0.01132,0.06418,-3.9,-24.975,-19.05,168.419,-15.882,-0.421,48.84388,2.3533132,102.823,NaN,0.0,12.864,,5 / 24,,2629,2022-01-20 11:40:11:592
-2.22802,2.7338,9.31795,0.21051,2.70958,9.42254,-0.17873,-0.44518,0.60082,0.09094,0.01132,0.06418,-3.9,-24.975,-19.05,168.419,-15.882,-0.421,48.84388,2.3533132,102.823,NaN,0.0,12.864,,5 / 24,,2634,2022-01-20 11:40:11:597
-2.22802,2.7338,9.31795,0.21051,2.70958,9.42254,-0.17873,-0.44518,0.60082,0.09094,0.01132,0.06418,-3.9,-24.975,-19.05,168.419,-15.882,-0.421,48.84388,2.3533132,102.823,NaN,0.0,12.864,,5 / 24,,2639,2022-01-20 11:40:11:602
0.13609,1.40668,9.54676,0.21051,2.70958,9.42254,-0.17873,-0.44518,0.60082,0.09094,0.01132,0.06418,-3.9,-24.975,-19.05,168.419,-15.882,-0.421,48.84388,2.3533132,102.823,NaN,0.0,12.864,,5 / 24,,2644,2022-01-20 11:40:11:607
0.13609,1.40668,9.54676,0.21051,2.70958,9.42254,-0.17873,-0.44518,0.60082,0.09094,0.01132,0.06418,-4.5,-24.675,-18.9,169.208,-16.04,-1.28,48.84388,2.3533132,102.823,NaN,0.0,12.864,,5 / 24,,2649,2022-01-20 11:40:11:612
0.13609,1.40668,9.54676,0.21051,2.70958,9.42254,-0.17873,-0.44518,0.60082,0.09094,0.01132,0.06418,-4.5,-24.675,-18.9,169.208,-16.04,-1.28,48.84388,2.3533132,102.823,NaN,0.0,12.864,,5 / 24,,2654,2022-01-20 11:40:11:617
0.13609,1.40668,9.54676,0.21051,2.70958,9.42254,-0.17873,-0.44518,0.60082,0.09094,0.01132,0.06418,-4.5,-24.675,-18.9,169.208,-16.04,-1.28,48.84388,2.3533132,102.823,NaN,0.0,12.864,,5 / 24,,2659,2022-01-20 11:40:11:622
0.13609,1.40668,9.54676,0.21051,2.70958,9.42254,-0.17873,-0.44518,0.60082,0.09094,0.01132,0.06418,-4.5,-24.675,-18.9,169.208,-16.04,-1.28,48.84388,2.3533132,102.823,NaN,0.0,12.864,,5 / 24,,2665,2022-01-20 11:40:11:628
0.13609,1.40668,9.54676,0.21051,2.70958,9.42254,-0.17873,-0.44518,0.60082,0.09094,0.01132,0.06418,-4.5,-24.675,-18.9,169.208,-16.04,-1.28,48.84388,2.3533132,102.823,NaN,0.0,12.864,,5 / 24,,2669,2022-01-20 11:40:11:632
0.13609,1.40668,9.54676,0.21051,2.70958,9.42254,-0.17873,-0.44518,0.60082,0.09094,0.01132,0.06418,-4.5,-24.675,-18.9,169.208,-16.04,-1.28,48.84388,2.3533132,102.823,NaN,0.0,12.864,,5 / 24,,2674,2022-01-20 11:40:11:637
0.13609,1.40668,9.54676,0.21051,2.70958,9.42254,-0.17873,-0.44518,0.60082,0.09094,0.01132,0.06418,-4.5,-24.675,-18.9,169.208,-16.04,-1.28,48.84388,2.3533132,102.823,NaN,0.0,12.864,,5 / 24,,2679,2022-01-20 11:40:11:642
0.13609,1.40668,9.54676,0.21051,2.70958,9.42254,-0.17873,-0.44518,0.60082,0.09094,0.01132,0.06418,-4.5,-24.675,-18.9,169.208,-16.04,-1.28,48.84388,2.3533132,102.823,NaN,0.0,12.864,,5 / 24,,2683,2022-01-20 11:40:11:646
0.13609,1.40668,9.54676,0.21051,2.70958,9.42254,-0.17873,-0.44518,0.60082,0.245,-0.40572,0.19787,-4.5,-24.675,-18.9,169.208,-16.04,-1.28,48.84388,2.3533132,102.823,NaN,0.0,12.864,,5 / 24,,2689,2022-01-20 11:40:11:652
