ACCELEROMETER X (m/s²),ACCELEROMETER Y (m/s²),ACCELEROMETER Z (m/s²),GRAVITY X (m/s²),GRAVITY Y (m/s²),GRAVITY Z (m/s²),LINEAR ACCELERATION X (m/s²),LINEAR ACCELERATION Y (m/s²),LINEAR ACCELERATION Z (m/s²),GYROSCOPE X (rad/s),GYROSCOPE Y (rad/s),GYROSCOPE Z (rad/s),MAGNETIC FIELD X (μT),MAGNETIC FIELD Y (μT),MAGNETIC FIELD Z (μT),ORIENTATION Z (azimuth °),ORIENTATION X (pitch °),ORIENTATION Y (roll °),LOCATION Latitude : ,LOCATION Longitude : ,LOCATION Altitude ( m),LOCATION Altitude-google ( m),LOCATION Speed ( Kmh),LOCATION Accuracy ( m),LOCATION ORIENTATION (°),Satellites in range,GPS NMEA,Time since start in ms ,YYYY-MO-DD HH-MI-SS_SSS
-0.4101,0.1732,9.7122,-0.3961,0.1922,9.7968,0.01,0.0062,-0.0054,9.0E-4,-9.0E-4,-5.0E-4,9.3,-16.05,-37.65,206.04,-1.12,2.32,48.84384,2.353374,91.6,NaN,,12.961,,0 / 21,,12,2022-01-12 10:17:31:996
-0.4101,0.1732,9.7122,-0.3961,0.1922,9.7968,0.01,0.0062,-0.0054,9.0E-4,-9.0E-4,-5.0E-4,9.3,-16.05,-37.65,206.04,-1.12,2.32,48.84384,2.353374,91.6,NaN,,12.961,,0 / 21,,18,2022-01-12 10:17:32:002
-0.4101,0.1732,9.7122,-0.3961,0.1922,9.7968,0.01,0.0062,-0.0054,9.0E-4,-9.0E-4,-5.0E-4,9.3,-16.05,-37.65,206.04,-1.12,2.32,48.84384,2.353374,91.6,NaN,,12.961,,0 / 21,,23,2022-01-12 10:17:32:007
-0.4101,0.1732,9.7122,-0.3961,0.1922,9.7968,0.01,0.0062,-0.0054,9.0E-4,-9.0E-4,-5.0E-4,9.3,-16.05,-37.65,206.04,-1.12,2.32,48.84384,2.353374,91.6,NaN,,12.961,,0 / 21,,28,2022-01-12 10:17:32:012
-0.4101,0.1732,9.7122,-0.3961,0.1922,9.7968,0.01,0.0062,-0.0054,9.0E-4,-9.0E-4,-5.0E-4,9.3,-16.05,-37.65,206.04,-1.12,2.32,48.84384,2.353374,91.6,NaN,,12.961,,0 / 21,,33,2022-01-12 10:17:32:017
-0.4101,0.1732,9.7122,-0.3961,0.1922,9.7968,0.01,0.0062,-0.0054,9.0E-4,-9.0E-4,-5.0E-4,9.3,-16.05,-37.65,206.04,-1.12,2.32,48.84384,2.353374,91.6,NaN,,12.961,,0 / 21,,38,2022-01-12 10:17:32:022
-0.4101,0.1732,9.7122,-0.3961,0.1922,9.7968,0.01,0.0062,-0.0054,9.0E-4,-9.0E-4,-5.0E-4,9.3,-16.05,-37.65,206.04,-1.12,2.32,48.84384,2.353374,91.6,NaN,,12.961,,0 / 21,,44,2022-01-12 10:17:32:028
-0.4101,0.1732,9.7122,-0.3961,0.1922,9.7968,0.01,0.0062,-0.0054,9.0E-4,-9.0E-4,-5.0E-4,9.3,-16.05,-37.65,206.04,-1.12,2.32,48.84384,2.353374,91.6,NaN,,12.961,,0 / 21,,48,2022-01-12 10:17:32:032
-0.3873,0.2043,9.7014,-0.3961,0.1922,9.7968,0.01,0.0062,-0.0054,9.0E-4,-9.0E-4,-5.0E-4,9.23,-16.05,-37.28,206.16,-1.12,2.32,48.84384,2.353374,91.6,NaN,,12.961,,0 / 21,,53,2022-01-12 10:17:32:037
-0.3873,0.2043,9.7014,-0.3961,0.1922,9.7968,0.01,0.0062,-0.0054,3.0E-4,-7.0E-4,1.0E-4,9.23,-16.05,-37.28,206.16,-1.12,2.32,48.84384,2.353374,91.6,NaN,,12.961,,0 / 21,,58,2022-01-12 10:17:32:042
-0.3873,0.2043,9.7014,-0.3961,0.1922,9.7968,0.01,0.0062,-0.0054,3.0E-4,-7.0E-4,1.0E-4,9.23,-16.05,-37.28,206.16,-1.12,2.32,48.84384,2.353374,91.6,NaN,,12.961,,0 / 21,,63,2022-01-12 10:17:32:047
-0.3873,0.2043,9.7014,-0.3961,0.1922,9.7968,0.01,0.0062,-0.0054,3.0E-4,-7.0E-4,1.0E-4,9.23,-16.05,-37.28,206.16,-1.12,2.32,48.84384,2.353374,91.6,NaN,,12.961,,0 / 21,,68,2022-01-12 10:17:32:052
-0.3873,0.2043,9.7014,-0.3961,0.1922,9.7968,0.01,0.0062,-0.0054,3.0E-4,-7.0E-4,1.0E-4,9.23,-16.05,-37.28,206.16,-1.12,2.32,48.84384,2.353374,91.6,NaN,,12.961,,0 / 21,,73,2022-01-12 10:17:32:057
-0.3873,0.2043,9.7014,-0.3971,0.1915,9.7967,-0.0053,-0.0075,0.0061,3.0E-4,-7.0E-4,1.0E-4,9.23,-16.05,-37.28,206.16,-1.12,2.32,48.84384,2.353374,91.6,NaN,,12.961,,0 / 21,,78,2022-01-12 10:17:32:062
-0.3873,0.2043,9.7014,-0.3971,0.1915,9.7967,-0.0053,-0.0075,0.0061,3.0E-4,-7.0E-4,1.0E-4,9.23,-16.05,-37.28,206.16,-1.12,2.32,48.84384,2.353374,91.6,NaN,,12.961,,0 / 21,,83,2022-01-12 10:17:32:067
-0.3873,0.2043,9.7014,-0.3971,0.1915,9.7967,-0.0053,-0.0075,0.0061,3.0E-4,-7.0E-4,1.0E-4,9.23,-16.05,-37.28,206.16,-1.12,2.32,48.84384,2.353374,91.6,NaN,,12.961,,0 / 21,,88,2022-01-12 10:17:32:072
-0.3873,0.2043,9.7014,-0.3971,0.1915,9.7967,-0.0053,-0.0075,0.0061,3.0E-4,-7.0E-4,1.0E-4,9.23,-16.05,-37.28,206.16,-1.12,2.32,48.84384,2.353374,91.6,NaN,,12.961,,0 / 21,,93,2022-01-12 10:17:32:077
-0.3873,0.2043,9.7014,-0.3971,0.1915,9.7967,-0.0053,-0.0075,0.0061,3.0E-4,-7.0E-4,1.0E-4,9.23,-16.05,-37.28,206.16,-1.12,2.32,48.84384,2.353374,91.6,NaN,,12.961,,0 / 21,,98,2022-01-12 10:17:32:082
-0.3873,0.2043,9.7014,-0.3971,0.1915,9.7967,-0.0053,-0.0075,0.0061,3.0E-4,-7.0E-4,1.0E-4,9.23,-16.05,-37.28,206.16,-1.12,2.32,48.84384,2.353374,91.6,NaN,,12.961,,0 / 21,,103,2022-01-12 10:17:32:087
-0.3873,0.2043,9.7014,-0.3971,0.1915,9.7967,-0.0053,-0.0075,0.0061,3.0E-4,-7.0E-4,1.0E-4,9.23,-16.05,-37.28,206.16,-1.12,2.32,48.84384,2.353374,91.6,NaN,,12.961,,0 / 21,,108,2022-01-12 10:17:32:092
-0.3873,0.2043,9.7014,-0.3971,0.1915,9.7967,-0.0053,-0.0075,0.0061,3.0E-4,-7.0E-4,1.0E-4,9.23,-16.05,-37.28,206.16,-1.12,2.32,48.84384,2.353374,91.6,NaN,,12.961,,0 / 21,,113,2022-01-12 10:17:32:097
-0.4041,0.1708,9.711,-0.3971,0.1915,9.7967,-0.0053,-0.0075,0.0061,3.0E-4,-7.0E-4,1.0E-4,9.23,-16.05,-37.28,206.16,-1.12,2.32,48.84384,2.353374,91.6,NaN,,12.961,,0 / 21,,119,2022-01-12 10:17:32:103
-0.4041,0.1708,9.711,-0.3971,0.1915,9.7967,-0.0053,-0.0075,0.0061,3.0E-4,-7.0E-4,1.0E-4,9.23,-16.05,-37.28,206.16,-1.12,2.32,48.84384,2.353374,91.6,NaN,,12.961,,0 / 21,,123,2022-01-12 10:17:32:107
-0.4041,0.1708,9.711,-0.3971,0.1915,9.7967,-0.0053,-0.0075,0.0061,-3.0E-4,-9.0E-4,0.0,9.23,-16.05,-37.28,206.16,-1.12,2.32,48.84384,2.353374,91.6,NaN,,12.961,,0 / 21,,128,2022-01-12 10:17:32:112
-0.4041,0.1708,9.711,-0.3971,0.1915,9.7967,-0.0053,-0.0075,0.0061,-3.0E-4,-9.0E-4,0.0,9.23,-16.05,-37.28,206.16,-1.12,2.32,48.84384,2.353374,91.6,NaN,,12.961,,0 / 21,,134,2022-01-12 10:17:32:118
-0.4041,0.1708,9.711,-0.3971,0.1915,9.7967,-0.0053,-0.0075,0.0061,-3.0E-4,-9.0E-4,0.0,9.23,-16.05,-37.28,206.16,-1.12,2.32,48.84384,2.353374,91.6,NaN,,12.961,,0 / 21,,137,2022-01-12 10:17:32:121
-0.4041,0.1708,9.711,-0.3971,0.1915,9.7967,-0.0053,-0.0075,0.0061,-3.0E-4,-9.0E-4,0.0,9.23,-16.05,-37.28,206.16,-1.12,2.32,48.84384,2.353374,91.6,NaN,,12.961,,0 / 21,,143,2022-01-12 10:17:32:127
-0.4041,0.1708,9.711,-0.3973,0.1922,9.7967,-0.0063,0.0062,-0.0031,-3.0E-4,-9.0E-4,0.0,9.23,-16.05,-37.28,206.16,-1.12,2.32,48.84384,2.353374,91.6,NaN,,12.961,,0 / 21,,147,2022-01-12 10:17:32:131
-0.4041,0.1708,9.711,-0.3973,0.1922,9.7967,-0.0063,0.0062,-0.0031,-3.0E-4,-9.0E-4,0.0,8.93,-16.2,-37.2,206.15,-1.12,2.32,48.84384,2.353374,91.6,NaN,,12.961,,0 / 21,,153,2022-01-12 10:17:32:137
-0.4041,0.1708,9.711,-0.3973,0.1922,9.7967,-0.0063,0.0062,-0.0031,-3.0E-4,-9.0E-4,0.0,8.93,-16.2,-37.2,206.15,-1.12,2.32,48.84384,2.353374,91.6,NaN,,12.961,,0 / 21,,158,2022-01-12 10:17:32:142
-0.4041,0.1708,9.711,-0.3973,0.1922,9.7967,-0.0063,0.0062,-0.0031,-3.0E-4,-9.0E-4,0.0,8.93,-16.2,-37.2,206.15,-1.12,2.32,48.84384,2.353374,91.6,NaN,,12.961,,0 / 21,,163,2022-01-12 10:17:32:147
-0.4041,0.1708,9.711,-0.3973,0.1922,9.7967,-0.0063,0.0062,-0.0031,-3.0E-4,-9.0E-4,0.0,8.93,-16.2,-37.2,206.15,-1.12,2.32,48.84384,2.353374,91.6,NaN,,12.961,,0 / 21,,168,2022-01-12 10:17:32:152
-0.4041,0.1708,9.711,-0.3973,0.1922,9.7967,-0.0063,0.0062,-0.0031,-3.0E-4,-9.0E-4,0.0,8.93,-16.2,-37.2,206.15,-1.12,2.32,48.84384,2.353374,91.6,NaN,,12.961,,0 / 21,,173,2022-01-12 10:17:32:157
-0.3861,0.2055,9.7038,-0.3973,0.1922,9.7967,-0.0063,0.0062,-0.0031,-3.0E-4,-9.0E-4,0.0,8.93,-16.2,-37.2,206.15,-1.12,2.32,48.84384,2.353374,91.6,NaN,,12.961,,0 / 21,,178,2022-01-12 10:17:32:162
-0.3861,0.2055,9.7038,-0.3973,0.1922,9.7967,-0.0063,0.0062,-0.0031,-3.0E-4,-9.0E-4,0.0,8.93,-16.2,-37.2,206.15,-1.12,2.32,48.84384,2.353374,91.6,NaN,,12.961,,0 / 21,,183,2022-01-12 10:17:32:167
-0.3861,0.2055,9.7038,-0.3973,0.1922,9.7967,-0.0063,0.0062,-0.0031,-3.0E-4,-9.0E-4,0.0,8.93,-16.2,-37.2,206.15,-1.12,2.32,48.84384,2.353374,91.6,NaN,,12.961,,0 / 21,,188,2022-01-12 10:17:32:172
-0.3861,0.2055,9.7038,-0.3973,0.1922,9.7967,-0.0063,0.0062,-0.0031,-3.0E-4,-9.0E-4,0.0,8.93,-16.2,-37.2,206.15,-1.12,2.32,48.84384,2.353374,91.6,NaN,,12.961,,0 / 21,,193,2022-01-12 10:17:32:177
-0.3861,0.2055,9.7038,-0.3973,0.1922,9.7967,-0.0063,0.0062,-0.0031,-3.0E-4,-9.0E-4,0.0,8.93,-16.2,-37.2,206.15,-1.12,2.32,48.84384,2.353374,91.6,NaN,,12.961,,0 / 21,,198,2022-01-12 10:17:32:182
-0.3861,0.2055,9.7038,-0.3973,0.1922,9.7967,-0.0063,0.0062,-0.0031,-3.0E-4,-9.0E-4,0.0,8.93,-16.2,-37.2,206.15,-1.12,2.32,48.84384,2.353374,91.6,NaN,,12.961,,0 / 21,,203,2022-01-12 10:17:32:187
-0.3861,0.2055,9.7038,-0.397,0.1911,9.7967,-0.0063,0.0062,-0.0031,-3.0E-4,-9.0E-4,0.0,8.93,-16.2,-37.2,206.15,-1.12,2.32,48.84384,2.353374,91.6,NaN,,12.961,,0 / 21,,207,2022-01-12 10:17:32:191
-0.3861,0.2055,9.7038,-0.397,0.1911,9.7967,-0.0026,-0.009,-0.0021,-3.0E-4,-9.0E-4,0.0,8.93,-16.2,-37.2,206.15,-1.12,2.32,48.84384,2.353374,91.6,NaN,,12.961,,0 / 21,,214,2022-01-12 10:17:32:198
-0.3861,0.2055,9.7038,-0.397,0.1911,9.7967,-0.0026,-0.009,-0.0021,-3.0E-4,-9.0E-4,0.0,8.93,-16.2,-37.2,206.15,-1.12,2.32,48.84384,2.353374,91.6,NaN,,12.961,,0 / 21,,218,2022-01-12 10:17:32:202
-0.3861,0.2055,9.7038,-0.397,0.1911,9.7967,-0.0026,-0.009,-0.0021,-3.0E-4,-9.0E-4,0.0,8.93,-16.2,-37.2,206.15,-1.12,2.32,48.84384,2.353374,91.6,NaN,,12.961,,0 / 21,,223,2022-01-12 10:17:32:207
-0.3861,0.2055,9.7038,-0.397,0.1911,9.7967,-0.0026,-0.009,-0.0021,-3.0E-4,-9.0E-4,0.0,8.93,-16.2,-37.2,206.15,-1.12,2.32,48.84384,2.353374,91.6,NaN,,12.961,,0 / 21,,228,2022-01-12 10:17:32:212
-0.3861,0.2055,9.7038,-0.397,0.1911,9.7967,-0.0026,-0.009,-0.0021,-3.0E-4,-9.0E-4,0.0,8.93,-16.2,-37.2,206.15,-1.12,2.32,48.84384,2.353374,91.6,NaN,,12.961,,0 / 21,,234,2022-01-12 10:17:32:218
-0.3861,0.2055,9.7038,-0.397,0.1911,9.7967,-0.0026,-0.009,-0.0021,-3.0E-4,-9.0E-4,0.0,8.93,-16.2,-37.2,206.15,-1.12,2.32,48.84384,2.353374,91.6,NaN,,12.961,,0 / 21,,238,2022-01-12 10:17:32:222
-0.3861,0.2055,9.7038,-0.397,0.1911,9.7967,-0.0026,-0.009,-0.0021,-3.0E-4,-9.0E-4,0.0,8.93,-16.2,-37.2,206.15,-1.12,2.32,48.84384,2.353374,91.6,NaN,,12.961,,0 / 21,,243,2022-01-12 10:17:32:227
-0.4125,0.1804,9.705,-0.397,0.1911,9.7967,-0.0026,-0.009,-0.0021,-3.0E-4,-9.0E-4,0.0,9.08,-16.2,-37.12,206.14,-1.12,2.32,48.84384,2.353374,91.6,NaN,,12.961,,0 / 21,,249,2022-01-12 10:17:32:233
-0.4125,0.1804,9.705,-0.397,0.1911,9.7967,-0.0026,-0.009,-0.0021,-3.0E-4,-9.0E-4,0.0,9.08,-16.2,-37.12,206.14,-1.12,2.32,48.84384,2.353374,91.6,NaN,,12.961,,0 / 21,,252,2022-01-12 10:17:32:236
-0.4125,0.1804,9.705,-0.397,0.1911,9.7967,-0.0026,-0.009,-0.0021,-3.0E-4,-9.0E-4,0.0,9.08,-16.2,-37.12,206.14,-1.12,2.32,48.84384,2.353374,91.6,NaN,,12.961,,0 / 21,,259,2022-01-12 10:17:32:243
-0.4125,0.1804,9.705,-0.397,0.1911,9.7967,-0.0026,-0.009,-0.0021,3.0E-4,-8.0E-4,0.0,9.08,-16.2,-37.12,206.14,-1.12,2.32,48.84384,2.353374,91.6,NaN,,12.961,,0 / 21,,263,2022-01-12 10:17:32:247
-0.4125,0.1804,9.705,-0.397,0.1911,9.7967,-0.0026,-0.009,-0.0021,3.0E-4,-8.0E-4,0.0,9.08,-16.2,-37.12,206.14,-1.12,2.32,48.84384,2.353374,91.6,NaN,,12.961,,0 / 21,,268,2022-01-12 10:17:32:252
-0.4125,0.1804,9.705,-0.397,0.1911,9.7967,-0.0026,-0.009,-0.0021,3.0E-4,-8.0E-4,0.0,9.08,-16.2,-37.12,206.14,-1.12,2.32,48.84384,2.353374,91.6,NaN,,12.961,,0 / 21,,273,2022-01-12 10:17:32:257
-0.4125,0.1804,9.705,-0.397,0.1911,9.7967,-0.0026,-0.009,-0.0021,3.0E-4,-8.0E-4,0.0,9.08,-16.2,-37.12,206.14,-1.12,2.32,48.84384,2.353374,91.6,NaN,,12.961,,0 / 21,,278,2022-01-12 10:17:32:262
-0.4125,0.1804,9.705,-0.397,0.1911,9.7967,-0.0026,-0.009,-0.0021,3.0E-4,-8.0E-4,0.0,9.08,-16.2,-37.12,206.14,-1.12,2.32,48.84384,2.353374,91.6,NaN,,12.961,,0 / 21,,283,2022-01-12 10:17:32:267
-0.4125,0.1804,9.705,-0.397,0.1911,9.7967,-0.0026,-0.009,-0.0021,3.0E-4,-8.0E-4,0.0,9.08,-16.2,-37.12,206.14,-1.12,2.32,48.84384,2.353374,91.6,NaN,,12.961,,0 / 21,,287,2022-01-12 10:17:32:271
-0.4125,0.1804,9.705,-0.397,0.1911,9.7967,-0.0026,-0.009,-0.0021,3.0E-4,-8.0E-4,0.0,9.08,-16.2,-37.12,206.14,-1.12,2.32,48.84384,2.353374,91.6,NaN,,12.961,,0 / 21,,293,2022-01-12 10:17:32:277
-0.4125,0.1804,9.705,-0.397,0.1911,9.7967,-0.0026,-0.009,-0.0021,3.0E-4,-8.0E-4,0.0,9.08,-16.2,-37.12,206.14,-1.12,2.32,48.84384,2.353374,91.6,NaN,,12.961,,0 / 21,,299,2022-01-12 10:17:32:283
-0.4125,0.1804,9.705,-0.397,0.1911,9.7967,-0.0026,-0.009,-0.0021,3.0E-4,-8.0E-4,0.0,9.08,-16.2,-37.12,206.14,-1.12,2.32,48.84384,2.353374,91.6,NaN,,12.961,,0 / 21,,303,2022-01-12 10:17:32:287
-0.4125,0.1804,9.705,-0.397,0.1911,9.7967,-0.0026,-0.009,-0.0021,3.0E-4,-8.0E-4,0.0,9.08,-16.2,-37.12,206.14,-1.12,2.32,48.84384,2.353374,91.6,NaN,,12.961,,0 / 21,,308,2022-01-12 10:17:32:292
-0.4125,0.1804,9.705,-0.397,0.1911,9.7967,-0.0026,-0.009,-0.0021,3.0E-4,-8.0E-4,0.0,9.08,-16.2,-37.12,206.14,-1.12,2.32,48.84384,2.353374,91.6,NaN,,12.961,,0 / 21,,313,2022-01-12 10:17:32:297
-0.4125,0.1804,9.705,-0.397,0.1911,9.7967,-0.0026,-0.009,-0.0021,3.0E-4,-8.0E-4,0.0,9.08,-16.2,-37.12,206.14,-1.12,2.32,48.84384,2.353374,91.6,NaN,,12.961,,0 / 21,,319,2022-01-12 10:17:32:303
-0.3981,0.1875,9.717,-0.3975,0.1915,9.7967,-0.0094,-0.0074,0.0026,3.0E-4,-8.0E-4,0.0,9.08,-16.2,-37.12,206.14,-1.12,2.32,48.84384,2.353374,91.6,NaN,,12.961,,0 / 21,,323,2022-01-12 10:17:32:307
-0.3981,0.1875,9.717,-0.3975,0.1915,9.7967,-0.0094,-0.0074,0.0026,3.0E-4,-8.0E-4,0.0,9.08,-16.2,-37.12,206.14,-1.12,2.32,48.84384,2.353374,91.6,NaN,,12.961,,0 / 21,,327,2022-01-12 10:17:32:311
-0.3981,0.1875,9.717,-0.3975,0.1915,9.7967,-0.0094,-0.0074,0.0026,3.0E-4,-8.0E-4,0.0,9.08,-16.2,-37.12,206.14,-1.12,2.32,48.84384,2.353374,91.6,NaN,,12.961,,0 / 21,,332,2022-01-12 10:17:32:316
-0.3981,0.1875,9.717,-0.3975,0.1915,9.7967,-0.0094,-0.0074,0.0026,3.0E-4,-8.0E-4,0.0,9.08,-16.2,-37.12,206.14,-1.12,2.32,48.84384,2.353374,91.6,NaN,,12.961,,0 / 21,,338,2022-01-12 10:17:32:322
-0.3981,0.1875,9.717,-0.3975,0.1915,9.7967,-0.0094,-0.0074,0.0026,3.0E-4,-8.0E-4,0.0,9.08,-16.2,-37.12,206.14,-1.12,2.32,48.84384,2.353374,91.6,NaN,,12.961,,0 / 21,,343,2022-01-12 10:17:32:327
-0.3981,0.1875,9.717,-0.3975,0.1915,9.7967,-0.0094,-0.0074,0.0026,3.0E-4,-8.0E-4,0.0,9.08,-16.2,-37.12,206.14,-1.12,2.32,48.84384,2.353374,91.6,NaN,,12.961,,0 / 21,,347,2022-01-12 10:17:32:331
-0.3981,0.1875,9.717,-0.3975,0.1915,9.7967,-0.0094,-0.0074,0.0026,3.0E-4,-8.0E-4,0.0,9.15,-16.05,-36.98,206.14,-1.12,2.32,48.84384,2.353374,91.6,NaN,,12.961,,0 / 21,,353,2022-01-12 10:17:32:337
-0.3981,0.1875,9.717,-0.3975,0.1915,9.7967,-0.0094,-0.0074,0.0026,3.0E-4,-8.0E-4,0.0,9.15,-16.05,-36.98,206.14,-1.12,2.32,48.84384,2.353374,91.6,NaN,,12.961,,0 / 21,,357,2022-01-12 10:17:32:341
-0.3981,0.1875,9.717,-0.3975,0.1915,9.7967,-0.0094,-0.0074,0.0026,3.0E-4,-8.0E-4,0.0,9.15,-16.05,-36.98,206.14,-1.12,2.32,48.84384,2.353374,91.6,NaN,,12.961,,0 / 21,,363,2022-01-12 10:17:32:347
-0.3981,0.1875,9.717,-0.3975,0.1915,9.7967,-0.0094,-0.0074,0.0026,3.0E-4,-8.0E-4,0.0,9.15,-16.05,-36.98,206.14,-1.12,2.32,48.84384,2.353374,91.6,NaN,,12.961,,0 / 21,,371,2022-01-12 10:17:32:355
-0.3981,0.1875,9.717,-0.3975,0.1915,9.7967,-0.0094,-0.0074,0.0026,3.0E-4,-8.0E-4,0.0,9.15,-16.05,-36.98,206.14,-1.12,2.32,48.84384,2.353374,91.6,NaN,,12.961,,0 / 21,,372,2022-01-12 10:17:32:356
-0.3981,0.1875,9.717,-0.3975,0.1915,9.7967,-0.0094,-0.0074,0.0026,3.0E-4,-8.0E-4,0.0,9.15,-16.05,-36.98,206.14,-1.12,2.32,48.84384,2.353374,91.6,NaN,,12.961,,0 / 21,,377,2022-01-12 10:17:32:361
-0.3981,0.1875,9.717,-0.3975,0.1915,9.7967,-0.0094,-0.0074,0.0026,3.0E-4,-8.0E-4,0.0,9.15,-16.05,-36.98,206.14,-1.12,2.32,48.84384,2.353374,91.6,NaN,,12.961,,0 / 21,,382,2022-01-12 10:17:32:366
-0.4005,0.1828,9.6918,-0.3967,0.192,9.7967,-1.0E-4,0.0069,2.0E-4,3.0E-4,-8.0E-4,0.0,9.15,-16.05,-36.98,206.14,-1.12,2.32,48.84384,2.353374,91.6,NaN,,12.961,,0 / 21,,388,2022-01-12 10:17:32:372
-0.4005,0.1828,9.6918,-0.3967,0.192,9.7967,-1.0E-4,0.0069,2.0E-4,3.0E-4,-8.0E-4,-4.0E-4,9.15,-16.05,-36.98,206.14,-1.12,2.32,48.84384,2.353374,91.6,NaN,,12.961,,0 / 21,,393,2022-01-12 10:17:32:377
-0.4005,0.1828,9.6918,-0.3967,0.192,9.7967,-1.0E-4,0.0069,2.0E-4,1.0E-4,-9.0E-4,-4.0E-4,9.15,-16.05,-36.98,206.14,-1.12,2.32,48.84384,2.353374,91.6,NaN,,12.961,,0 / 21,,397,2022-01-12 10:17:32:381
-0.4005,0.1828,9.6918,-0.3967,0.192,9.7967,-1.0E-4,0.0069,2.0E-4,1.0E-4,-9.0E-4,-4.0E-4,9.15,-16.05,-36.98,206.14,-1.12,2.32,48.84384,2.353374,91.6,NaN,,12.961,,0 / 21,,403,2022-01-12 10:17:32:387
-0.4005,0.1828,9.6918,-0.3967,0.192,9.7967,-1.0E-4,0.0069,2.0E-4,1.0E-4,-9.0E-4,-4.0E-4,9.15,-16.05,-36.98,206.14,-1.12,2.32,48.84384,2.353374,91.6,NaN,,12.961,,0 / 21,,408,2022-01-12 10:17:32:392
-0.4005,0.1828,9.6918,-0.3967,0.192,9.7967,-1.0E-4,0.0069,2.0E-4,1.0E-4,-9.0E-4,-4.0E-4,9.15,-16.05,-36.98,206.14,-1.12,2.32,48.84384,2.353374,91.6,NaN,,12.961,,0 / 21,,413,2022-01-12 10:17:32:397
-0.4005,0.1828,9.6918,-0.3967,0.192,9.7967,-1.0E-4,0.0069,2.0E-4,1.0E-4,-9.0E-4,-4.0E-4,9.15,-16.05,-36.98,206.14,-1.12,2.32,48.84384,2.353374,91.6,NaN,,12.961,,0 / 21,,419,2022-01-12 10:17:32:403
-0.4005,0.1828,9.6918,-0.3967,0.192,9.7967,-1.0E-4,0.0069,2.0E-4,1.0E-4,-9.0E-4,-4.0E-4,9.15,-16.05,-36.98,206.14,-1.12,2.32,48.84384,2.353374,91.6,NaN,,12.961,,0 / 21,,423,2022-01-12 10:17:32:407
-0.4005,0.1828,9.6918,-0.3967,0.192,9.7967,-1.0E-4,0.0069,2.0E-4,1.0E-4,-9.0E-4,-4.0E-4,9.15,-16.05,-36.98,206.14,-1.12,2.32,48.84384,2.353374,91.6,NaN,,12.961,,0 / 21,,428,2022-01-12 10:17:32:412
-0.4005,0.1828,9.6918,-0.3967,0.192,9.7967,-1.0E-4,0.0069,2.0E-4,1.0E-4,-9.0E-4,-4.0E-4,9.15,-16.05,-36.98,206.14,-1.12,2.32,48.84384,2.353374,91.6,NaN,,12.961,,0 / 21,,433,2022-01-12 10:17:32:417
-0.4005,0.1828,9.6918,-0.3967,0.192,9.7967,-1.0E-4,0.0069,2.0E-4,1.0E-4,-9.0E-4,-4.0E-4,9.15,-16.05,-36.98,206.14,-1.12,2.32,48.84384,2.353374,91.6,NaN,,12.961,,0 / 21,,438,2022-01-12 10:17:32:422
-0.4005,0.1828,9.6918,-0.3967,0.192,9.7967,-1.0E-4,0.0069,2.0E-4,1.0E-4,-9.0E-4,-4.0E-4,9.15,-16.05,-36.98,206.14,-1.12,2.32,48.84384,2.353374,91.6,NaN,,12.961,,0 / 21,,443,2022-01-12 10:17:32:427
-0.379,0.1768,9.7014,-0.3968,0.1916,9.7967,-0.0036,-0.0055,0.0073,1.0E-4,-9.0E-4,-4.0E-4,9.15,-16.05,-36.98,206.14,-1.12,2.32,48.84384,2.353374,91.6,NaN,,12.961,,0 / 21,,448,2022-01-12 10:17:32:432
-0.379,0.1768,9.7014,-0.3968,0.1916,9.7967,-0.0036,-0.0055,0.0073,1.0E-4,-9.0E-4,-4.0E-4,9.08,-15.97,-36.98,206.15,-1.12,2.32,48.84384,2.353374,91.6,NaN,,12.961,,0 / 21,,453,2022-01-12 10:17:32:437
-0.379,0.1768,9.7014,-0.3968,0.1916,9.7967,-0.0036,-0.0055,0.0073,1.0E-4,-9.0E-4,-4.0E-4,9.08,-15.97,-36.98,206.15,-1.12,2.32,48.84384,2.353374,91.6,NaN,,12.961,,0 / 21,,457,2022-01-12 10:17:32:441
-0.379,0.1768,9.7014,-0.3968,0.1916,9.7967,-0.0036,-0.0055,0.0073,1.0E-4,-9.0E-4,-4.0E-4,9.08,-15.97,-36.98,206.15,-1.12,2.32,48.84384,2.353374,91.6,NaN,,12.961,,0 / 21,,463,2022-01-12 10:17:32:447
-0.379,0.1768,9.7014,-0.3968,0.1916,9.7967,-0.0036,-0.0055,0.0073,1.0E-4,-9.0E-4,-4.0E-4,9.08,-15.97,-36.98,206.15,-1.12,2.32,48.84384,2.353374,91.6,NaN,,12.961,,0 / 21,,468,2022-01-12 10:17:32:452
-0.379,0.1768,9.7014,-0.3968,0.1916,9.7967,-0.0036,-0.0055,0.0073,1.0E-4,-9.0E-4,-4.0E-4,9.08,-15.97,-36.98,206.15,-1.12,2.32,48.84384,2.353374,91.6,NaN,,12.961,,0 / 21,,472,2022-01-12 10:17:32:456
-0.379,0.1768,9.7014,-0.3968,0.1916,9.7967,-0.0036,-0.0055,0.0073,1.0E-4,-9.0E-4,-4.0E-4,9.08,-15.97,-36.98,206.15,-1.12,2.32,48.84384,2.353374,91.6,NaN,,12.961,,0 / 21,,478,2022-01-12 10:17:32:462
-0.379,0.1768,9.7014,-0.3968,0.1916,9.7967,-0.0036,-0.0055,0.0073,1.0E-4,-9.0E-4,-4.0E-4,9.08,-15.97,-36.98,206.15,-1.12,2.32,48.84384,2.353374,91.6,NaN,,12.961,,0 / 21,,483,2022-01-12 10:17:32:467
-0.379,0.1768,9.7014,-0.3968,0.1916,9.7967,-0.0036,-0.0055,0.0073,1.0E-4,-9.0E-4,-4.0E-4,9.08,-15.97,-36.98,206.15,-1.12,2.32,48.84384,2.353374,91.6,NaN,,12.961,,0 / 21,,488,2022-01-12 10:17:32:472
-0.379,0.1768,9.7014,-0.3968,0.1916,9.7967,-0.0036,-0.0055,0.0073,1.0E-4,-9.0E-4,-4.0E-4,9.08,-15.97,-36.98,206.15,-1.12,2.32,48.84384,2.353374,91.6,NaN,,12.961,,0 / 21,,493,2022-01-12 10:17:32:477
-0.379,0.1768,9.7014,-0.3968,0.1916,9.7967,-0.0036,-0.0055,0.0073,1.0E-4,-9.0E-4,-4.0E-4,9.08,-15.97,-36.98,206.15,-1.12,2.32,48.84384,2.353374,91.6,NaN,,12.961,,0 / 21,,498,2022-01-12 10:17:32:482
-0.379,0.1768,9.7014,-0.3968,0.1916,9.7967,-0.0036,-0.0055,0.0073,1.0E-4,-9.0E-4,-4.0E-4,9.08,-15.97,-36.98,206.15,-1.12,2.32,48.84384,2.353374,91.6,NaN,,12.961,,0 / 21,,503,2022-01-12 10:17:32:487
-0.3993,0.1947,9.7134,-0.3955,0.1917,9.7968,-0.0036,-0.0055,0.0073,1.0E-4,-9.0E-4,-4.0E-4,9.08,-15.97,-36.98,206.15,-1.12,2.32,48.84384,2.353374,91.6,NaN,,12.961,,0 / 21,,507,2022-01-12 10:17:32:491
-0.4077,0.1851,9.7074,-0.3955,0.1916,9.7968,-0.0033,-4.0E-4,-0.0011,7.0E-4,-8.0E-4,3.0E-4,9.23,-15.97,-36.98,206.16,-1.12,2.31,48.84384,2.353374,91.6,NaN,,12.961,,0 / 21,,564,2022-01-12 10:17:32:548
-0.4077,0.1851,9.7074,-0.3955,0.1916,9.7968,-0.0033,-4.0E-4,-0.0011,7.0E-4,-8.0E-4,3.0E-4,9.23,-15.97,-36.98,206.16,-1.12,2.31,48.84384,2.353374,91.6,NaN,,12.961,,0 / 21,,569,2022-01-12 10:17:32:553
-0.4077,0.1851,9.7074,-0.3955,0.1916,9.7968,-0.0033,-4.0E-4,-0.0011,7.0E-4,-8.0E-4,3.0E-4,9.23,-15.97,-36.98,206.16,-1.12,2.31,48.84384,2.353374,91.6,NaN,,12.961,,0 / 21,,569,2022-01-12 10:17:32:553
-0.4077,0.1851,9.7074,-0.3955,0.1916,9.7968,-0.0033,-4.0E-4,-0.0011,7.0E-4,-8.0E-4,3.0E-4,9.23,-15.97,-36.98,206.16,-1.12,2.31,48.84384,2.353374,91.6,NaN,,12.961,,0 / 21,,570,2022-01-12 10:17:32:554
-0.4077,0.1851,9.7074,-0.3955,0.1916,9.7968,-0.0033,-4.0E-4,-0.0011,7.0E-4,-8.0E-4,3.0E-4,9.23,-15.97,-36.98,206.16,-1.12,2.31,48.84384,2.353374,91.6,NaN,,12.961,,0 / 21,,570,2022-01-12 10:17:32:554
-0.4077,0.1851,9.7074,-0.3955,0.1916,9.7968,-0.0033,-4.0E-4,-0.0011,7.0E-4,-8.0E-4,3.0E-4,9.23,-15.97,-36.98,206.16,-1.12,2.31,48.84384,2.353374,91.6,NaN,,12.961,,0 / 21,,570,2022-01-12 10:17:32:554
-0.4077,0.1851,9.7074,-0.3955,0.1916,9.7968,-0.0033,-4.0E-4,-0.0011,7.0E-4,-8.0E-4,3.0E-4,9.23,-15.97,-36.98,206.16,-1.12,2.31,48.84384,2.353374,91.6,NaN,,12.961,,0 / 21,,570,2022-01-12 10:17:32:554
-0.4077,0.1851,9.7074,-0.3955,0.1916,9.7968,-0.0033,-4.0E-4,-0.0011,7.0E-4,-8.0E-4,3.0E-4,9.23,-15.97,-36.98,206.16,-1.12,2.31,48.84384,2.353374,91.6,NaN,,12.961,,0 / 21,,571,2022-01-12 10:17:32:555
-0.4077,0.1851,9.7074,-0.3955,0.1916,9.7968,-0.0033,-4.0E-4,-0.0011,7.0E-4,-8.0E-4,3.0E-4,9.23,-15.97,-36.98,206.16,-1.12,2.31,48.84384,2.353374,91.6,NaN,,12.961,,0 / 21,,571,2022-01-12 10:17:32:555
-0.4077,0.1851,9.7074,-0.3955,0.1916,9.7968,-0.0033,-4.0E-4,-0.0011,7.0E-4,-8.0E-4,3.0E-4,9.23,-15.97,-36.98,206.16,-1.12,2.31,48.84384,2.353374,91.6,NaN,,12.961,,0 / 21,,571,2022-01-12 10:17:32:555
-0.4077,0.1851,9.7074,-0.3955,0.1916,9.7968,-0.0033,-4.0E-4,-0.0011,7.0E-4,-8.0E-4,3.0E-4,9.23,-15.97,-36.98,206.16,-1.12,2.31,48.84384,2.353374,91.6,NaN,,12.961,,0 / 21,,571,2022-01-12 10:17:32:555
-0.4077,0.1851,9.7074,-0.3955,0.1916,9.7968,-0.0033,-4.0E-4,-0.0011,7.0E-4,-8.0E-4,3.0E-4,9.23,-15.97,-36.98,206.16,-1.12,2.31,48.84384,2.353374,91.6,NaN,,12.961,,0 / 21,,571,2022-01-12 10:17:32:555
-0.4077,0.1851,9.7074,-0.3955,0.1916,9.7968,-0.0033,-4.0E-4,-0.0011,7.0E-4,-8.0E-4,3.0E-4,9.23,-15.97,-36.98,206.16,-1.12,2.31,48.84384,2.353374,91.6,NaN,,12.961,,0 / 21,,574,2022-01-12 10:17:32:558
-0.4077,0.1851,9.7074,-0.3955,0.1916,9.7968,-0.0033,-4.0E-4,-0.0011,7.0E-4,-8.0E-4,3.0E-4,9.23,-15.97,-36.98,206.16,-1.12,2.31,48.84384,2.353374,91.6,NaN,,12.961,,0 / 21,,577,2022-01-12 10:17:32:561
-0.4077,0.1851,9.7074,-0.3955,0.1916,9.7968,-0.0033,-4.0E-4,-0.0011,7.0E-4,-8.0E-4,3.0E-4,9.23,-15.97,-36.98,206.16,-1.12,2.31,48.84384,2.353374,91.6,NaN,,12.961,,0 / 21,,583,2022-01-12 10:17:32:567
-0.4077,0.1851,9.7074,-0.3955,0.1916,9.7968,-0.0033,-4.0E-4,-0.0011,7.0E-4,-8.0E-4,3.0E-4,9.23,-15.97,-36.98,206.16,-1.12,2.31,48.84384,2.353374,91.6,NaN,,12.961,,0 / 21,,588,2022-01-12 10:17:32:572
-0.4077,0.1851,9.7074,-0.3955,0.1916,9.7968,-0.0033,-4.0E-4,-0.0011,7.0E-4,-8.0E-4,3.0E-4,9.23,-15.97,-36.98,206.16,-1.12,2.31,48.84384,2.353374,91.6,NaN,,12.961,,0 / 21,,594,2022-01-12 10:17:32:578
-0.4077,0.1851,9.7074,-0.3955,0.1916,9.7968,-0.0033,-4.0E-4,-0.0011,7.0E-4,-8.0E-4,3.0E-4,9.23,-15.97,-36.98,206.16,-1.12,2.31,48.84384,2.353374,91.6,NaN,,12.961,,0 / 21,,598,2022-01-12 10:17:32:582
-0.4077,0.1851,9.7074,-0.3955,0.1916,9.7968,-0.0033,-4.0E-4,-0.0011,7.0E-4,-8.0E-4,3.0E-4,9.23,-15.97,-36.98,206.16,-1.12,2.31,48.84384,2.353374,91.6,NaN,,12.961,,0 / 21,,604,2022-01-12 10:17:32:588
-0.4077,0.1851,9.7074,-0.3955,0.1916,9.7968,-0.0033,-4.0E-4,-0.0011,7.0E-4,-8.0E-4,3.0E-4,9.23,-15.97,-36.98,206.16,-1.12,2.31,48.84384,2.353374,91.6,NaN,,12.961,,0 / 21,,608,2022-01-12 10:17:32:592
-0.4077,0.1851,9.7074,-0.3955,0.1916,9.7968,-0.0033,-4.0E-4,-0.0011,7.0E-4,-8.0E-4,3.0E-4,9.23,-15.97,-36.98,206.16,-1.12,2.31,48.84384,2.353374,91.6,NaN,,12.961,,0 / 21,,613,2022-01-12 10:17:32:597
-0.4077,0.1851,9.7074,-0.3955,0.1916,9.7968,-0.0033,-4.0E-4,-0.0011,7.0E-4,-8.0E-4,3.0E-4,9.23,-15.97,-36.98,206.16,-1.12,2.31,48.84384,2.353374,91.6,NaN,,12.961,,0 / 21,,617,2022-01-12 10:17:32:601
-0.4077,0.1851,9.7074,-0.3955,0.1916,9.7968,-0.0033,-4.0E-4,-0.0011,7.0E-4,-8.0E-4,3.0E-4,9.23,-15.97,-36.98,206.16,-1.12,2.31,48.84384,2.353374,91.6,NaN,,12.961,,0 / 21,,623,2022-01-12 10:17:32:607
-0.4077,0.1851,9.7074,-0.3955,0.1916,9.7968,-0.0033,-4.0E-4,-0.0011,7.0E-4,-8.0E-4,3.0E-4,9.23,-15.97,-36.98,206.16,-1.12,2.31,48.84384,2.353374,91.6,NaN,,12.961,,0 / 21,,627,2022-01-12 10:17:32:611
-0.4077,0.1851,9.7074,-0.3955,0.1916,9.7968,-0.0033,-4.0E-4,-0.0011,7.0E-4,-8.0E-4,3.0E-4,9.23,-15.97,-36.98,206.16,-1.12,2.31,48.84384,2.353374,91.6,NaN,,12.961,,0 / 21,,632,2022-01-12 10:17:32:616
-0.4077,0.1851,9.7074,-0.3955,0.1916,9.7968,-0.0033,-4.0E-4,-0.0011,7.0E-4,-8.0E-4,3.0E-4,9.23,-15.97,-36.98,206.16,-1.12,2.31,48.84384,2.353374,91.6,NaN,,12.961,,0 / 21,,638,2022-01-12 10:17:32:622
-0.4005,0.1792,9.7014,-0.3957,0.1917,9.7968,-0.0039,-9.0E-4,1.0E-4,7.0E-4,-8.0E-4,3.0E-4,9.23,-15.97,-36.98,206.16,-1.12,2.31,48.84384,2.353374,91.6,NaN,,12.961,,0 / 21,,642,2022-01-12 10:17:32:626
-0.4005,0.1792,9.7014,-0.3957,0.1917,9.7968,-0.0039,-9.0E-4,1.0E-4,7.0E-4,-8.0E-4,3.0E-4,9.23,-15.97,-36.98,206.16,-1.12,2.31,48.84384,2.353374,91.6,NaN,,12.961,,0 / 21,,648,2022-01-12 10:17:32:632
-0.4005,0.1792,9.7014,-0.3957,0.1917,9.7968,-0.0039,-9.0E-4,1.0E-4,7.0E-4,-8.0E-4,3.0E-4,9.38,-15.67,-37.2,206.16,-1.12,2.31,48.84384,2.353374,91.6,NaN,,12.961,,0 / 21,,652,2022-01-12 10:17:32:636
-0.4005,0.1792,9.7014,-0.3957,0.1917,9.7968,-0.0039,-9.0E-4,1.0E-4,-5.0E-4,-0.0011,0.0,9.38,-15.67,-37.2,206.16,-1.12,2.31,48.84384,2.353374,91.6,NaN,,12.961,,0 / 21,,658,2022-01-12 10:17:32:642
-0.4005,0.1792,9.7014,-0.3957,0.1917,9.7968,-0.0039,-9.0E-4,1.0E-4,-5.0E-4,-0.0011,0.0,9.38,-15.67,-37.2,206.16,-1.12,2.31,48.84384,2.353374,91.6,NaN,,12.961,,0 / 21,,664,2022-01-12 10:17:32:648
-0.4005,0.1792,9.7014,-0.3957,0.1917,9.7968,-0.0039,-9.0E-4,1.0E-4,-5.0E-4,-0.0011,0.0,9.38,-15.67,-37.2,206.16,-1.12,2.31,48.84384,2.353374,91.6,NaN,,12.961,,0 / 21,,667,2022-01-12 10:17:32:651
-0.4005,0.1792,9.7014,-0.3957,0.1917,9.7968,-0.0039,-9.0E-4,1.0E-4,-5.0E-4,-0.0011,0.0,9.38,-15.67,-37.2,206.16,-1.12,2.31,48.84384,2.353374,91.6,NaN,,12.961,,0 / 21,,673,2022-01-12 10:17:32:657
-0.4005,0.1792,9.7014,-0.3957,0.1917,9.7968,-0.0039,-9.0E-4,1.0E-4,-5.0E-4,-0.0011,0.0,9.38,-15.67,-37.2,206.16,-1.12,2.31,48.84384,2.353374,91.6,NaN,,12.961,,0 / 21,,678,2022-01-12 10:17:32:662
-0.4005,0.1792,9.7014,-0.3957,0.1917,9.7968,-0.0039,-9.0E-4,1.0E-4,-5.0E-4,-0.0011,0.0,9.38,-15.67,-37.2,206.16,-1.12,2.31,48.84384,2.353374,91.6,NaN,,12.961,,0 / 21,,683,2022-01-12 10:17:32:667
-0.4005,0.1792,9.7014,-0.3957,0.1917,9.7968,-0.0039,-9.0E-4,1.0E-4,-5.0E-4,-0.0011,0.0,9.38,-15.67,-37.2,206.16,-1.12,2.31,48.84384,2.353374,91.6,NaN,,12.961,,0 / 21,,689,2022-01-12 10:17:32:673
-0.4005,0.1792,9.7014,-0.3957,0.1917,9.7968,-0.0039,-9.0E-4,1.0E-4,-5.0E-4,-0.0011,0.0,9.38,-15.67,-37.2,206.16,-1.12,2.31,48.84384,2.353374,91.6,NaN,,12.961,,0 / 21,,693,2022-01-12 10:17:32:677
-0.4005,0.1959,9.6882,-0.3957,0.1917,9.7968,-0.0039,-9.0E-4,1.0E-4,-5.0E-4,-0.0011,0.0,9.38,-15.67,-37.2,206.16,-1.12,2.31,48.84384,2.353374,91.6,NaN,,12.961,,0 / 21,,698,2022-01-12 10:17:32:682
-0.4005,0.1959,9.6882,-0.3957,0.1917,9.7968,-0.0039,-9.0E-4,1.0E-4,-5.0E-4,-0.0011,0.0,9.38,-15.67,-37.2,206.16,-1.12,2.31,48.84384,2.353374,91.6,NaN,,12.961,,0 / 21,,703,2022-01-12 10:17:32:687
-0.4005,0.1959,9.6882,-0.3957,0.1917,9.7968,-0.0039,-9.0E-4,1.0E-4,-5.0E-4,-0.0011,0.0,9.38,-15.67,-37.2,206.16,-1.12,2.31,48.84384,2.353374,91.6,NaN,,12.961,,0 / 21,,708,2022-01-12 10:17:32:692
-0.4005,0.1959,9.6882,-0.3957,0.1917,9.7968,-0.0039,-9.0E-4,1.0E-4,-5.0E-4,-0.0011,0.0,9.38,-15.67,-37.2,206.16,-1.12,2.31,48.84384,2.353374,91.6,NaN,,12.961,,0 / 21,,714,2022-01-12 10:17:32:698
-0.4005,0.1959,9.6882,-0.3957,0.1917,9.7968,-0.0039,-9.0E-4,1.0E-4,-5.0E-4,-0.0011,0.0,9.38,-15.67,-37.2,206.16,-1.12,2.31,48.84384,2.353374,91.6,NaN,,12.961,,0 / 21,,717,2022-01-12 10:17:32:701
-0.4005,0.1959,9.6882,-0.3957,0.1917,9.7968,-0.0039,-9.0E-4,1.0E-4,-5.0E-4,-0.0011,0.0,9.38,-15.67,-37.2,206.16,-1.12,2.31,48.84384,2.353374,91.6,NaN,,12.961,,0 / 21,,723,2022-01-12 10:17:32:707
-0.4005,0.1959,9.6882,-0.3957,0.1917,9.7968,-0.0039,-9.0E-4,1.0E-4,-5.0E-4,-0.0015,-5.0E-4,9.38,-15.67,-37.2,206.16,-1.12,2.31,48.84384,2.353374,91.6,NaN,,12.961,,0 / 21,,728,2022-01-12 10:17:32:712
-0.4005,0.1959,9.6882,-0.3957,0.1917,9.7968,-0.0039,-9.0E-4,1.0E-4,-5.0E-4,-0.0015,-5.0E-4,9.38,-15.67,-37.2,206.16,-1.12,2.31,48.84384,2.353374,91.6,NaN,,12.961,,0 / 21,,733,2022-01-12 10:17:32:717
-0.4005,0.1959,9.6882,-0.3957,0.1917,9.7968,-0.0039,-9.0E-4,1.0E-4,-5.0E-4,-0.0015,-5.0E-4,9.38,-15.67,-37.2,206.16,-1.12,2.31,48.84384,2.353374,91.6,NaN,,12.961,,0 / 21,,738,2022-01-12 10:17:32:722
-0.4005,0.1959,9.6882,-0.3957,0.1917,9.7968,-0.0039,-9.0E-4,1.0E-4,-5.0E-4,-0.0015,-5.0E-4,9.38,-15.67,-37.2,206.16,-1.12,2.31,48.84384,2.353374,91.6,NaN,,12.961,,0 / 21,,742,2022-01-12 10:17:32:726
-0.4005,0.1959,9.6882,-0.3959,0.1913,9.7968,-0.0085,0.0032,-0.0054,-5.0E-4,-0.0015,-5.0E-4,9.38,-15.67,-37.2,206.16,-1.12,2.31,48.84384,2.353374,91.6,NaN,,12.961,,0 / 21,,749,2022-01-12 10:17:32:733
-0.4005,0.1959,9.6882,-0.3959,0.1913,9.7968,-0.0085,0.0032,-0.0054,-5.0E-4,-0.0015,-5.0E-4,9.53,-15.45,-37.12,210.78,-1.12,2.31,48.84384,2.353374,91.6,NaN,,12.961,,0 / 21,,753,2022-01-12 10:17:32:737
-0.4005,0.1959,9.6882,-0.3959,0.1913,9.7968,-0.0085,0.0032,-0.0054,-5.0E-4,-0.0015,-5.0E-4,9.53,-15.45,-37.12,210.78,-1.12,2.31,48.84384,2.353374,91.6,NaN,,12.961,,0 / 21,,757,2022-01-12 10:17:32:741
-0.4005,0.1959,9.6882,-0.3959,0.1913,9.7968,-0.0085,0.0032,-0.0054,-5.0E-4,-0.0015,-5.0E-4,9.53,-15.45,-37.12,210.78,-1.12,2.31,48.84384,2.353374,91.6,NaN,,12.961,,0 / 21,,763,2022-01-12 10:17:32:747
-0.4005,0.1959,9.6882,-0.3959,0.1913,9.7968,-0.0085,0.0032,-0.0054,-5.0E-4,-0.0015,-5.0E-4,9.53,-15.45,-37.12,210.78,-1.12,2.31,48.84384,2.353374,91.6,NaN,,12.961,,0 / 21,,767,2022-01-12 10:17:32:751
-0.4005,0.1959,9.6882,-0.3959,0.1913,9.7968,-0.0085,0.0032,-0.0054,-5.0E-4,-0.0015,-5.0E-4,9.53,-15.45,-37.12,210.78,-1.12,2.31,48.84384,2.353374,91.6,NaN,,12.961,,0 / 21,,772,2022-01-12 10:17:32:756
-0.4005,0.1959,9.6882,-0.3959,0.1913,9.7968,-0.0085,0.0032,-0.0054,-5.0E-4,-0.0015,-5.0E-4,9.53,-15.45,-37.12,210.78,-1.12,2.31,48.84384,2.353374,91.6,NaN,,12.961,,0 / 21,,778,2022-01-12 10:17:32:762
-0.4005,0.1959,9.6882,-0.3959,0.1913,9.7968,-0.0085,0.0032,-0.0054,-5.0E-4,-0.0015,-5.0E-4,9.53,-15.45,-37.12,210.78,-1.12,2.31,48.84384,2.353374,91.6,NaN,,12.961,,0 / 21,,782,2022-01-12 10:17:32:766
-0.3826,0.1851,9.7002,-0.3959,0.1913,9.7968,-0.0085,0.0032,-0.0054,-5.0E-4,-0.0015,-5.0E-4,9.53,-15.45,-37.12,210.78,-1.12,2.31,48.84384,2.353374,91.6,NaN,,12.961,,0 / 21,,788,2022-01-12 10:17:32:772
-0.3826,0.1851,9.7002,-0.3959,0.1913,9.7968,-0.0085,0.0032,-0.0054,-5.0E-4,-0.0015,-5.0E-4,9.53,-15.45,-37.12,210.78,-1.12,2.31,48.84384,2.353374,91.6,NaN,,12.961,,0 / 21,,792,2022-01-12 10:17:32:776
-0.3826,0.1851,9.7002,-0.3959,0.1913,9.7968,-0.0085,0.0032,-0.0054,-5.0E-4,-0.0015,-5.0E-4,9.53,-15.45,-37.12,210.78,-1.12,2.31,48.84384,2.353374,91.6,NaN,,12.961,,0 / 21,,798,2022-01-12 10:17:32:782
-0.3826,0.1851,9.7002,-0.3959,0.1913,9.7968,-0.0085,0.0032,-0.0054,-5.0E-4,-0.0015,-5.0E-4,9.53,-15.45,-37.12,210.78,-1.12,2.31,48.84384,2.353374,91.6,NaN,,12.961,,0 / 21,,802,2022-01-12 10:17:32:786
-0.3826,0.1851,9.7002,-0.3959,0.1913,9.7968,-0.0085,0.0032,-0.0054,-5.0E-4,-0.0015,-5.0E-4,9.53,-15.45,-37.12,210.78,-1.12,2.31,48.84384,2.353374,91.6,NaN,,12.961,,0 / 21,,808,2022-01-12 10:17:32:792
-0.3826,0.1851,9.7002,-0.3965,0.1906,9.7968,-0.0091,-0.0069,-0.0016,-5.0E-4,-0.0015,-5.0E-4,9.53,-15.45,-37.12,210.78,-1.12,2.31,48.84384,2.353374,91.6,NaN,,12.961,,0 / 21,,813,2022-01-12 10:17:32:797
-0.3826,0.1851,9.7002,-0.3965,0.1906,9.7968,-0.0091,-0.0069,-0.0016,-5.0E-4,-0.0015,-5.0E-4,9.53,-15.45,-37.12,210.78,-1.12,2.31,48.84384,2.353374,91.6,NaN,,12.961,,0 / 21,,817,2022-01-12 10:17:32:801
-0.3826,0.1851,9.7002,-0.3965,0.1906,9.7968,-0.0091,-0.0069,-0.0016,-5.0E-4,-0.0015,-5.0E-4,9.53,-15.45,-37.12,210.78,-1.12,2.31,48.84384,2.353374,91.6,NaN,,12.961,,0 / 21,,824,2022-01-12 10:17:32:808
-0.3826,0.1851,9.7002,-0.3965,0.1906,9.7968,-0.0091,-0.0069,-0.0016,-5.0E-4,-0.0015,-5.0E-4,9.53,-15.45,-37.12,210.78,-1.12,2.31,48.84384,2.353374,91.6,NaN,,12.961,,0 / 21,,828,2022-01-12 10:17:32:812
-0.3826,0.1851,9.7002,-0.3965,0.1906,9.7968,-0.0091,-0.0069,-0.0016,-5.0E-4,-0.0015,-5.0E-4,9.53,-15.45,-37.12,210.78,-1.12,2.31,48.84384,2.353374,91.6,NaN,,12.961,,0 / 21,,833,2022-01-12 10:17:32:817
-0.3826,0.1851,9.7002,-0.3965,0.1906,9.7968,-0.0091,-0.0069,-0.0016,-5.0E-4,-0.0015,-5.0E-4,9.53,-15.45,-37.12,210.78,-1.12,2.31,48.84384,2.353374,91.6,NaN,,12.961,,0 / 21,,838,2022-01-12 10:17:32:822
-0.3826,0.1851,9.7002,-0.3965,0.1906,9.7968,-0.0091,-0.0069,-0.0016,-5.0E-4,-0.0015,-5.0E-4,9.53,-15.45,-37.12,210.78,-1.12,2.31,48.84384,2.353374,91.6,NaN,,12.961,,0 / 21,,843,2022-01-12 10:17:32:827
-0.3826,0.1851,9.7002,-0.3965,0.1906,9.7968,-0.0091,-0.0069,-0.0016,-5.0E-4,-0.0015,-5.0E-4,9.53,-15.45,-37.12,210.78,-1.12,2.31,48.84384,2.353374,91.6,NaN,,12.961,,0 / 21,,847,2022-01-12 10:17:32:831
-0.3897,0.1851,9.7158,-0.3965,0.1906,9.7968,-0.0091,-0.0069,-0.0016,-5.0E-4,-0.0015,-5.0E-4,9.45,-15.52,-37.28,206.15,-1.11,2.32,48.84384,2.353374,91.6,NaN,,12.961,,0 / 21,,853,2022-01-12 10:17:32:837
-0.3897,0.1851,9.7158,-0.3965,0.1906,9.7968,-0.0091,-0.0069,-0.0016,-5.0E-4,-0.0015,-5.0E-4,9.45,-15.52,-37.28,206.15,-1.11,2.32,48.84384,2.353374,91.6,NaN,,12.961,,0 / 21,,857,2022-01-12 10:17:32:841
-0.3897,0.1851,9.7158,-0.3965,0.1906,9.7968,-0.0091,-0.0069,-0.0016,-1.0E-4,-9.0E-4,1.0E-4,9.45,-15.52,-37.28,206.15,-1.11,2.32,48.84384,2.353374,91.6,NaN,,12.961,,0 / 21,,863,2022-01-12 10:17:32:847
-0.3897,0.1851,9.7158,-0.3965,0.1906,9.7968,-0.0091,-0.0069,-0.0016,-1.0E-4,-9.0E-4,1.0E-4,9.45,-15.52,-37.28,206.15,-1.11,2.32,48.84384,2.353374,91.6,NaN,,12.961,,0 / 21,,868,2022-01-12 10:17:32:852
-0.3897,0.1851,9.7158,-0.3965,0.1906,9.7968,-0.0091,-0.0069,-0.0016,-1.0E-4,-9.0E-4,1.0E-4,9.45,-15.52,-37.28,206.15,-1.11,2.32,48.84384,2.353374,91.6,NaN,,12.961,,0 / 21,,873,2022-01-12 10:17:32:857
-0.3897,0.1851,9.7158,-0.3965,0.1906,9.7968,-0.0091,-0.0069,-0.0016,-1.0E-4,-9.0E-4,1.0E-4,9.45,-15.52,-37.28,206.15,-1.11,2.32,48.84384,2.353374,91.6,NaN,,12.961,,0 / 21,,878,2022-01-12 10:17:32:862
-0.3897,0.1851,9.7158,-0.3965,0.1906,9.7968,-0.0091,-0.0069,-0.0016,-1.0E-4,-9.0E-4,1.0E-4,9.45,-15.52,-37.28,206.15,-1.11,2.32,48.84384,2.353374,91.6,NaN,,12.961,,0 / 21,,882,2022-01-12 10:17:32:866
-0.3897,0.1851,9.7158,-0.3958,0.1914,9.7968,0.0017,0.007,0.001,-1.0E-4,-9.0E-4,1.0E-4,9.45,-15.52,-37.28,206.15,-1.11,2.32,48.84384,2.353374,91.6,NaN,,12.961,,0 / 21,,888,2022-01-12 10:17:32:872
-0.3897,0.1851,9.7158,-0.3958,0.1914,9.7968,0.0017,0.007,0.001,-1.0E-4,-9.0E-4,1.0E-4,9.45,-15.52,-37.28,206.15,-1.11,2.32,48.84384,2.353374,91.6,NaN,,12.961,,0 / 21,,892,2022-01-12 10:17:32:876
-0.3897,0.1851,9.7158,-0.3958,0.1914,9.7968,0.0017,0.007,0.001,-1.0E-4,-9.0E-4,1.0E-4,9.45,-15.52,-37.28,206.15,-1.11,2.32,48.84384,2.353374,91.6,NaN,,12.961,,0 / 21,,898,2022-01-12 10:17:32:882
-0.3897,0.1851,9.7158,-0.3958,0.1914,9.7968,0.0017,0.007,0.001,-1.0E-4,-9.0E-4,1.0E-4,9.45,-15.52,-37.28,206.15,-1.11,2.32,48.84384,2.353374,91.6,NaN,,12.961,,0 / 21,,902,2022-01-12 10:17:32:886
-0.3897,0.1851,9.7158,-0.3958,0.1914,9.7968,0.0017,0.007,0.001,-1.0E-4,-9.0E-4,1.0E-4,9.45,-15.52,-37.28,206.15,-1.11,2.32,48.84384,2.353374,91.6,NaN,,12.961,,0 / 21,,907,2022-01-12 10:17:32:891
-0.3897,0.1851,9.7158,-0.3958,0.1914,9.7968,0.0017,0.007,0.001,-1.0E-4,-9.0E-4,1.0E-4,9.45,-15.52,-37.28,206.15,-1.11,2.32,48.84384,2.353374,91.6,NaN,,12.961,,0 / 21,,913,2022-01-12 10:17:32:897
-0.3897,0.1851,9.7158,-0.3958,0.1914,9.7968,0.0017,0.007,0.001,-1.0E-4,-9.0E-4,1.0E-4,9.45,-15.52,-37.28,206.15,-1.11,2.32,48.84384,2.353374,91.6,NaN,,12.961,,0 / 21,,918,2022-01-12 10:17:32:902
-0.3969,0.1911,9.7134,-0.3958,0.1914,9.7968,0.0017,0.007,0.001,-1.0E-4,-9.0E-4,1.0E-4,9.45,-15.52,-37.28,206.15,-1.11,2.32,48.84384,2.353374,91.6,NaN,,12.961,,0 / 21,,923,2022-01-12 10:17:32:907
-0.3969,0.1911,9.7134,-0.3958,0.1914,9.7968,0.0017,0.007,0.001,-1.0E-4,-9.0E-4,1.0E-4,9.45,-15.52,-37.28,206.15,-1.11,2.32,48.84384,2.353374,91.6,NaN,,12.961,,0 / 21,,928,2022-01-12 10:17:32:912
-0.3969,0.1911,9.7134,-0.3958,0.1914,9.7968,0.0017,0.007,0.001,-1.0E-4,-9.0E-4,1.0E-4,9.45,-15.52,-37.28,206.15,-1.11,2.32,48.84384,2.353374,91.6,NaN,,12.961,,0 / 21,,933,2022-01-12 10:17:32:917
-0.3969,0.1911,9.7134,-0.3958,0.1914,9.7968,0.0017,0.007,0.001,-1.0E-4,-9.0E-4,1.0E-4,9.45,-15.52,-37.28,206.15,-1.11,2.32,48.84384,2.353374,91.6,NaN,,12.961,,0 / 21,,938,2022-01-12 10:17:32:922
-0.3969,0.1911,9.7134,-0.3941,0.19,9.7969,0.0017,0.007,0.001,-1.0E-4,-9.0E-4,1.0E-4,9.45,-15.52,-37.28,206.15,-1.11,2.32,48.84384,2.353374,91.6,NaN,,12.961,,0 / 21,,943,2022-01-12 10:17:32:927
-0.3969,0.1911,9.7134,-0.3941,0.19,9.7969,0.0017,0.007,0.001,-1.0E-4,-9.0E-4,1.0E-4,9.45,-15.52,-37.28,206.15,-1.11,2.32,48.84384,2.353374,91.6,NaN,,12.961,,0 / 21,,947,2022-01-12 10:17:32:931
-0.3969,0.1911,9.7134,-0.3941,0.19,9.7969,0.0017,0.007,0.001,-1.0E-4,-9.0E-4,1.0E-4,9.45,-15.52,-37.28,206.15,-1.11,2.32,48.84384,2.353374,91.6,NaN,,12.961,,0 / 21,,952,2022-01-12 10:17:32:936
-0.3969,0.1911,9.7134,-0.3941,0.19,9.7969,0.0017,0.007,0.001,-1.0E-4,-9.0E-4,1.0E-4,9.45,-15.52,-37.28,206.15,-1.11,2.32,48.84384,2.353374,91.6,NaN,,12.961,,0 / 21,,958,2022-01-12 10:17:32:942
-0.3969,0.1911,9.7134,-0.3941,0.19,9.7969,0.0017,0.007,0.001,-1.0E-4,-9.0E-4,1.0E-4,9.53,-15.6,-37.35,209.11,-1.11,2.3,48.84384,2.353374,91.6,NaN,,12.961,,0 / 21,,963,2022-01-12 10:17:32:947
-0.3969,0.1911,9.7134,-0.3941,0.19,9.7969,0.0017,0.007,0.001,-1.0E-4,-9.0E-4,1.0E-4,9.53,-15.6,-37.35,209.11,-1.11,2.3,48.84384,2.353374,91.6,NaN,,12.961,,0 / 21,,967,2022-01-12 10:17:32:951
-0.3969,0.1911,9.7134,-0.3941,0.19,9.7969,0.0017,0.007,0.001,-1.0E-4,-9.0E-4,1.0E-4,9.53,-15.6,-37.35,209.11,-1.11,2.3,48.84384,2.353374,91.6,NaN,,12.961,,0 / 21,,972,2022-01-12 10:17:32:956
-0.3969,0.1911,9.7134,-0.3941,0.19,9.7969,0.0017,0.007,0.001,-1.0E-4,-9.0E-4,1.0E-4,9.53,-15.6,-37.35,209.11,-1.11,2.3,48.84384,2.353374,91.6,NaN,,12.961,,0 / 21,,978,2022-01-12 10:17:32:962
-0.3969,0.1911,9.7134,-0.3941,0.19,9.7969,0.0017,0.007,0.001,-1.0E-4,-9.0E-4,1.0E-4,9.53,-15.6,-37.35,209.11,-1.11,2.3,48.84384,2.353374,91.6,NaN,,12.961,,0 / 21,,982,2022-01-12 10:17:32:966
-0.3969,0.1911,9.7134,-0.3941,0.19,9.7969,0.0017,0.007,0.001,-1.0E-4,-9.0E-4,1.0E-4,9.53,-15.6,-37.35,209.11,-1.11,2.3,48.84384,2.353374,91.6,NaN,,12.961,,0 / 21,,988,2022-01-12 10:17:32:972
-0.3969,0.1911,9.7134,-0.3941,0.19,9.7969,0.0017,0.007,0.001,-1.0E-4,-9.0E-4,1.0E-4,9.53,-15.6,-37.35,209.11,-1.11,2.3,48.84384,2.353374,91.6,NaN,,12.961,,0 / 21,,992,2022-01-12 10:17:32:976
-0.4053,0.2115,9.6906,-0.3941,0.19,9.7969,-0.0046,0.0099,0.0111,3.0E-4,0.0017,4.0E-4,9.53,-15.6,-37.35,209.11,-1.11,2.3,48.84384,2.353374,91.6,NaN,,12.961,,0 / 21,,998,2022-01-12 10:17:32:982
-0.4053,0.2115,9.6906,-0.3941,0.19,9.7969,-0.0046,0.0099,0.0111,3.0E-4,0.0017,4.0E-4,9.53,-15.6,-37.35,209.11,-1.11,2.3,48.84384,2.353374,91.6,NaN,,12.961,,0 / 21,,1003,2022-01-12 10:17:32:987
-0.4053,0.2115,9.6906,-0.3941,0.19,9.7969,-0.0046,0.0099,0.0111,3.0E-4,0.0017,4.0E-4,9.53,-15.6,-37.35,209.11,-1.11,2.3,48.84384,2.353374,91.6,NaN,,12.961,,0 / 21,,1007,2022-01-12 10:17:32:991
-0.4053,0.2115,9.6906,-0.3941,0.19,9.7969,-0.0046,0.0099,0.0111,3.0E-4,0.0017,4.0E-4,9.53,-15.6,-37.35,209.11,-1.11,2.3,48.84384,2.353374,91.6,NaN,,12.961,,0 / 21,,1013,2022-01-12 10:17:32:997
-0.4053,0.2115,9.6906,-0.3941,0.19,9.7969,-0.0046,0.0099,0.0111,3.0E-4,0.0017,4.0E-4,9.53,-15.6,-37.35,209.11,-1.11,2.3,48.84384,2.353374,91.6,NaN,,12.961,,0 / 21,,1018,2022-01-12 10:17:33:002
-0.4053,0.2115,9.6906,-0.3941,0.19,9.7969,-0.0046,0.0099,0.0111,3.0E-4,0.0017,4.0E-4,9.53,-15.6,-37.35,209.11,-1.11,2.3,48.84384,2.353374,91.6,NaN,,12.961,,0 / 21,,1023,2022-01-12 10:17:33:007
-0.4053,0.2115,9.6906,-0.3941,0.19,9.7969,-0.0046,0.0099,0.0111,3.0E-4,0.0017,4.0E-4,9.53,-15.6,-37.35,209.11,-1.11,2.3,48.84384,2.353374,91.6,NaN,,12.961,,0 / 21,,1027,2022-01-12 10:17:33:011
-0.4053,0.2115,9.6906,-0.3941,0.19,9.7969,-0.0046,0.0099,0.0111,3.0E-4,0.0017,4.0E-4,9.53,-15.6,-37.35,209.11,-1.11,2.3,48.84384,2.353374,91.6,NaN,,12.961,,0 / 21,,1033,2022-01-12 10:17:33:017
-0.4053,0.2115,9.6906,-0.3941,0.19,9.7969,-0.0046,0.0099,0.0111,3.0E-4,0.0017,4.0E-4,9.53,-15.6,-37.35,209.11,-1.11,2.3,48.84384,2.353374,91.6,NaN,,12.961,,0 / 21,,1037,2022-01-12 10:17:33:021
-0.4053,0.2115,9.6906,-0.3941,0.19,9.7969,-0.0046,0.0099,0.0111,3.0E-4,0.0017,4.0E-4,9.53,-15.6,-37.35,209.11,-1.11,2.3,48.84384,2.353374,91.6,NaN,,12.961,,0 / 21,,1043,2022-01-12 10:17:33:027
-0.4053,0.2115,9.6906,-0.3941,0.19,9.7969,-0.0046,0.0099,0.0111,3.0E-4,0.0017,4.0E-4,9.53,-15.6,-37.35,209.11,-1.11,2.3,48.84384,2.353374,91.6,NaN,,12.961,,0 / 21,,1047,2022-01-12 10:17:33:031
-0.4053,0.2115,9.6906,-0.3941,0.19,9.7969,-0.0046,0.0099,0.0111,3.0E-4,0.0017,4.0E-4,9.53,-15.6,-37.35,209.11,-1.11,2.3,48.84384,2.353374,91.6,NaN,,12.961,,0 / 21,,1053,2022-01-12 10:17:33:037
-0.3969,0.1828,9.717,-0.3958,0.1931,9.7968,-0.0047,0.011,-0.0132,3.0E-4,0.0017,4.0E-4,9.83,-15.45,-37.35,210.79,-1.11,2.3,48.84384,2.353374,91.6,NaN,,12.961,,0 / 21,,1058,2022-01-12 10:17:33:042
-0.3969,0.1828,9.717,-0.3958,0.1931,9.7968,-0.0047,0.011,-0.0132,3.0E-4,0.0017,4.0E-4,9.83,-15.45,-37.35,210.79,-1.11,2.3,48.84384,2.353374,91.6,NaN,,12.961,,0 / 21,,1062,2022-01-12 10:17:33:046
-0.3969,0.1828,9.717,-0.3958,0.1931,9.7968,-0.0047,0.011,-0.0132,3.0E-4,0.0017,4.0E-4,9.83,-15.45,-37.35,210.79,-1.11,2.3,48.84384,2.353374,91.6,NaN,,12.961,,0 / 21,,1067,2022-01-12 10:17:33:051
-0.3969,0.1828,9.717,-0.3958,0.1931,9.7968,-0.0047,0.011,-0.0132,3.0E-4,0.0017,4.0E-4,9.83,-15.45,-37.35,210.79,-1.11,2.3,48.84384,2.353374,91.6,NaN,,12.961,,0 / 21,,1073,2022-01-12 10:17:33:057
-0.3969,0.1828,9.717,-0.3958,0.1931,9.7968,-0.0047,0.011,-0.0132,3.0E-4,0.0017,4.0E-4,9.83,-15.45,-37.35,210.79,-1.11,2.3,48.84384,2.353374,91.6,NaN,,12.961,,0 / 21,,1078,2022-01-12 10:17:33:062
-0.3969,0.1828,9.717,-0.3958,0.1931,9.7968,-0.0047,0.011,-0.0132,3.0E-4,0.0017,4.0E-4,9.83,-15.45,-37.35,210.79,-1.11,2.3,48.84384,2.353374,91.6,NaN,,12.961,,0 / 21,,1089,2022-01-12 10:17:33:073
-0.3969,0.1828,9.717,-0.3958,0.1931,9.7968,-0.0047,0.011,-0.0132,3.0E-4,0.0017,4.0E-4,9.83,-15.45,-37.35,210.79,-1.11,2.3,48.84384,2.353374,91.6,NaN,,12.961,,0 / 21,,1090,2022-01-12 10:17:33:074
-0.3969,0.1828,9.717,-0.3958,0.1931,9.7968,-0.0047,0.011,-0.0132,3.0E-4,0.0017,4.0E-4,9.83,-15.45,-37.35,210.79,-1.11,2.3,48.84384,2.353374,91.6,NaN,,12.961,,0 / 21,,1093,2022-01-12 10:17:33:077
-0.3969,0.1828,9.717,-0.3958,0.1931,9.7968,-0.0047,0.011,-0.0132,3.0E-4,0.0017,4.0E-4,9.83,-15.45,-37.35,210.79,-1.11,2.3,48.84384,2.353374,91.6,NaN,,12.961,,0 / 21,,1097,2022-01-12 10:17:33:081
-0.3969,0.1828,9.717,-0.3958,0.1931,9.7968,-0.0047,0.011,-0.0132,3.0E-4,0.0017,4.0E-4,9.83,-15.45,-37.35,210.79,-1.11,2.3,48.84384,2.353374,91.6,NaN,,12.961,,0 / 21,,1103,2022-01-12 10:17:33:087
-0.3969,0.1828,9.717,-0.3958,0.1931,9.7968,-0.0047,0.011,-0.0132,3.0E-4,0.0017,4.0E-4,9.83,-15.45,-37.35,210.79,-1.11,2.3,48.84384,2.353374,91.6,NaN,,12.961,,0 / 21,,1107,2022-01-12 10:17:33:091
-0.3969,0.1828,9.717,-0.3958,0.1931,9.7968,-0.0047,0.011,-0.0132,3.0E-4,0.0017,4.0E-4,9.83,-15.45,-37.35,210.79,-1.11,2.3,48.84384,2.353374,91.6,NaN,,12.961,,0 / 21,,1113,2022-01-12 10:17:33:097
-0.3969,0.1828,9.717,-0.3958,0.1931,9.7968,-0.0047,0.011,-0.0132,3.0E-4,0.0017,4.0E-4,9.83,-15.45,-37.35,210.79,-1.11,2.3,48.84384,2.353374,91.6,NaN,,12.961,,0 / 21,,1117,2022-01-12 10:17:33:101
-0.4101,0.1899,9.7253,-0.3955,0.1925,9.7968,-0.0069,-0.0044,-4.0E-4,-1.0E-4,-0.0056,4.0E-4,9.83,-15.45,-37.35,210.79,-1.11,2.3,48.84384,2.353374,91.6,NaN,,12.961,,0 / 21,,1123,2022-01-12 10:17:33:107
-0.4101,0.1899,9.7253,-0.3955,0.1925,9.7968,-0.0069,-0.0044,-4.0E-4,-1.0E-4,-0.0056,4.0E-4,9.83,-15.45,-37.35,210.79,-1.11,2.3,48.84384,2.353374,91.6,NaN,,12.961,,0 / 21,,1127,2022-01-12 10:17:33:111
-0.4101,0.1899,9.7253,-0.3955,0.1925,9.7968,-0.0069,-0.0044,-4.0E-4,-1.0E-4,-0.0056,4.0E-4,9.83,-15.45,-37.35,210.79,-1.11,2.3,48.84384,2.353374,91.6,NaN,,12.961,,0 / 21,,1133,2022-01-12 10:17:33:117
-0.4101,0.1899,9.7253,-0.3955,0.1925,9.7968,-0.0069,-0.0044,-4.0E-4,-1.0E-4,-0.0056,4.0E-4,9.83,-15.45,-37.35,210.79,-1.11,2.3,48.84384,2.353374,91.6,NaN,,12.961,,0 / 21,,1137,2022-01-12 10:17:33:121
-0.4101,0.1899,9.7253,-0.3955,0.1925,9.7968,-0.0069,-0.0044,-4.0E-4,-1.0E-4,-0.0056,4.0E-4,9.83,-15.45,-37.35,210.79,-1.11,2.3,48.84384,2.353374,91.6,NaN,,12.961,,0 / 21,,1143,2022-01-12 10:17:33:127
-0.4101,0.1899,9.7253,-0.3955,0.1925,9.7968,-0.0069,-0.0044,-4.0E-4,-1.0E-4,-0.0056,4.0E-4,9.83,-15.45,-37.35,210.79,-1.11,2.3,48.84384,2.353374,91.6,NaN,,12.961,,0 / 21,,1147,2022-01-12 10:17:33:131
-0.4101,0.1899,9.7253,-0.3955,0.1925,9.7968,-0.0069,-0.0044,-4.0E-4,-1.0E-4,-0.0056,4.0E-4,9.83,-15.45,-37.35,210.79,-1.11,2.3,48.84384,2.353374,91.6,NaN,,12.961,,0 / 21,,1153,2022-01-12 10:17:33:137
-0.4101,0.1899,9.7253,-0.3955,0.1925,9.7968,-0.0069,-0.0044,-4.0E-4,-1.0E-4,-0.0056,4.0E-4,9.83,-15.67,-37.2,209.11,-1.12,2.31,48.84384,2.353374,91.6,NaN,,12.961,,0 / 21,,1158,2022-01-12 10:17:33:142
-0.4101,0.1899,9.7253,-0.3955,0.1925,9.7968,-0.0069,-0.0044,-4.0E-4,-1.0E-4,-0.0056,4.0E-4,9.83,-15.67,-37.2,209.11,-1.12,2.31,48.84384,2.353374,91.6,NaN,,12.961,,0 / 21,,1163,2022-01-12 10:17:33:147
-0.4101,0.1899,9.7253,-0.3955,0.1925,9.7968,-0.0069,-0.0044,-4.0E-4,-1.0E-4,-0.0056,4.0E-4,9.83,-15.67,-37.2,209.11,-1.12,2.31,48.84384,2.353374,91.6,NaN,,12.961,,0 / 21,,1169,2022-01-12 10:17:33:153
-0.4101,0.1899,9.7253,-0.3955,0.1925,9.7968,-0.0069,-0.0044,-4.0E-4,-1.0E-4,-0.0056,4.0E-4,9.83,-15.67,-37.2,209.11,-1.12,2.31,48.84384,2.353374,91.6,NaN,,12.961,,0 / 21,,1172,2022-01-12 10:17:33:156
-0.3404,0.0604,9.6775,-0.3955,0.1925,9.7968,-0.0069,-0.0044,-4.0E-4,-1.0E-4,-0.0056,4.0E-4,9.83,-15.67,-37.2,209.11,-1.12,2.31,48.84384,2.353374,91.6,NaN,,12.961,,0 / 21,,1178,2022-01-12 10:17:33:162
-0.3404,0.0604,9.6775,-0.3955,0.1925,9.7968,-0.0069,-0.0044,-4.0E-4,-1.0E-4,-0.0056,4.0E-4,9.83,-15.67,-37.2,209.11,-1.12,2.31,48.84384,2.353374,91.6,NaN,,12.961,,0 / 21,,1183,2022-01-12 10:17:33:167
-0.3404,0.0604,9.6775,-0.3955,0.1925,9.7968,-0.0069,-0.0044,-4.0E-4,-1.0E-4,-0.0056,4.0E-4,9.83,-15.67,-37.2,209.11,-1.12,2.31,48.84384,2.353374,91.6,NaN,,12.961,,0 / 21,,1188,2022-01-12 10:17:33:172
-0.3404,0.0604,9.6775,-0.3955,0.1925,9.7968,-0.0069,-0.0044,-4.0E-4,-0.0115,-0.0682,0.3426,9.83,-15.67,-37.2,209.11,-1.12,2.31,48.84384,2.353374,91.6,NaN,,12.961,,0 / 21,,1193,2022-01-12 10:17:33:177
-0.3404,0.0604,9.6775,-0.3955,0.1925,9.7968,-0.0069,-0.0044,-4.0E-4,-0.0115,-0.0682,0.3426,9.83,-15.67,-37.2,209.11,-1.12,2.31,48.84384,2.353374,91.6,NaN,,12.961,,0 / 21,,1199,2022-01-12 10:17:33:183
-0.3404,0.0604,9.6775,-0.3955,0.1925,9.7968,-0.0069,-0.0044,-4.0E-4,-0.0115,-0.0682,0.3426,9.83,-15.67,-37.2,209.11,-1.12,2.31,48.84384,2.353374,91.6,NaN,,12.961,,0 / 21,,1203,2022-01-12 10:17:33:187
-0.3404,0.0604,9.6775,-0.3955,0.1925,9.7968,-0.0069,-0.0044,-4.0E-4,-0.0115,-0.0682,0.3426,9.83,-15.67,-37.2,209.11,-1.12,2.31,48.84384,2.353374,91.6,NaN,,12.961,,0 / 21,,1208,2022-01-12 10:17:33:192
-0.3404,0.0604,9.6775,-0.3955,0.1925,9.7968,-0.0069,-0.0044,-4.0E-4,-0.0115,-0.0682,0.3426,9.83,-15.67,-37.2,209.11,-1.12,2.31,48.84384,2.353374,91.6,NaN,,12.961,,0 / 21,,1214,2022-01-12 10:17:33:198
-0.3404,0.0604,9.6775,-0.3955,0.1925,9.7968,-0.0069,-0.0044,-4.0E-4,-0.0115,-0.0682,0.3426,9.83,-15.67,-37.2,209.11,-1.12,2.31,48.84384,2.353374,91.6,NaN,,12.961,,0 / 21,,1218,2022-01-12 10:17:33:202
-0.3404,0.0604,9.6775,-0.3955,0.1925,9.7968,-0.0069,-0.0044,-4.0E-4,-0.0115,-0.0682,0.3426,9.83,-15.67,-37.2,209.11,-1.12,2.31,48.84384,2.353374,91.6,NaN,,12.961,,0 / 21,,1222,2022-01-12 10:17:33:206
-0.3404,0.0604,9.6775,-0.3955,0.1925,9.7968,-0.0069,-0.0044,-4.0E-4,-0.0115,-0.0682,0.3426,9.83,-15.67,-37.2,209.11,-1.12,2.31,48.84384,2.353374,91.6,NaN,,12.961,,0 / 21,,1228,2022-01-12 10:17:33:212
-0.3404,0.0604,9.6775,-0.3955,0.1925,9.7968,-0.0069,-0.0044,-4.0E-4,-0.0115,-0.0682,0.3426,9.83,-15.67,-37.2,209.11,-1.12,2.31,48.84384,2.353374,91.6,NaN,,12.961,,0 / 21,,1233,2022-01-12 10:17:33:217
-0.3404,0.0604,9.6775,-0.3955,0.1925,9.7968,-0.0069,-0.0044,-4.0E-4,-0.0115,-0.0682,0.3426,9.83,-15.67,-37.2,209.11,-1.12,2.31,48.84384,2.353374,91.6,NaN,,12.961,,0 / 21,,1238,2022-01-12 10:17:33:222
-0.6832,0.1923,9.6485,-0.3637,0.2018,9.7978,-0.0848,0.0207,-0.0183,-0.0115,-0.0682,0.3426,9.83,-15.67,-37.2,209.11,-1.12,2.31,48.84384,2.353374,91.6,NaN,,12.961,,0 / 21,,1244,2022-01-12 10:17:33:228
-0.6832,0.1923,9.6485,-0.3637,0.2018,9.7978,-0.0848,0.0207,-0.0183,-0.0115,-0.0682,0.3426,9.83,-15.67,-37.2,209.11,-1.12,2.31,48.84384,2.353374,91.6,NaN,,12.961,,0 / 21,,1248,2022-01-12 10:17:33:232
-0.6832,0.1923,9.6485,-0.3637,0.2018,9.7978,-0.0848,0.0207,-0.0183,-0.0115,-0.0682,0.3426,9.83,-15.67,-37.2,209.11,-1.12,2.31,48.84384,2.353374,91.6,NaN,,12.961,,0 / 21,,1253,2022-01-12 10:17:33:237
-0.6832,0.1923,9.6485,-0.3637,0.2018,9.7978,-0.0848,0.0207,-0.0183,-0.0115,-0.0682,0.3426,9.45,-15.83,-37.05,206.59,-1.18,2.13,48.84384,2.353374,91.6,NaN,,12.961,,0 / 21,,1260,2022-01-12 10:17:33:244
-0.6832,0.1923,9.6485,-0.3637,0.2018,9.7978,-0.0848,0.0207,-0.0183,-0.0115,-0.0682,0.3426,9.45,-15.83,-37.05,206.59,-1.18,2.13,48.84384,2.353374,91.6,NaN,,12.961,,0 / 21,,1262,2022-01-12 10:17:33:246
-0.6832,0.1923,9.6485,-0.3637,0.2018,9.7978,-0.0848,0.0207,-0.0183,-0.0115,-0.0682,0.3426,9.45,-15.83,-37.05,206.59,-1.18,2.13,48.84384,2.353374,91.6,NaN,,12.961,,0 / 21,,1268,2022-01-12 10:17:33:252
-0.6832,0.1923,9.6485,-0.3637,0.2018,9.7978,-0.0848,0.0207,-0.0183,-0.0115,-0.0682,0.3426,9.45,-15.83,-37.05,206.59,-1.18,2.13,48.84384,2.353374,91.6,NaN,,12.961,,0 / 21,,1273,2022-01-12 10:17:33:257
-0.6832,0.1923,9.6485,-0.3637,0.2018,9.7978,-0.0848,0.0207,-0.0183,-0.0115,-0.0682,0.3426,9.45,-15.83,-37.05,206.59,-1.18,2.13,48.84384,2.353374,91.6,NaN,,12.961,,0 / 21,,1278,2022-01-12 10:17:33:262
-0.6832,0.1923,9.6485,-0.3637,0.2018,9.7978,-0.0848,0.0207,-0.0183,-0.0115,-0.0682,0.3426,9.45,-15.83,-37.05,206.59,-1.18,2.13,48.84384,2.353374,91.6,NaN,,12.961,,0 / 21,,1283,2022-01-12 10:17:33:267
-0.6832,0.1923,9.6485,-0.3637,0.2018,9.7978,-0.0848,0.0207,-0.0183,-0.0115,-0.0682,0.3426,9.45,-15.83,-37.05,206.59,-1.18,2.13,48.84384,2.353374,91.6,NaN,,12.961,,0 / 21,,1287,2022-01-12 10:17:33:271
-0.6485,0.245,9.7253,-0.3637,0.2018,9.7978,-0.0848,0.0207,-0.0183,-0.0115,-0.0682,0.3426,9.45,-15.83,-37.05,206.59,-1.18,2.13,48.84384,2.353374,91.6,NaN,,12.961,,0 / 21,,1293,2022-01-12 10:17:33:277
-0.6485,0.245,9.7253,-0.3637,0.2018,9.7978,-0.0848,0.0207,-0.0183,-0.0115,-0.0682,0.3426,9.45,-15.83,-37.05,206.59,-1.18,2.13,48.84384,2.353374,91.6,NaN,,12.961,,0 / 21,,1297,2022-01-12 10:17:33:281
-0.6485,0.245,9.7253,-0.3637,0.2018,9.7978,-0.0848,0.0207,-0.0183,-0.0115,-0.0682,0.3426,9.45,-15.83,-37.05,206.59,-1.18,2.13,48.84384,2.353374,91.6,NaN,,12.961,,0 / 21,,1303,2022-01-12 10:17:33:287
-0.6485,0.245,9.7253,-0.3637,0.2018,9.7978,-0.0848,0.0207,-0.0183,-0.0115,-0.0682,0.3426,9.45,-15.83,-37.05,206.59,-1.18,2.13,48.84384,2.353374,91.6,NaN,,12.961,,0 / 21,,1307,2022-01-12 10:17:33:291
-0.6485,0.245,9.7253,-0.3637,0.2018,9.7978,-0.0848,0.0207,-0.0183,-0.0115,-0.0682,0.3426,9.45,-15.83,-37.05,206.59,-1.18,2.13,48.84384,2.353374,91.6,NaN,,12.961,,0 / 21,,1314,2022-01-12 10:17:33:298
-0.6485,0.245,9.7253,-0.3637,0.2018,9.7978,-0.0848,0.0207,-0.0183,-0.0115,-0.0682,0.3426,9.45,-15.83,-37.05,206.59,-1.18,2.13,48.84384,2.353374,91.6,NaN,,12.961,,0 / 21,,1318,2022-01-12 10:17:33:302
-0.6485,0.245,9.7253,-0.3867,0.2205,9.7965,-0.0871,0.0356,0.0263,-0.0115,-0.0682,0.3426,9.45,-15.83,-37.05,206.59,-1.18,2.13,48.84384,2.353374,91.6,NaN,,12.961,,0 / 21,,1322,2022-01-12 10:17:33:306
-0.6485,0.245,9.7253,-0.3867,0.2205,9.7965,-0.0871,0.0356,0.0263,-0.0126,1.0E-4,1.1522,9.45,-15.83,-37.05,206.59,-1.18,2.13,48.84384,2.353374,91.6,NaN,,12.961,,0 / 21,,1329,2022-01-12 10:17:33:313
-0.6485,0.245,9.7253,-0.3867,0.2205,9.7965,-0.0871,0.0356,0.0263,-0.0126,1.0E-4,1.1522,9.45,-15.83,-37.05,206.59,-1.18,2.13,48.84384,2.353374,91.6,NaN,,12.961,,0 / 21,,1332,2022-01-12 10:17:33:316
-0.6485,0.245,9.7253,-0.3867,0.2205,9.7965,-0.0871,0.0356,0.0263,-0.0126,1.0E-4,1.1522,9.45,-15.83,-37.05,206.59,-1.18,2.13,48.84384,2.353374,91.6,NaN,,12.961,,0 / 21,,1338,2022-01-12 10:17:33:322
-0.6485,0.245,9.7253,-0.3867,0.2205,9.7965,-0.0871,0.0356,0.0263,-0.0126,1.0E-4,1.1522,9.45,-15.83,-37.05,206.59,-1.18,2.13,48.84384,2.353374,91.6,NaN,,12.961,,0 / 21,,1343,2022-01-12 10:17:33:327
-0.6485,0.245,9.7253,-0.3867,0.2205,9.7965,-0.0871,0.0356,0.0263,-0.0126,1.0E-4,1.1522,9.45,-15.83,-37.05,206.59,-1.18,2.13,48.84384,2.353374,91.6,NaN,,12.961,,0 / 21,,1348,2022-01-12 10:17:33:332
-0.6485,0.245,9.7253,-0.3867,0.2205,9.7965,-0.0871,0.0356,0.0263,-0.0126,1.0E-4,1.1522,9.45,-15.83,-37.05,206.59,-1.18,2.13,48.84384,2.353374,91.6,NaN,,12.961,,0 / 21,,1354,2022-01-12 10:17:33:338
-0.6485,0.245,9.7253,-0.3867,0.2205,9.7965,-0.0871,0.0356,0.0263,-0.0126,1.0E-4,1.1522,9.45,-15.83,-37.05,206.59,-1.18,2.13,48.84384,2.353374,91.6,NaN,,12.961,,0 / 21,,1358,2022-01-12 10:17:33:342
-0.6197,0.1433,9.7373,-0.3867,0.2205,9.7965,-0.0871,0.0356,0.0263,-0.0126,1.0E-4,1.1522,9.08,-15.9,-37.05,206.43,-1.29,2.26,48.84384,2.353374,91.6,NaN,,12.961,,0 / 21,,1363,2022-01-12 10:17:33:347
-0.6197,0.1433,9.7373,-0.3867,0.2205,9.7965,-0.0871,0.0356,0.0263,-0.0126,1.0E-4,1.1522,9.08,-15.9,-37.05,206.43,-1.29,2.26,48.84384,2.353374,91.6,NaN,,12.961,,0 / 21,,1371,2022-01-12 10:17:33:355
-0.6197,0.1433,9.7373,-0.3867,0.2205,9.7965,-0.0871,0.0356,0.0263,-0.0126,1.0E-4,1.1522,9.08,-15.9,-37.05,206.43,-1.29,2.26,48.84384,2.353374,91.6,NaN,,12.961,,0 / 21,,1372,2022-01-12 10:17:33:356
-0.6197,0.1433,9.7373,-0.3867,0.2205,9.7965,-0.0871,0.0356,0.0263,-0.0126,1.0E-4,1.1522,9.08,-15.9,-37.05,206.43,-1.29,2.26,48.84384,2.353374,91.6,NaN,,12.961,,0 / 21,,1378,2022-01-12 10:17:33:362
-0.6197,0.1433,9.7373,-0.3867,0.2205,9.7965,-0.0871,0.0356,0.0263,-0.0126,1.0E-4,1.1522,9.08,-15.9,-37.05,206.43,-1.29,2.26,48.84384,2.353374,91.6,NaN,,12.961,,0 / 21,,1383,2022-01-12 10:17:33:367
-0.6197,0.1433,9.7373,-0.3867,0.2205,9.7965,-0.0871,0.0356,0.0263,-0.0126,1.0E-4,1.1522,9.08,-15.9,-37.05,206.43,-1.29,2.26,48.84384,2.353374,91.6,NaN,,12.961,,0 / 21,,1388,2022-01-12 10:17:33:372
-0.6197,0.1433,9.7373,-0.3867,0.2205,9.7965,-0.0871,0.0356,0.0263,-0.0126,1.0E-4,1.1522,9.08,-15.9,-37.05,206.43,-1.29,2.26,48.84384,2.353374,91.6,NaN,,12.961,,0 / 21,,1393,2022-01-12 10:17:33:377
-0.6197,0.1433,9.7373,-0.3867,0.2205,9.7965,-0.0871,0.0356,0.0263,-0.0126,1.0E-4,1.1522,9.08,-15.9,-37.05,206.43,-1.29,2.26,48.84384,2.353374,91.6,NaN,,12.961,,0 / 21,,1398,2022-01-12 10:17:33:382
-0.6197,0.1433,9.7373,-0.3867,0.2205,9.7965,-0.0871,0.0356,0.0263,-0.0126,1.0E-4,1.1522,9.08,-15.9,-37.05,206.43,-1.29,2.26,48.84384,2.353374,91.6,NaN,,12.961,,0 / 21,,1403,2022-01-12 10:17:33:387
-0.6197,0.1433,9.7373,-0.3867,0.2205,9.7965,-0.0871,0.0356,0.0263,-0.0126,1.0E-4,1.1522,9.08,-15.9,-37.05,206.43,-1.29,2.26,48.84384,2.353374,91.6,NaN,,12.961,,0 / 21,,1408,2022-01-12 10:17:33:392
-0.6197,0.1433,9.7373,-0.3867,0.2205,9.7965,-0.0871,0.0356,0.0263,-0.0126,1.0E-4,1.1522,9.08,-15.9,-37.05,206.43,-1.29,2.26,48.84384,2.353374,91.6,NaN,,12.961,,0 / 21,,1413,2022-01-12 10:17:33:397
-0.6197,0.1433,9.7373,-0.3867,0.2205,9.7965,-0.0871,0.0356,0.0263,-0.0126,1.0E-4,1.1522,9.08,-15.9,-37.05,206.43,-1.29,2.26,48.84384,2.353374,91.6,NaN,,12.961,,0 / 21,,1418,2022-01-12 10:17:33:402
-0.6197,0.1433,9.7373,-0.3867,0.2205,9.7965,-0.0871,0.0356,0.0263,-0.0126,1.0E-4,1.1522,9.08,-15.9,-37.05,206.43,-1.29,2.26,48.84384,2.353374,91.6,NaN,,12.961,,0 / 21,,1423,2022-01-12 10:17:33:407
-0.6221,0.1217,9.7074,-0.4003,0.2582,9.7951,-0.2252,-0.058,-0.0022,-0.0126,1.0E-4,1.1522,9.08,-15.9,-37.05,206.43,-1.29,2.26,48.84384,2.353374,91.6,NaN,,12.961,,0 / 21,,1428,2022-01-12 10:17:33:412
-0.6221,0.1217,9.7074,-0.4003,0.2582,9.7951,-0.2252,-0.058,-0.0022,-0.0126,1.0E-4,1.1522,9.08,-15.9,-37.05,206.43,-1.29,2.26,48.84384,2.353374,91.6,NaN,,12.961,,0 / 21,,1433,2022-01-12 10:17:33:417
-0.6221,0.1217,9.7074,-0.4003,0.2582,9.7951,-0.2252,-0.058,-0.0022,-0.0126,1.0E-4,1.1522,9.08,-15.9,-37.05,206.43,-1.29,2.26,48.84384,2.353374,91.6,NaN,,12.961,,0 / 21,,1438,2022-01-12 10:17:33:422
-0.6221,0.1217,9.7074,-0.4003,0.2582,9.7951,-0.2252,-0.058,-0.0022,-0.0126,1.0E-4,1.1522,9.08,-15.9,-37.05,206.43,-1.29,2.26,48.84384,2.353374,91.6,NaN,,12.961,,0 / 21,,1443,2022-01-12 10:17:33:427
-0.6221,0.1217,9.7074,-0.4003,0.2582,9.7951,-0.2252,-0.058,-0.0022,-0.0126,1.0E-4,1.1522,9.08,-15.9,-37.05,206.43,-1.29,2.26,48.84384,2.353374,91.6,NaN,,12.961,,0 / 21,,1448,2022-01-12 10:17:33:432
-0.6221,0.1217,9.7074,-0.4003,0.2582,9.7951,-0.2252,-0.058,-0.0022,-0.0126,1.0E-4,1.1522,7.95,-16.12,-36.82,203.36,-1.51,2.34,48.84384,2.353374,91.6,NaN,,12.961,,0 / 21,,1453,2022-01-12 10:17:33:437
-0.6221,0.1217,9.7074,-0.4003,0.2582,9.7951,-0.2252,-0.058,-0.0022,-0.0059,0.0703,1.6724,7.95,-16.12,-36.82,203.36,-1.51,2.34,48.84384,2.353374,91.6,NaN,,12.961,,0 / 21,,1458,2022-01-12 10:17:33:442
-0.6221,0.1217,9.7074,-0.4003,0.2582,9.7951,-0.2252,-0.058,-0.0022,-0.0059,0.0703,1.6724,7.95,-16.12,-36.82,203.36,-1.51,2.34,48.84384,2.353374,91.6,NaN,,12.961,,0 / 21,,1464,2022-01-12 10:17:33:448
-0.6221,0.1217,9.7074,-0.4003,0.2582,9.7951,-0.2252,-0.058,-0.0022,-0.0059,0.0703,1.6724,7.95,-16.12,-36.82,203.36,-1.51,2.34,48.84384,2.353374,91.6,NaN,,12.961,,0 / 21,,1468,2022-01-12 10:17:33:452
-0.6221,0.1217,9.7074,-0.4003,0.2582,9.7951,-0.2252,-0.058,-0.0022,-0.0059,0.0703,1.6724,7.95,-16.12,-36.82,203.36,-1.51,2.34,48.84384,2.353374,91.6,NaN,,12.961,,0 / 21,,1472,2022-01-12 10:17:33:456
-0.6221,0.1217,9.7074,-0.4003,0.2582,9.7951,-0.2252,-0.058,-0.0022,-0.0059,0.0703,1.6724,7.95,-16.12,-36.82,203.36,-1.51,2.34,48.84384,2.353374,91.6,NaN,,12.961,,0 / 21,,1479,2022-01-12 10:17:33:463
-0.4962,-0.0126,9.7325,-0.4003,0.2582,9.7951,-0.2252,-0.058,-0.0022,-0.0059,0.0703,1.6724,7.95,-16.12,-36.82,203.36,-1.51,2.34,48.84384,2.353374,91.6,NaN,,12.961,,0 / 21,,1482,2022-01-12 10:17:33:466
-0.4962,-0.0126,9.7325,-0.4003,0.2582,9.7951,-0.2252,-0.058,-0.0022,-0.0059,0.0703,1.6724,7.95,-16.12,-36.82,203.36,-1.51,2.34,48.84384,2.353374,91.6,NaN,,12.961,,0 / 21,,1489,2022-01-12 10:17:33:473
-0.4962,-0.0126,9.7325,-0.4003,0.2582,9.7951,-0.2252,-0.058,-0.0022,-0.0059,0.0703,1.6724,7.95,-16.12,-36.82,203.36,-1.51,2.34,48.84384,2.353374,91.6,NaN,,12.961,,0 / 21,,1494,2022-01-12 10:17:33:478
-0.4962,-0.0126,9.7325,-0.4003,0.2582,9.7951,-0.2252,-0.058,-0.0022,-0.0059,0.0703,1.6724,7.95,-16.12,-36.82,203.36,-1.51,2.34,48.84384,2.353374,91.6,NaN,,12.961,,0 / 21,,1497,2022-01-12 10:17:33:481
-0.4962,-0.0126,9.7325,-0.4003,0.2582,9.7951,-0.2252,-0.058,-0.0022,-0.0059,0.0703,1.6724,7.95,-16.12,-36.82,203.36,-1.51,2.34,48.84384,2.353374,91.6,NaN,,12.961,,0 / 21,,1504,2022-01-12 10:17:33:488
-0.4962,-0.0126,9.7325,-0.4003,0.2582,9.7951,-0.2252,-0.058,-0.0022,-0.0059,0.0703,1.6724,7.95,-16.12,-36.82,203.36,-1.51,2.34,48.84384,2.353374,91.6,NaN,,12.961,,0 / 21,,1507,2022-01-12 10:17:33:491
-0.4962,-0.0126,9.7325,-0.4003,0.2582,9.7951,-0.2252,-0.058,-0.0022,-0.0059,0.0703,1.6724,7.95,-16.12,-36.82,203.36,-1.51,2.34,48.84384,2.353374,91.6,NaN,,12.961,,0 / 21,,1513,2022-01-12 10:17:33:497
-0.4962,-0.0126,9.7325,-0.4003,0.2582,9.7951,-0.2252,-0.058,-0.0022,-0.0059,0.0703,1.6724,7.95,-16.12,-36.82,203.36,-1.51,2.34,48.84384,2.353374,91.6,NaN,,12.961,,0 / 21,,1518,2022-01-12 10:17:33:502
-0.4962,-0.0126,9.7325,-0.4003,0.2582,9.7951,-0.2252,-0.058,-0.0022,-0.0059,0.0703,1.6724,7.95,-16.12,-36.82,203.36,-1.51,2.34,48.84384,2.353374,91.6,NaN,,12.961,,0 / 21,,1523,2022-01-12 10:17:33:507
-0.4962,-0.0126,9.7325,-0.4003,0.2582,9.7951,-0.2252,-0.058,-0.0022,-0.0059,0.0703,1.6724,7.95,-16.12,-36.82,203.36,-1.51,2.34,48.84384,2.353374,91.6,NaN,,12.961,,0 / 21,,1527,2022-01-12 10:17:33:511
-0.4962,-0.0126,9.7325,-0.4003,0.2582,9.7951,-0.2252,-0.058,-0.0022,-0.0059,0.0703,1.6724,7.95,-16.12,-36.82,203.36,-1.51,2.34,48.84384,2.353374,91.6,NaN,,12.961,,0 / 21,,1533,2022-01-12 10:17:33:517
-0.4962,-0.0126,9.7325,-0.4003,0.2582,9.7951,-0.2252,-0.058,-0.0022,-0.0059,0.0703,1.6724,7.95,-16.12,-36.82,203.36,-1.51,2.34,48.84384,2.353374,91.6,NaN,,12.961,,0 / 21,,1538,2022-01-12 10:17:33:522
-3.0E-4,6.0E-4,9.7337,-0.4811,0.2837,9.7907,-0.2976,-0.3021,-0.0096,-0.0059,0.0703,1.6724,7.95,-16.12,-36.82,203.36,-1.51,2.34,48.84384,2.353374,91.6,NaN,,12.961,,0 / 21,,1543,2022-01-12 10:17:33:527
-3.0E-4,6.0E-4,9.7337,-0.4811,0.2837,9.7907,-0.2976,-0.3021,-0.0096,-0.0059,0.0703,1.6724,7.95,-16.12,-36.82,203.36,-1.51,2.34,48.84384,2.353374,91.6,NaN,,12.961,,0 / 21,,1548,2022-01-12 10:17:33:532
-3.0E-4,6.0E-4,9.7337,-0.4811,0.2837,9.7907,-0.2976,-0.3021,-0.0096,-0.0059,0.0703,1.6724,7.95,-16.12,-36.82,203.36,-1.51,2.34,48.84384,2.353374,91.6,NaN,,12.961,,0 / 21,,1553,2022-01-12 10:17:33:537
-3.0E-4,6.0E-4,9.7337,-0.4811,0.2837,9.7907,-0.2976,-0.3021,-0.0096,-0.0059,0.0703,1.6724,6.9,-16.12,-36.82,199.14,-1.66,2.81,48.84384,2.353374,91.6,NaN,,12.961,,0 / 21,,1558,2022-01-12 10:17:33:542
-3.0E-4,6.0E-4,9.7337,-0.4811,0.2837,9.7907,-0.2976,-0.3021,-0.0096,-0.0059,0.0703,1.6724,6.9,-16.12,-36.82,199.14,-1.66,2.81,48.84384,2.353374,91.6,NaN,,12.961,,0 / 21,,1564,2022-01-12 10:17:33:548
-3.0E-4,6.0E-4,9.7337,-0.4811,0.2837,9.7907,-0.2976,-0.3021,-0.0096,-0.0059,0.0703,1.6724,6.9,-16.12,-36.82,199.14,-1.66,2.81,48.84384,2.353374,91.6,NaN,,12.961,,0 / 21,,1568,2022-01-12 10:17:33:552
-3.0E-4,6.0E-4,9.7337,-0.4811,0.2837,9.7907,-0.2976,-0.3021,-0.0096,-0.0059,0.0703,1.6724,6.9,-16.12,-36.82,199.14,-1.66,2.81,48.84384,2.353374,91.6,NaN,,12.961,,0 / 21,,1573,2022-01-12 10:17:33:557
-3.0E-4,6.0E-4,9.7337,-0.4811,0.2837,9.7907,-0.2976,-0.3021,-0.0096,-0.0059,0.0703,1.6724,6.9,-16.12,-36.82,199.14,-1.66,2.81,48.84384,2.353374,91.6,NaN,,12.961,,0 / 21,,1577,2022-01-12 10:17:33:561
-3.0E-4,6.0E-4,9.7337,-0.4811,0.2837,9.7907,-0.2976,-0.3021,-0.0096,-0.0059,0.0703,1.6724,6.9,-16.12,-36.82,199.14,-1.66,2.81,48.84384,2.353374,91.6,NaN,,12.961,,0 / 21,,1583,2022-01-12 10:17:33:567
-3.0E-4,6.0E-4,9.7337,-0.4811,0.2837,9.7907,-0.2976,-0.3021,-0.0096,-0.0059,0.0703,1.6724,6.9,-16.12,-36.82,199.14,-1.66,2.81,48.84384,2.353374,91.6,NaN,,12.961,,0 / 21,,1588,2022-01-12 10:17:33:572
-3.0E-4,6.0E-4,9.7337,-0.4811,0.2837,9.7907,-0.2976,-0.3021,-0.0096,-0.017,0.0065,1.6375,6.9,-16.12,-36.82,199.14,-1.66,2.81,48.84384,2.353374,91.6,NaN,,12.961,,0 / 21,,1593,2022-01-12 10:17:33:577
-3.0E-4,6.0E-4,9.7337,-0.4811,0.2837,9.7907,-0.2976,-0.3021,-0.0096,-0.017,0.0065,1.6375,6.9,-16.12,-36.82,199.14,-1.66,2.81,48.84384,2.353374,91.6,NaN,,12.961,,0 / 21,,1598,2022-01-12 10:17:33:582
-3.0E-4,6.0E-4,9.7337,-0.4811,0.2837,9.7907,-0.2976,-0.3021,-0.0096,-0.017,0.0065,1.6375,6.9,-16.12,-36.82,199.14,-1.66,2.81,48.84384,2.353374,91.6,NaN,,12.961,,0 / 21,,1603,2022-01-12 10:17:33:587
-3.0E-4,6.0E-4,9.7337,-0.4811,0.2837,9.7907,-0.2976,-0.3021,-0.0096,-0.017,0.0065,1.6375,6.9,-16.12,-36.82,199.14,-1.66,2.81,48.84384,2.353374,91.6,NaN,,12.961,,0 / 21,,1607,2022-01-12 10:17:33:591
-0.3117,-0.1119,9.7002,-0.4096,0.2876,9.7939,0.3346,-0.2572,0.0118,-0.017,0.0065,1.6375,6.9,-16.12,-36.82,199.14,-1.66,2.81,48.84384,2.353374,91.6,NaN,,12.961,,0 / 21,,1613,2022-01-12 10:17:33:597
-0.3117,-0.1119,9.7002,-0.4096,0.2876,9.7939,0.3346,-0.2572,0.0118,-0.017,0.0065,1.6375,6.9,-16.12,-36.82,199.14,-1.66,2.81,48.84384,2.353374,91.6,NaN,,12.961,,0 / 21,,1618,2022-01-12 10:17:33:602
-0.3117,-0.1119,9.7002,-0.4096,0.2876,9.7939,0.3346,-0.2572,0.0118,-0.017,0.0065,1.6375,6.9,-16.12,-36.82,199.14,-1.66,2.81,48.84384,2.353374,91.6,NaN,,12.961,,0 / 21,,1623,2022-01-12 10:17:33:607
-0.3117,-0.1119,9.7002,-0.4096,0.2876,9.7939,0.3346,-0.2572,0.0118,-0.017,0.0065,1.6375,6.9,-16.12,-36.82,199.14,-1.66,2.81,48.84384,2.353374,91.6,NaN,,12.961,,0 / 21,,1628,2022-01-12 10:17:33:612
-0.3117,-0.1119,9.7002,-0.4096,0.2876,9.7939,0.3346,-0.2572,0.0118,-0.017,0.0065,1.6375,6.9,-16.12,-36.82,199.14,-1.66,2.81,48.84384,2.353374,91.6,NaN,,12.961,,0 / 21,,1632,2022-01-12 10:17:33:616
-0.3117,-0.1119,9.7002,-0.4096,0.2876,9.7939,0.3346,-0.2572,0.0118,-0.017,0.0065,1.6375,6.9,-16.12,-36.82,199.14,-1.66,2.81,48.84384,2.353374,91.6,NaN,,12.961,,0 / 21,,1638,2022-01-12 10:17:33:622
-0.3117,-0.1119,9.7002,-0.4096,0.2876,9.7939,0.3346,-0.2572,0.0118,-0.017,0.0065,1.6375,6.9,-16.12,-36.82,199.14,-1.66,2.81,48.84384,2.353374,91.6,NaN,,12.961,,0 / 21,,1643,2022-01-12 10:17:33:627
-0.3117,-0.1119,9.7002,-0.4096,0.2876,9.7939,0.3346,-0.2572,0.0118,-0.017,0.0065,1.6375,6.9,-16.12,-36.82,199.14,-1.66,2.81,48.84384,2.353374,91.6,NaN,,12.961,,0 / 21,,1648,2022-01-12 10:17:33:632
-0.3117,-0.1119,9.7002,-0.4096,0.2876,9.7939,0.3346,-0.2572,0.0118,-0.017,0.0065,1.6375,3.98,-16.12,-37.05,189.34,-1.68,2.39,48.84384,2.353374,91.6,NaN,,12.961,,0 / 21,,1653,2022-01-12 10:17:33:637
-0.3117,-0.1119,9.7002,-0.4096,0.2876,9.7939,0.3346,-0.2572,0.0118,-0.017,0.0065,1.6375,3.98,-16.12,-37.05,189.34,-1.68,2.39,48.84384,2.353374,91.6,NaN,,12.961,,0 / 21,,1659,2022-01-12 10:17:33:643
-0.3117,-0.1119,9.7002,-0.4096,0.2876,9.7939,0.3346,-0.2572,0.0118,-0.017,0.0065,1.6375,3.98,-16.12,-37.05,189.34,-1.68,2.39,48.84384,2.353374,91.6,NaN,,12.961,,0 / 21,,1662,2022-01-12 10:17:33:646
-0.3117,-0.1119,9.7002,-0.4096,0.2876,9.7939,0.3346,-0.2572,0.0118,-0.017,0.0065,1.6375,3.98,-16.12,-37.05,189.34,-1.68,2.39,48.84384,2.353374,91.6,NaN,,12.961,,0 / 21,,1669,2022-01-12 10:17:33:653
-0.3117,-0.1119,9.7002,-0.4096,0.2876,9.7939,0.3346,-0.2572,0.0118,-0.017,0.0065,1.6375,3.98,-16.12,-37.05,189.34,-1.68,2.39,48.84384,2.353374,91.6,NaN,,12.961,,0 / 21,,1673,2022-01-12 10:17:33:657
-0.3117,-0.1119,9.7002,-0.4096,0.2876,9.7939,0.3346,-0.2572,0.0118,-0.017,0.0065,1.6375,3.98,-16.12,-37.05,189.34,-1.68,2.39,48.84384,2.353374,91.6,NaN,,12.961,,0 / 21,,1677,2022-01-12 10:17:33:661
-0.3117,-0.1119,9.7002,-0.4096,0.2876,9.7939,0.3346,-0.2572,0.0118,-0.017,0.0065,1.6375,3.98,-16.12,-37.05,189.34,-1.68,2.39,48.84384,2.353374,91.6,NaN,,12.961,,0 / 21,,1683,2022-01-12 10:17:33:667
-0.3117,-0.1119,9.7002,-0.4096,0.2876,9.7939,0.3346,-0.2572,0.0118,-0.017,0.0065,1.6375,3.98,-16.12,-37.05,189.34,-1.68,2.39,48.84384,2.353374,91.6,NaN,,12.961,,0 / 21,,1688,2022-01-12 10:17:33:672
-0.3117,-0.1119,9.7002,-0.4096,0.2876,9.7939,0.3346,-0.2572,0.0118,-0.017,0.0065,1.6375,3.98,-16.12,-37.05,189.34,-1.68,2.39,48.84384,2.353374,91.6,NaN,,12.961,,0 / 21,,1693,2022-01-12 10:17:33:677
-0.3117,-0.1119,9.7002,-0.4096,0.2876,9.7939,0.3346,-0.2572,0.0118,-0.017,0.0065,1.6375,3.98,-16.12,-37.05,189.34,-1.68,2.39,48.84384,2.353374,91.6,NaN,,12.961,,0 / 21,,1699,2022-01-12 10:17:33:683
-0.3117,-0.1119,9.7002,-0.4096,0.2876,9.7939,0.3346,-0.2572,0.0118,-0.017,0.0065,1.6375,3.98,-16.12,-37.05,189.34,-1.68,2.39,48.84384,2.353374,91.6,NaN,,12.961,,0 / 21,,1703,2022-01-12 10:17:33:687
-0.3117,-0.1119,9.7002,-0.4096,0.2876,9.7939,0.3346,-0.2572,0.0118,-0.017,0.0065,1.6375,3.98,-16.12,-37.05,189.34,-1.68,2.39,48.84384,2.353374,91.6,NaN,,12.961,,0 / 21,,1708,2022-01-12 10:17:33:692
-0.3117,-0.1119,9.7002,-0.4096,0.2876,9.7939,0.3346,-0.2572,0.0118,-0.017,0.0065,1.6375,3.98,-16.12,-37.05,189.34,-1.68,2.39,48.84384,2.353374,91.6,NaN,,12.961,,0 / 21,,1713,2022-01-12 10:17:33:697
-0.3117,-0.1119,9.7002,-0.4096,0.2876,9.7939,0.3346,-0.2572,0.0118,-0.017,0.0065,1.6375,3.98,-16.12,-37.05,189.34,-1.68,2.39,48.84384,2.353374,91.6,NaN,,12.961,,0 / 21,,1718,2022-01-12 10:17:33:702
-0.2004,-0.07,9.705,-0.4096,0.2876,9.7939,0.3346,-0.2572,0.0118,-0.017,0.0065,1.6375,3.98,-16.12,-37.05,189.34,-1.68,2.39,48.84384,2.353374,91.6,NaN,,12.961,,0 / 21,,1723,2022-01-12 10:17:33:707
-0.2004,-0.07,9.705,-0.343,0.2628,9.7971,0.1523,-0.2761,0.0038,-0.016,0.032,1.6004,3.98,-16.12,-37.05,189.34,-1.68,2.39,48.84384,2.353374,91.6,NaN,,12.961,,0 / 21,,1727,2022-01-12 10:17:33:711
-0.2004,-0.07,9.705,-0.343,0.2628,9.7971,0.1523,-0.2761,0.0038,-0.016,0.032,1.6004,3.98,-16.12,-37.05,189.34,-1.68,2.39,48.84384,2.353374,91.6,NaN,,12.961,,0 / 21,,1732,2022-01-12 10:17:33:716
-0.2004,-0.07,9.705,-0.343,0.2628,9.7971,0.1523,-0.2761,0.0038,-0.016,0.032,1.6004,3.98,-16.12,-37.05,189.34,-1.68,2.39,48.84384,2.353374,91.6,NaN,,12.961,,0 / 21,,1738,2022-01-12 10:17:33:722
-0.2004,-0.07,9.705,-0.343,0.2628,9.7971,0.1523,-0.2761,0.0038,-0.016,0.032,1.6004,3.98,-16.12,-37.05,189.34,-1.68,2.39,48.84384,2.353374,91.6,NaN,,12.961,,0 / 21,,1743,2022-01-12 10:17:33:727
-0.2004,-0.07,9.705,-0.343,0.2628,9.7971,0.1523,-0.2761,0.0038,-0.016,0.032,1.6004,3.98,-16.12,-37.05,189.34,-1.68,2.39,48.84384,2.353374,91.6,NaN,,12.961,,0 / 21,,1748,2022-01-12 10:17:33:732
-0.2004,-0.07,9.705,-0.343,0.2628,9.7971,0.1523,-0.2761,0.0038,-0.016,0.032,1.6004,2.4,-15.83,-37.28,182.69,-1.54,2.01,48.84384,2.353374,91.6,NaN,,12.961,,0 / 21,,1753,2022-01-12 10:17:33:737
-0.2004,-0.07,9.705,-0.343,0.2628,9.7971,0.1523,-0.2761,0.0038,-0.016,0.032,1.6004,2.4,-15.83,-37.28,182.69,-1.54,2.01,48.84384,2.353374,91.6,NaN,,12.961,,0 / 21,,1758,2022-01-12 10:17:33:742
-0.2004,-0.07,9.705,-0.343,0.2628,9.7971,0.1523,-0.2761,0.0038,-0.016,0.032,1.6004,2.4,-15.83,-37.28,182.69,-1.54,2.01,48.84384,2.353374,91.6,NaN,,12.961,,0 / 21,,1763,2022-01-12 10:17:33:747
-0.2004,-0.07,9.705,-0.343,0.2628,9.7971,0.1523,-0.2761,0.0038,-0.016,0.032,1.6004,2.4,-15.83,-37.28,182.69,-1.54,2.01,48.84384,2.353374,91.6,NaN,,12.961,,0 / 21,,1767,2022-01-12 10:17:33:751
-0.2004,-0.07,9.705,-0.343,0.2628,9.7971,0.1523,-0.2761,0.0038,-0.016,0.032,1.6004,2.4,-15.83,-37.28,182.69,-1.54,2.01,48.84384,2.353374,91.6,NaN,,12.961,,0 / 21,,1773,2022-01-12 10:17:33:757
-0.2004,-0.07,9.705,-0.343,0.2628,9.7971,0.1523,-0.2761,0.0038,-0.016,0.032,1.6004,2.4,-15.83,-37.28,182.69,-1.54,2.01,48.84384,2.353374,91.6,NaN,,12.961,,0 / 21,,1779,2022-01-12 10:17:33:763
-0.2004,-0.07,9.705,-0.343,0.2628,9.7971,0.1523,-0.2761,0.0038,-0.016,0.032,1.6004,2.4,-15.83,-37.28,182.69,-1.54,2.01,48.84384,2.353374,91.6,NaN,,12.961,,0 / 21,,1783,2022-01-12 10:17:33:767
-0.3117,0.3625,9.687,-0.3338,0.2512,9.7977,0.1523,-0.2761,0.0038,-0.016,0.032,1.6004,2.4,-15.83,-37.28,182.69,-1.54,2.01,48.84384,2.353374,91.6,NaN,,12.961,,0 / 21,,1788,2022-01-12 10:17:33:772
-0.3117,0.3625,9.687,-0.3338,0.2512,9.7977,-0.0446,-0.2734,3.0E-4,-0.016,0.032,1.6004,2.4,-15.83,-37.28,182.69,-1.54,2.01,48.84384,2.353374,91.6,NaN,,12.961,,0 / 21,,1793,2022-01-12 10:17:33:777
-0.3117,0.3625,9.687,-0.3338,0.2512,9.7977,-0.0446,-0.2734,3.0E-4,-0.016,0.032,1.6004,2.4,-15.83,-37.28,182.69,-1.54,2.01,48.84384,2.353374,91.6,NaN,,12.961,,0 / 21,,1798,2022-01-12 10:17:33:782
-0.3117,0.3625,9.687,-0.3338,0.2512,9.7977,-0.0446,-0.2734,3.0E-4,-0.016,0.032,1.6004,2.4,-15.83,-37.28,182.69,-1.54,2.01,48.84384,2.353374,91.6,NaN,,12.961,,0 / 21,,1803,2022-01-12 10:17:33:787
-0.3117,0.3625,9.687,-0.3338,0.2512,9.7977,-0.0446,-0.2734,3.0E-4,-0.016,0.032,1.6004,2.4,-15.83,-37.28,182.69,-1.54,2.01,48.84384,2.353374,91.6,NaN,,12.961,,0 / 21,,1808,2022-01-12 10:17:33:792
-0.3117,0.3625,9.687,-0.3338,0.2512,9.7977,-0.0446,-0.2734,3.0E-4,-0.016,0.032,1.6004,2.4,-15.83,-37.28,182.69,-1.54,2.01,48.84384,2.353374,91.6,NaN,,12.961,,0 / 21,,1812,2022-01-12 10:17:33:796
-0.3117,0.3625,9.687,-0.3338,0.2512,9.7977,-0.0446,-0.2734,3.0E-4,-0.016,0.032,1.6004,2.4,-15.83,-37.28,182.69,-1.54,2.01,48.84384,2.353374,91.6,NaN,,12.961,,0 / 21,,1818,2022-01-12 10:17:33:802
-0.3117,0.3625,9.687,-0.3338,0.2512,9.7977,-0.0446,-0.2734,3.0E-4,-0.016,0.032,1.6004,2.4,-15.83,-37.28,182.69,-1.54,2.01,48.84384,2.353374,91.6,NaN,,12.961,,0 / 21,,1823,2022-01-12 10:17:33:807
-0.3117,0.3625,9.687,-0.3338,0.2512,9.7977,-0.0446,-0.2734,3.0E-4,-0.016,0.032,1.6004,2.4,-15.83,-37.28,182.69,-1.54,2.01,48.84384,2.353374,91.6,NaN,,12.961,,0 / 21,,1829,2022-01-12 10:17:33:813
-0.3117,0.3625,9.687,-0.3338,0.2512,9.7977,-0.0446,-0.2734,3.0E-4,-0.016,0.032,1.6004,2.4,-15.83,-37.28,182.69,-1.54,2.01,48.84384,2.353374,91.6,NaN,,12.961,,0 / 21,,1833,2022-01-12 10:17:33:817
-0.3117,0.3625,9.687,-0.3338,0.2512,9.7977,-0.0446,-0.2734,3.0E-4,-0.016,0.032,1.6004,2.4,-15.83,-37.28,182.69,-1.54,2.01,48.84384,2.353374,91.6,NaN,,12.961,,0 / 21,,1838,2022-01-12 10:17:33:822
-0.3117,0.3625,9.687,-0.3338,0.2512,9.7977,-0.0446,-0.2734,3.0E-4,-0.016,0.032,1.6004,2.4,-15.83,-37.28,182.69,-1.54,2.01,48.84384,2.353374,91.6,NaN,,12.961,,0 / 21,,1843,2022-01-12 10:17:33:827
-0.3117,0.3625,9.687,-0.3338,0.2512,9.7977,-0.0446,-0.2734,3.0E-4,-0.016,0.032,1.6004,2.4,-15.83,-37.28,182.69,-1.54,2.01,48.84384,2.353374,91.6,NaN,,12.961,,0 / 21,,1849,2022-01-12 10:17:33:833
-0.3284,0.2163,9.7349,-0.3338,0.2512,9.7977,-0.0446,-0.2734,3.0E-4,-0.016,0.032,1.6004,-0.75,-15.22,-37.73,170.71,-1.47,1.95,48.84384,2.353374,91.6,NaN,,12.961,,0 / 21,,1853,2022-01-12 10:17:33:837
-0.3284,0.2163,9.7349,-0.319,0.281,9.7974,0.0358,0.1079,-0.005,-0.0109,0.0166,1.126,-0.75,-15.22,-37.73,170.71,-1.47,1.95,48.84384,2.353374,91.6,NaN,,12.961,,0 / 21,,1859,2022-01-12 10:17:33:843
-0.3284,0.2163,9.7349,-0.319,0.281,9.7974,0.0358,0.1079,-0.005,-0.0109,0.0166,1.126,-0.75,-15.22,-37.73,170.71,-1.47,1.95,48.84384,2.353374,91.6,NaN,,12.961,,0 / 21,,1863,2022-01-12 10:17:33:847
-0.3284,0.2163,9.7349,-0.319,0.281,9.7974,0.0358,0.1079,-0.005,-0.0109,0.0166,1.126,-0.75,-15.22,-37.73,170.71,-1.47,1.95,48.84384,2.353374,91.6,NaN,,12.961,,0 / 21,,1868,2022-01-12 10:17:33:852
-0.3284,0.2163,9.7349,-0.319,0.281,9.7974,0.0358,0.1079,-0.005,-0.0109,0.0166,1.126,-0.75,-15.22,-37.73,170.71,-1.47,1.95,48.84384,2.353374,91.6,NaN,,12.961,,0 / 21,,1873,2022-01-12 10:17:33:857
-0.3284,0.2163,9.7349,-0.319,0.281,9.7974,0.0358,0.1079,-0.005,-0.0109,0.0166,1.126,-0.75,-15.22,-37.73,170.71,-1.47,1.95,48.84384,2.353374,91.6,NaN,,12.961,,0 / 21,,1878,2022-01-12 10:17:33:862
-0.3284,0.2163,9.7349,-0.319,0.281,9.7974,0.0358,0.1079,-0.005,-0.0109,0.0166,1.126,-0.75,-15.22,-37.73,170.71,-1.47,1.95,48.84384,2.353374,91.6,NaN,,12.961,,0 / 21,,1884,2022-01-12 10:17:33:868
-0.3284,0.2163,9.7349,-0.319,0.281,9.7974,0.0358,0.1079,-0.005,-0.0109,0.0166,1.126,-0.75,-15.22,-37.73,170.71,-1.47,1.95,48.84384,2.353374,91.6,NaN,,12.961,,0 / 21,,1888,2022-01-12 10:17:33:872
-0.3284,0.2163,9.7349,-0.319,0.281,9.7974,0.0358,0.1079,-0.005,-0.0109,0.0166,1.126,-0.75,-15.22,-37.73,170.71,-1.47,1.95,48.84384,2.353374,91.6,NaN,,12.961,,0 / 21,,1892,2022-01-12 10:17:33:876
-0.3284,0.2163,9.7349,-0.319,0.281,9.7974,0.0358,0.1079,-0.005,-0.0109,0.0166,1.126,-0.75,-15.22,-37.73,170.71,-1.47,1.95,48.84384,2.353374,91.6,NaN,,12.961,,0 / 21,,1898,2022-01-12 10:17:33:882
-0.3284,0.2163,9.7349,-0.319,0.281,9.7974,0.0358,0.1079,-0.005,-0.0109,0.0166,1.126,-0.75,-15.22,-37.73,170.71,-1.47,1.95,48.84384,2.353374,91.6,NaN,,12.961,,0 / 21,,1903,2022-01-12 10:17:33:887
-0.3284,0.2163,9.7349,-0.319,0.281,9.7974,0.0358,0.1079,-0.005,-0.0109,0.0166,1.126,-0.75,-15.22,-37.73,170.71,-1.47,1.95,48.84384,2.353374,91.6,NaN,,12.961,,0 / 21,,1909,2022-01-12 10:17:33:893
-0.3284,0.2163,9.7349,-0.319,0.281,9.7974,0.0358,0.1079,-0.005,-0.0109,0.0166,1.126,-0.75,-15.22,-37.73,170.71,-1.47,1.95,48.84384,2.353374,91.6,NaN,,12.961,,0 / 21,,1912,2022-01-12 10:17:33:896
-0.3284,0.2163,9.7349,-0.319,0.281,9.7974,0.0358,0.1079,-0.005,-0.0109,0.0166,1.126,-0.75,-15.22,-37.73,170.71,-1.47,1.95,48.84384,2.353374,91.6,NaN,,12.961,,0 / 21,,1918,2022-01-12 10:17:33:902
-0.4005,-0.1035,9.7182,-0.3376,0.2789,9.7969,-0.2739,-0.1412,0.0072,-0.0109,0.0166,1.126,-0.75,-15.22,-37.73,170.71,-1.47,1.95,48.84384,2.353374,91.6,NaN,,12.961,,0 / 21,,1923,2022-01-12 10:17:33:907
-0.4005,-0.1035,9.7182,-0.3376,0.2789,9.7969,-0.2739,-0.1412,0.0072,-0.0109,0.0166,1.126,-0.75,-15.22,-37.73,170.71,-1.47,1.95,48.84384,2.353374,91.6,NaN,,12.961,,0 / 21,,1928,2022-01-12 10:17:33:912
-0.4005,-0.1035,9.7182,-0.3376,0.2789,9.7969,-0.2739,-0.1412,0.0072,-0.0109,0.0166,1.126,-0.75,-15.22,-37.73,170.71,-1.47,1.95,48.84384,2.353374,91.6,NaN,,12.961,,0 / 21,,1933,2022-01-12 10:17:33:917
-0.4005,-0.1035,9.7182,-0.3376,0.2789,9.7969,-0.2739,-0.1412,0.0072,-0.0109,0.0166,1.126,-0.75,-15.22,-37.73,170.71,-1.47,1.95,48.84384,2.353374,91.6,NaN,,12.961,,0 / 21,,1937,2022-01-12 10:17:33:921
-0.4005,-0.1035,9.7182,-0.3376,0.2789,9.7969,-0.2739,-0.1412,0.0072,-0.0109,0.0166,1.126,-0.75,-15.22,-37.73,170.71,-1.47,1.95,48.84384,2.353374,91.6,NaN,,12.961,,0 / 21,,1943,2022-01-12 10:17:33:927
-0.4005,-0.1035,9.7182,-0.3376,0.2789,9.7969,-0.2739,-0.1412,0.0072,-0.0109,0.0166,1.126,-0.75,-15.22,-37.73,170.71,-1.47,1.95,48.84384,2.353374,91.6,NaN,,12.961,,0 / 21,,1948,2022-01-12 10:17:33:932
-0.4005,-0.1035,9.7182,-0.3376,0.2789,9.7969,-0.2739,-0.1412,0.0072,-0.0109,0.0166,1.126,-2.4,-14.55,-38.18,166.63,-1.63,1.97,48.84384,2.353374,91.6,NaN,,12.961,,0 / 21,,1953,2022-01-12 10:17:33:937
-0.4005,-0.1035,9.7182,-0.3376,0.2789,9.7969,-0.2739,-0.1412,0.0072,-0.0109,0.0166,1.126,-2.4,-14.55,-38.18,166.63,-1.63,1.97,48.84384,2.353374,91.6,NaN,,12.961,,0 / 21,,1959,2022-01-12 10:17:33:943
-0.4005,-0.1035,9.7182,-0.3376,0.2789,9.7969,-0.2739,-0.1412,0.0072,-0.0109,0.0166,1.126,-2.4,-14.55,-38.18,166.63,-1.63,1.97,48.84384,2.353374,91.6,NaN,,12.961,,0 / 21,,1963,2022-01-12 10:17:33:947
-0.4005,-0.1035,9.7182,-0.3376,0.2789,9.7969,-0.2739,-0.1412,0.0072,-0.0109,0.0166,1.126,-2.4,-14.55,-38.18,166.63,-1.63,1.97,48.84384,2.353374,91.6,NaN,,12.961,,0 / 21,,1968,2022-01-12 10:17:33:952
-0.4005,-0.1035,9.7182,-0.3376,0.2789,9.7969,-0.2739,-0.1412,0.0072,-0.0109,0.0166,1.126,-2.4,-14.55,-38.18,166.63,-1.63,1.97,48.84384,2.353374,91.6,NaN,,12.961,,0 / 21,,1972,2022-01-12 10:17:33:956
-0.4005,-0.1035,9.7182,-0.3376,0.2789,9.7969,-0.2739,-0.1412,0.0072,-0.0109,0.0166,1.126,-2.4,-14.55,-38.18,166.63,-1.63,1.97,48.84384,2.353374,91.6,NaN,,12.961,,0 / 21,,1979,2022-01-12 10:17:33:963
-0.4005,-0.1035,9.7182,-0.3376,0.2789,9.7969,-0.2739,-0.1412,0.0072,-0.0109,0.0166,1.126,-2.4,-14.55,-38.18,166.63,-1.63,1.97,48.84384,2.353374,91.6,NaN,,12.961,,0 / 21,,1983,2022-01-12 10:17:33:967
-0.4759,0.2509,9.6775,-0.3376,0.2789,9.7969,-0.2739,-0.1412,0.0072,-0.0084,0.0138,0.918,-2.4,-14.55,-38.18,166.63,-1.63,1.97,48.84384,2.353374,91.6,NaN,,12.961,,0 / 21,,1988,2022-01-12 10:17:33:972
-0.4759,0.2509,9.6775,-0.3376,0.2789,9.7969,-0.2739,-0.1412,0.0072,-0.0084,0.0138,0.918,-2.4,-14.55,-38.18,166.63,-1.63,1.97,48.84384,2.353374,91.6,NaN,,12.961,,0 / 21,,1993,2022-01-12 10:17:33:977
-0.4759,0.2509,9.6775,-0.3376,0.2789,9.7969,-0.2739,-0.1412,0.0072,-0.0084,0.0138,0.918,-2.4,-14.55,-38.18,166.63,-1.63,1.97,48.84384,2.353374,91.6,NaN,,12.961,,0 / 21,,1999,2022-01-12 10:17:33:983
-0.4759,0.2509,9.6775,-0.3376,0.2789,9.7969,-0.2739,-0.1412,0.0072,-0.0084,0.0138,0.918,-2.4,-14.55,-38.18,166.63,-1.63,1.97,48.84384,2.353374,91.6,NaN,,12.961,,0 / 21,,2002,2022-01-12 10:17:33:986
-0.4759,0.2509,9.6775,-0.3376,0.2789,9.7969,-0.2739,-0.1412,0.0072,-0.0084,0.0138,0.918,-2.4,-14.55,-38.18,166.63,-1.63,1.97,48.84384,2.353374,91.6,NaN,,12.961,,0 / 21,,2008,2022-01-12 10:17:33:992
-0.4759,0.2509,9.6775,-0.3376,0.2789,9.7969,-0.2739,-0.1412,0.0072,-0.0084,0.0138,0.918,-2.4,-14.55,-38.18,166.63,-1.63,1.97,48.84384,2.353374,91.6,NaN,,12.961,,0 / 21,,2012,2022-01-12 10:17:33:996
-0.4759,0.2509,9.6775,-0.3376,0.2789,9.7969,-0.2739,-0.1412,0.0072,-0.0084,0.0138,0.918,-2.4,-14.55,-38.18,166.63,-1.63,1.97,48.84384,2.353374,91.6,NaN,,12.961,,0 / 21,,2018,2022-01-12 10:17:34:002
-0.4759,0.2509,9.6775,-0.3376,0.2789,9.7969,-0.2739,-0.1412,0.0072,-0.0084,0.0138,0.918,-2.4,-14.55,-38.18,166.63,-1.63,1.97,48.84384,2.353374,91.6,NaN,,12.961,,0 / 21,,2023,2022-01-12 10:17:34:007
-0.4759,0.2509,9.6775,-0.2918,0.2754,9.7984,0.1658,-0.0498,0.0072,-0.0084,0.0138,0.918,-2.4,-14.55,-38.18,166.63,-1.63,1.97,48.84384,2.353374,91.6,NaN,,12.961,,0 / 21,,2028,2022-01-12 10:17:34:012
-0.4759,0.2509,9.6775,-0.2918,0.2754,9.7984,0.1658,-0.0498,0.0072,-0.0084,0.0138,0.918,-2.4,-14.55,-38.18,166.63,-1.63,1.97,48.84384,2.353374,91.6,NaN,,12.961,,0 / 21,,2033,2022-01-12 10:17:34:017
-0.4759,0.2509,9.6775,-0.2918,0.2754,9.7984,0.1658,-0.0498,0.0072,-0.0084,0.0138,0.918,-2.4,-14.55,-38.18,166.63,-1.63,1.97,48.84384,2.353374,91.6,NaN,,12.961,,0 / 21,,2038,2022-01-12 10:17:34:022
-0.4759,0.2509,9.6775,-0.2918,0.2754,9.7984,0.1658,-0.0498,0.0072,-0.0084,0.0138,0.918,-2.4,-14.55,-38.18,166.63,-1.63,1.97,48.84384,2.353374,91.6,NaN,,12.961,,0 / 21,,2043,2022-01-12 10:17:34:027
-0.4759,0.2509,9.6775,-0.2918,0.2754,9.7984,0.1658,-0.0498,0.0072,-0.0084,0.0138,0.918,-5.02,-13.13,-39.15,152.64,-1.61,1.71,48.84384,2.353374,91.6,NaN,,12.961,,0 / 21,,2048,2022-01-12 10:17:34:032
-0.6099,-0.0269,9.6978,-0.2918,0.2754,9.7984,0.1658,-0.0498,0.0072,-0.0084,0.0138,0.918,-5.02,-13.13,-39.15,152.64,-1.61,1.71,48.84384,2.353374,91.6,NaN,,12.961,,0 / 21,,2053,2022-01-12 10:17:34:037
-0.6099,-0.0269,9.6978,-0.2918,0.2754,9.7984,0.1658,-0.0498,0.0072,-0.0084,0.0138,0.918,-5.02,-13.13,-39.15,152.64,-1.61,1.71,48.84384,2.353374,91.6,NaN,,12.961,,0 / 21,,2058,2022-01-12 10:17:34:042
-0.6099,-0.0269,9.6978,-0.2918,0.2754,9.7984,0.1658,-0.0498,0.0072,-0.0092,0.0111,0.8971,-5.02,-13.13,-39.15,152.64,-1.61,1.71,48.84384,2.353374,91.6,NaN,,12.961,,0 / 21,,2064,2022-01-12 10:17:34:048
-0.6099,-0.0269,9.6978,-0.2918,0.2754,9.7984,0.1658,-0.0498,0.0072,-0.0092,0.0111,0.8971,-5.02,-13.13,-39.15,152.64,-1.61,1.71,48.84384,2.353374,91.6,NaN,,12.961,,0 / 21,,2068,2022-01-12 10:17:34:052
-0.6099,-0.0269,9.6978,-0.2918,0.2754,9.7984,0.1658,-0.0498,0.0072,-0.0092,0.0111,0.8971,-5.02,-13.13,-39.15,152.64,-1.61,1.71,48.84384,2.353374,91.6,NaN,,12.961,,0 / 21,,2072,2022-01-12 10:17:34:056
-0.6099,-0.0269,9.6978,-0.2918,0.2754,9.7984,0.1658,-0.0498,0.0072,-0.0092,0.0111,0.8971,-5.02,-13.13,-39.15,152.64,-1.61,1.71,48.84384,2.353374,91.6,NaN,,12.961,,0 / 21,,2078,2022-01-12 10:17:34:062
-0.6099,-0.0269,9.6978,-0.2918,0.2754,9.7984,0.1658,-0.0498,0.0072,-0.0092,0.0111,0.8971,-5.02,-13.13,-39.15,152.64,-1.61,1.71,48.84384,2.353374,91.6,NaN,,12.961,,0 / 21,,2083,2022-01-12 10:17:34:067
-0.6099,-0.0269,9.6978,-0.2918,0.2754,9.7984,0.1658,-0.0498,0.0072,-0.0092,0.0111,0.8971,-5.02,-13.13,-39.15,152.64,-1.61,1.71,48.84384,2.353374,91.6,NaN,,12.961,,0 / 21,,2088,2022-01-12 10:17:34:072
-0.6099,-0.0269,9.6978,-0.2918,0.2754,9.7984,0.1658,-0.0498,0.0072,-0.0092,0.0111,0.8971,-5.02,-13.13,-39.15,152.64,-1.61,1.71,48.84384,2.353374,91.6,NaN,,12.961,,0 / 21,,2093,2022-01-12 10:17:34:077
-0.6099,-0.0269,9.6978,-0.3221,0.2746,9.7975,-0.3208,-0.0974,-0.0038,-0.0092,0.0111,0.8971,-5.02,-13.13,-39.15,152.64,-1.61,1.71,48.84384,2.353374,91.6,NaN,,12.961,,0 / 21,,2098,2022-01-12 10:17:34:082
-0.6099,-0.0269,9.6978,-0.3221,0.2746,9.7975,-0.3208,-0.0974,-0.0038,-0.0092,0.0111,0.8971,-5.02,-13.13,-39.15,152.64,-1.61,1.71,48.84384,2.353374,91.6,NaN,,12.961,,0 / 21,,2103,2022-01-12 10:17:34:087
-0.6099,-0.0269,9.6978,-0.3221,0.2746,9.7975,-0.3208,-0.0974,-0.0038,-0.0092,0.0111,0.8971,-5.02,-13.13,-39.15,152.64,-1.61,1.71,48.84384,2.353374,91.6,NaN,,12.961,,0 / 21,,2108,2022-01-12 10:17:34:092
-0.6099,-0.0269,9.6978,-0.3221,0.2746,9.7975,-0.3208,-0.0974,-0.0038,-0.0092,0.0111,0.8971,-5.02,-13.13,-39.15,152.64,-1.61,1.71,48.84384,2.353374,91.6,NaN,,12.961,,0 / 21,,2113,2022-01-12 10:17:34:097
-0.6099,-0.0269,9.6978,-0.3221,0.2746,9.7975,-0.3208,-0.0974,-0.0038,-0.0092,0.0111,0.8971,-5.02,-13.13,-39.15,152.64,-1.61,1.71,48.84384,2.353374,91.6,NaN,,12.961,,0 / 21,,2118,2022-01-12 10:17:34:102
-0.6099,-0.0269,9.6978,-0.3221,0.2746,9.7975,-0.3208,-0.0974,-0.0038,-0.0092,0.0111,0.8971,-5.02,-13.13,-39.15,152.64,-1.61,1.71,48.84384,2.353374,91.6,NaN,,12.961,,0 / 21,,2122,2022-01-12 10:17:34:106
-0.513,-0.0915,9.6966,-0.3221,0.2746,9.7975,-0.3208,-0.0974,-0.0038,-0.0092,0.0111,0.8971,-5.02,-13.13,-39.15,152.64,-1.61,1.71,48.84384,2.353374,91.6,NaN,,12.961,,0 / 21,,2128,2022-01-12 10:17:34:112
-0.513,-0.0915,9.6966,-0.3221,0.2746,9.7975,-0.3208,-0.0974,-0.0038,-0.0092,0.0111,0.8971,-5.02,-13.13,-39.15,152.64,-1.61,1.71,48.84384,2.353374,91.6,NaN,,12.961,,0 / 21,,2132,2022-01-12 10:17:34:116
-0.513,-0.0915,9.6966,-0.3221,0.2746,9.7975,-0.3208,-0.0974,-0.0038,-0.0092,0.0111,0.8971,-5.02,-13.13,-39.15,152.64,-1.61,1.71,48.84384,2.353374,91.6,NaN,,12.961,,0 / 21,,2138,2022-01-12 10:17:34:122
-0.513,-0.0915,9.6966,-0.3221,0.2746,9.7975,-0.3208,-0.0974,-0.0038,-0.013,0.0068,1.2459,-5.02,-13.13,-39.15,152.64,-1.61,1.71,48.84384,2.353374,91.6,NaN,,12.961,,0 / 21,,2142,2022-01-12 10:17:34:126
-0.513,-0.0915,9.6966,-0.3221,0.2746,9.7975,-0.3208,-0.0974,-0.0038,-0.013,0.0068,1.2459,-5.02,-13.13,-39.15,152.64,-1.61,1.71,48.84384,2.353374,91.6,NaN,,12.961,,0 / 21,,2149,2022-01-12 10:17:34:133
-0.513,-0.0915,9.6966,-0.3221,0.2746,9.7975,-0.3208,-0.0974,-0.0038,-0.013,0.0068,1.2459,-5.02,-13.13,-39.15,152.64,-1.61,1.71,48.84384,2.353374,91.6,NaN,,12.961,,0 / 21,,2153,2022-01-12 10:17:34:137
-0.513,-0.0915,9.6966,-0.3221,0.2746,9.7975,-0.3208,-0.0974,-0.0038,-0.013,0.0068,1.2459,-6.3,-12.45,-39.68,146.1,-1.6,1.88,48.84384,2.353374,91.6,NaN,,12.961,,0 / 21,,2158,2022-01-12 10:17:34:142
-0.513,-0.0915,9.6966,-0.3088,0.2632,9.7983,-0.0406,-0.2218,0.0032,-0.013,0.0068,1.2459,-6.3,-12.45,-39.68,146.1,-1.6,1.88,48.84384,2.353374,91.6,NaN,,12.961,,0 / 21,,2163,2022-01-12 10:17:34:147
-0.513,-0.0915,9.6966,-0.3088,0.2632,9.7983,-0.0406,-0.2218,0.0032,-0.013,0.0068,1.2459,-6.3,-12.45,-39.68,146.1,-1.6,1.88,48.84384,2.353374,91.6,NaN,,12.961,,0 / 21,,2167,2022-01-12 10:17:34:151
-0.513,-0.0915,9.6966,-0.3088,0.2632,9.7983,-0.0406,-0.2218,0.0032,-0.013,0.0068,1.2459,-6.3,-12.45,-39.68,146.1,-1.6,1.88,48.84384,2.353374,91.6,NaN,,12.961,,0 / 21,,2174,2022-01-12 10:17:34:158
-0.513,-0.0915,9.6966,-0.3088,0.2632,9.7983,-0.0406,-0.2218,0.0032,-0.013,0.0068,1.2459,-6.3,-12.45,-39.68,146.1,-1.6,1.88,48.84384,2.353374,91.6,NaN,,12.961,,0 / 21,,2179,2022-01-12 10:17:34:163
-0.513,-0.0915,9.6966,-0.3088,0.2632,9.7983,-0.0406,-0.2218,0.0032,-0.013,0.0068,1.2459,-6.3,-12.45,-39.68,146.1,-1.6,1.88,48.84384,2.353374,91.6,NaN,,12.961,,0 / 21,,2183,2022-01-12 10:17:34:167
-0.513,-0.0915,9.6966,-0.3088,0.2632,9.7983,-0.0406,-0.2218,0.0032,-0.013,0.0068,1.2459,-6.3,-12.45,-39.68,146.1,-1.6,1.88,48.84384,2.353374,91.6,NaN,,12.961,,0 / 21,,2188,2022-01-12 10:17:34:172
-0.4304,0.1564,9.7122,-0.3088,0.2632,9.7983,-0.0406,-0.2218,0.0032,-0.013,0.0068,1.2459,-6.3,-12.45,-39.68,146.1,-1.6,1.88,48.84384,2.353374,91.6,NaN,,12.961,,0 / 21,,2194,2022-01-12 10:17:34:178
-0.4304,0.1564,9.7122,-0.3088,0.2632,9.7983,-0.0406,-0.2218,0.0032,-0.013,0.0068,1.2459,-6.3,-12.45,-39.68,146.1,-1.6,1.88,48.84384,2.353374,91.6,NaN,,12.961,,0 / 21,,2198,2022-01-12 10:17:34:182
-0.4304,0.1564,9.7122,-0.3088,0.2632,9.7983,-0.0406,-0.2218,0.0032,-0.013,0.0068,1.2459,-6.3,-12.45,-39.68,146.1,-1.6,1.88,48.84384,2.353374,91.6,NaN,,12.961,,0 / 21,,2203,2022-01-12 10:17:34:187
-0.4304,0.1564,9.7122,-0.3088,0.2632,9.7983,-0.0406,-0.2218,0.0032,-0.013,0.0068,1.2459,-6.3,-12.45,-39.68,146.1,-1.6,1.88,48.84384,2.353374,91.6,NaN,,12.961,,0 / 21,,2208,2022-01-12 10:17:34:192
-0.4304,0.1564,9.7122,-0.3088,0.2632,9.7983,-0.0406,-0.2218,0.0032,-0.013,0.0068,1.2459,-6.3,-12.45,-39.68,146.1,-1.6,1.88,48.84384,2.353374,91.6,NaN,,12.961,,0 / 21,,2213,2022-01-12 10:17:34:197
-0.4304,0.1564,9.7122,-0.3088,0.2632,9.7983,-0.0406,-0.2218,0.0032,-0.013,0.0068,1.2459,-6.3,-12.45,-39.68,146.1,-1.6,1.88,48.84384,2.353374,91.6,NaN,,12.961,,0 / 21,,2218,2022-01-12 10:17:34:202
-0.4304,0.1564,9.7122,-0.3088,0.2632,9.7983,-0.0406,-0.2218,0.0032,-0.013,0.0068,1.2459,-6.3,-12.45,-39.68,146.1,-1.6,1.88,48.84384,2.353374,91.6,NaN,,12.961,,0 / 21,,2223,2022-01-12 10:17:34:207
-0.4304,0.1564,9.7122,-0.3088,0.2632,9.7983,-0.0406,-0.2218,0.0032,-0.013,0.0068,1.2459,-6.3,-12.45,-39.68,146.1,-1.6,1.88,48.84384,2.353374,91.6,NaN,,12.961,,0 / 21,,2228,2022-01-12 10:17:34:212
-0.4304,0.1564,9.7122,-0.3088,0.2632,9.7983,-0.0406,-0.2218,0.0032,-0.013,0.0068,1.2459,-6.3,-12.45,-39.68,146.1,-1.6,1.88,48.84384,2.353374,91.6,NaN,,12.961,,0 / 21,,2233,2022-01-12 10:17:34:217
-0.4304,0.1564,9.7122,-0.3088,0.2632,9.7983,-0.0406,-0.2218,0.0032,-0.013,0.0068,1.2459,-6.3,-12.45,-39.68,146.1,-1.6,1.88,48.84384,2.353374,91.6,NaN,,12.961,,0 / 21,,2238,2022-01-12 10:17:34:222
-0.4304,0.1564,9.7122,-0.3088,0.2632,9.7983,-0.0406,-0.2218,0.0032,-0.013,0.0068,1.2459,-6.3,-12.45,-39.68,146.1,-1.6,1.88,48.84384,2.353374,91.6,NaN,,12.961,,0 / 21,,2243,2022-01-12 10:17:34:227
-0.0637,-0.0293,9.7098,-0.3088,0.2632,9.7983,-0.0406,-0.2218,0.0032,-0.013,0.0068,1.2459,-8.62,-9.98,-40.73,130.88,-1.54,1.8,48.84384,2.353374,91.6,NaN,,12.961,,0 / 21,,2249,2022-01-12 10:17:34:233
-0.0637,-0.0293,9.7098,-0.3088,0.2632,9.7983,-0.0406,-0.2218,0.0032,-0.013,0.0068,1.2459,-8.62,-9.98,-40.73,130.88,-1.54,1.8,48.84384,2.353374,91.6,NaN,,12.961,,0 / 21,,2253,2022-01-12 10:17:34:237
-0.0637,-0.0293,9.7098,-0.3088,0.2632,9.7983,-0.0406,-0.2218,0.0032,-0.013,0.0068,1.2459,-8.62,-9.98,-40.73,130.88,-1.54,1.8,48.84384,2.353374,91.6,NaN,,12.961,,0 / 21,,2258,2022-01-12 10:17:34:242
-0.0637,-0.0293,9.7098,-0.3088,0.2632,9.7983,-0.0406,-0.2218,0.0032,-0.0161,-0.0133,1.7562,-8.62,-9.98,-40.73,130.88,-1.54,1.8,48.84384,2.353374,91.6,NaN,,12.961,,0 / 21,,2262,2022-01-12 10:17:34:246
-0.0637,-0.0293,9.7098,-0.3088,0.2632,9.7983,-0.0406,-0.2218,0.0032,-0.0161,-0.0133,1.7562,-8.62,-9.98,-40.73,130.88,-1.54,1.8,48.84384,2.353374,91.6,NaN,,12.961,,0 / 21,,2268,2022-01-12 10:17:34:252
-0.0637,-0.0293,9.7098,-0.3088,0.2632,9.7983,-0.0406,-0.2218,0.0032,-0.0161,-0.0133,1.7562,-8.62,-9.98,-40.73,130.88,-1.54,1.8,48.84384,2.353374,91.6,NaN,,12.961,,0 / 21,,2276,2022-01-12 10:17:34:260
-0.0637,-0.0293,9.7098,-0.3088,0.2632,9.7983,-0.0406,-0.2218,0.0032,-0.0161,-0.0133,1.7562,-8.62,-9.98,-40.73,130.88,-1.54,1.8,48.84384,2.353374,91.6,NaN,,12.961,,0 / 21,,2278,2022-01-12 10:17:34:262
-0.0637,-0.0293,9.7098,-0.3088,0.2632,9.7983,-0.0406,-0.2218,0.0032,-0.0161,-0.0133,1.7562,-8.62,-9.98,-40.73,130.88,-1.54,1.8,48.84384,2.353374,91.6,NaN,,12.961,,0 / 21,,2284,2022-01-12 10:17:34:268
-0.0637,-0.0293,9.7098,-0.3088,0.2632,9.7983,-0.0406,-0.2218,0.0032,-0.0161,-0.0133,1.7562,-8.62,-9.98,-40.73,130.88,-1.54,1.8,48.84384,2.353374,91.6,NaN,,12.961,,0 / 21,,2288,2022-01-12 10:17:34:272
-0.0637,-0.0293,9.7098,-0.2864,0.2484,9.7993,-0.0867,-0.1517,0.0049,-0.0161,-0.0133,1.7562,-8.62,-9.98,-40.73,130.88,-1.54,1.8,48.84384,2.353374,91.6,NaN,,12.961,,0 / 21,,2294,2022-01-12 10:17:34:278
-0.0637,-0.0293,9.7098,-0.2864,0.2484,9.7993,-0.0867,-0.1517,0.0049,-0.0161,-0.0133,1.7562,-8.62,-9.98,-40.73,130.88,-1.54,1.8,48.84384,2.353374,91.6,NaN,,12.961,,0 / 21,,2298,2022-01-12 10:17:34:282
-0.0637,-0.0293,9.7098,-0.2864,0.2484,9.7993,-0.0867,-0.1517,0.0049,-0.0161,-0.0133,1.7562,-8.62,-9.98,-40.73,130.88,-1.54,1.8,48.84384,2.353374,91.6,NaN,,12.961,,0 / 21,,2303,2022-01-12 10:17:34:287
-0.0637,-0.0293,9.7098,-0.2864,0.2484,9.7993,-0.0867,-0.1517,0.0049,-0.0161,-0.0133,1.7562,-8.62,-9.98,-40.73,130.88,-1.54,1.8,48.84384,2.353374,91.6,NaN,,12.961,,0 / 21,,2308,2022-01-12 10:17:34:292
-0.0637,-0.0293,9.7098,-0.2864,0.2484,9.7993,-0.0867,-0.1517,0.0049,-0.0161,-0.0133,1.7562,-8.62,-9.98,-40.73,130.88,-1.54,1.8,48.84384,2.353374,91.6,NaN,,12.961,,0 / 21,,2312,2022-01-12 10:17:34:296
-0.0637,-0.0293,9.7098,-0.2864,0.2484,9.7993,-0.0867,-0.1517,0.0049,-0.0161,-0.0133,1.7562,-8.62,-9.98,-40.73,130.88,-1.54,1.8,48.84384,2.353374,91.6,NaN,,12.961,,0 / 21,,2318,2022-01-12 10:17:34:302
-0.0748,-0.1119,9.6209,-0.2864,0.2484,9.7993,-0.0867,-0.1517,0.0049,-0.0161,-0.0133,1.7562,-8.62,-9.98,-40.73,130.88,-1.54,1.8,48.84384,2.353374,91.6,NaN,,12.961,,0 / 21,,2323,2022-01-12 10:17:34:307
-0.0748,-0.1119,9.6209,-0.2864,0.2484,9.7993,-0.0867,-0.1517,0.0049,-0.0161,-0.0133,1.7562,-8.62,-9.98,-40.73,130.88,-1.54,1.8,48.84384,2.353374,91.6,NaN,,12.961,,0 / 21,,2328,2022-01-12 10:17:34:312
-0.0748,-0.1119,9.6209,-0.2864,0.2484,9.7993,-0.0867,-0.1517,0.0049,-0.0161,-0.0133,1.7562,-8.62,-9.98,-40.73,130.88,-1.54,1.8,48.84384,2.353374,91.6,NaN,,12.961,,0 / 21,,2333,2022-01-12 10:17:34:317
-0.0748,-0.1119,9.6209,-0.2864,0.2484,9.7993,-0.0867,-0.1517,0.0049,-0.0161,-0.0133,1.7562,-8.62,-9.98,-40.73,130.88,-1.54,1.8,48.84384,2.353374,91.6,NaN,,12.961,,0 / 21,,2337,2022-01-12 10:17:34:321
-0.0748,-0.1119,9.6209,-0.2864,0.2484,9.7993,-0.0867,-0.1517,0.0049,-0.0161,-0.0133,1.7562,-8.62,-9.98,-40.73,130.88,-1.54,1.8,48.84384,2.353374,91.6,NaN,,12.961,,0 / 21,,2343,2022-01-12 10:17:34:327
-0.0748,-0.1119,9.6209,-0.2864,0.2484,9.7993,-0.0867,-0.1517,0.0049,-0.0161,-0.0133,1.7562,-9.6,-8.62,-41.32,130.88,-1.54,1.8,48.84384,2.353374,91.6,NaN,,12.961,,0 / 21,,2349,2022-01-12 10:17:34:333
-0.0748,-0.1119,9.6209,-0.2864,0.2484,9.7993,-0.0867,-0.1517,0.0049,-0.0161,-0.0133,1.7562,-9.6,-8.62,-41.32,125.44,-1.45,1.67,48.84384,2.353374,91.6,NaN,,12.961,,0 / 21,,2356,2022-01-12 10:17:34:340
-0.0748,-0.1119,9.6209,-0.2864,0.2484,9.7993,-0.0867,-0.1517,0.0049,-0.0161,-0.0133,1.7562,-9.6,-8.62,-41.32,125.44,-1.45,1.67,48.84384,2.353374,91.6,NaN,,12.961,,0 / 21,,2358,2022-01-12 10:17:34:342
-0.0748,-0.1119,9.6209,-0.2864,0.2484,9.7993,-0.0867,-0.1517,0.0049,-0.0161,-0.0133,1.7562,-9.6,-8.62,-41.32,125.44,-1.45,1.67,48.84384,2.353374,91.6,NaN,,12.961,,0 / 21,,2363,2022-01-12 10:17:34:347
-0.0748,-0.1119,9.6209,-0.2864,0.2484,9.7993,-0.0867,-0.1517,0.0049,-0.0161,-0.0133,1.7562,-9.6,-8.62,-41.32,125.44,-1.45,1.67,48.84384,2.353374,91.6,NaN,,12.961,,0 / 21,,2368,2022-01-12 10:17:34:352
-0.0748,-0.1119,9.6209,-0.2864,0.2484,9.7993,-0.0867,-0.1517,0.0049,-0.0161,-0.0133,1.7562,-9.6,-8.62,-41.32,125.44,-1.45,1.67,48.84384,2.353374,91.6,NaN,,12.961,,0 / 21,,2373,2022-01-12 10:17:34:357
-0.0748,-0.1119,9.6209,-0.2864,0.2484,9.7993,-0.0867,-0.1517,0.0049,-0.0161,-0.0133,1.7562,-9.6,-8.62,-41.32,125.44,-1.45,1.67,48.84384,2.353374,91.6,NaN,,12.961,,0 / 21,,2378,2022-01-12 10:17:34:362
-0.0748,-0.1119,9.6209,-0.2864,0.2484,9.7993,-0.0867,-0.1517,0.0049,-0.0161,-0.0133,1.7562,-9.6,-8.62,-41.32,125.44,-1.45,1.67,48.84384,2.353374,91.6,NaN,,12.961,,0 / 21,,2383,2022-01-12 10:17:34:367
-0.0748,-0.1119,9.6209,-0.2864,0.2484,9.7993,-0.0867,-0.1517,0.0049,-0.0161,-0.0133,1.7562,-9.6,-8.62,-41.32,125.44,-1.45,1.67,48.84384,2.353374,91.6,NaN,,12.961,,0 / 21,,2388,2022-01-12 10:17:34:372
-0.0915,0.0604,9.699,-0.26,0.2285,9.8005,0.1247,-0.26,-0.0207,-0.0092,0.026,1.3626,-9.6,-8.62,-41.32,125.44,-1.45,1.67,48.84384,2.353374,91.6,NaN,,12.961,,0 / 21,,2392,2022-01-12 10:17:34:376
-0.0915,0.0604,9.699,-0.26,0.2285,9.8005,0.1247,-0.26,-0.0207,-0.0092,0.026,1.3626,-9.6,-8.62,-41.32,125.44,-1.45,1.67,48.84384,2.353374,91.6,NaN,,12.961,,0 / 21,,2398,2022-01-12 10:17:34:382
-0.0915,0.0604,9.699,-0.26,0.2285,9.8005,0.1247,-0.26,-0.0207,-0.0092,0.026,1.3626,-9.6,-8.62,-41.32,125.44,-1.45,1.67,48.84384,2.353374,91.6,NaN,,12.961,,0 / 21,,2403,2022-01-12 10:17:34:387
-0.0915,0.0604,9.699,-0.26,0.2285,9.8005,0.1247,-0.26,-0.0207,-0.0092,0.026,1.3626,-9.6,-8.62,-41.32,125.44,-1.45,1.67,48.84384,2.353374,91.6,NaN,,12.961,,0 / 21,,2408,2022-01-12 10:17:34:392
-0.0915,0.0604,9.699,-0.26,0.2285,9.8005,0.1247,-0.26,-0.0207,-0.0092,0.026,1.3626,-9.6,-8.62,-41.32,125.44,-1.45,1.67,48.84384,2.353374,91.6,NaN,,12.961,,0 / 21,,2413,2022-01-12 10:17:34:397
-0.0915,0.0604,9.699,-0.26,0.2285,9.8005,0.1247,-0.26,-0.0207,-0.0092,0.026,1.3626,-9.6,-8.62,-41.32,125.44,-1.45,1.67,48.84384,2.353374,91.6,NaN,,12.961,,0 / 21,,2418,2022-01-12 10:17:34:402
-0.0915,0.0604,9.699,-0.26,0.2285,9.8005,0.1247,-0.26,-0.0207,-0.0092,0.026,1.3626,-9.6,-8.62,-41.32,125.44,-1.45,1.67,48.84384,2.353374,91.6,NaN,,12.961,,0 / 21,,2423,2022-01-12 10:17:34:407
-0.0915,0.0604,9.699,-0.26,0.2285,9.8005,0.1247,-0.26,-0.0207,-0.0092,0.026,1.3626,-9.6,-8.62,-41.32,125.44,-1.45,1.67,48.84384,2.353374,91.6,NaN,,12.961,,0 / 21,,2429,2022-01-12 10:17:34:413
-0.0915,0.0604,9.699,-0.26,0.2285,9.8005,0.1247,-0.26,-0.0207,-0.0092,0.026,1.3626,-9.6,-8.62,-41.32,125.44,-1.45,1.67,48.84384,2.353374,91.6,NaN,,12.961,,0 / 21,,2434,2022-01-12 10:17:34:418
-0.0915,0.0604,9.699,-0.26,0.2285,9.8005,0.1247,-0.26,-0.0207,-0.0092,0.026,1.3626,-9.6,-8.62,-41.32,125.44,-1.45,1.67,48.84384,2.353374,91.6,NaN,,12.961,,0 / 21,,2438,2022-01-12 10:17:34:422
-0.0915,0.0604,9.699,-0.26,0.2285,9.8005,0.1247,-0.26,-0.0207,-0.0092,0.026,1.3626,-9.6,-8.62,-41.32,125.44,-1.45,1.67,48.84384,2.353374,91.6,NaN,,12.961,,0 / 21,,2443,2022-01-12 10:17:34:427
-0.0915,0.0604,9.699,-0.26,0.2285,9.8005,0.1247,-0.26,-0.0207,-0.0092,0.026,1.3626,-9.6,-8.62,-41.32,125.44,-1.45,1.67,48.84384,2.353374,91.6,NaN,,12.961,,0 / 21,,2449,2022-01-12 10:17:34:433
-0.338,-0.0724,9.7277,-0.26,0.2285,9.8005,0.1247,-0.26,-0.0207,-0.0092,0.026,1.3626,-11.17,-6.0,-42.15,112.54,-1.33,1.52,48.84384,2.353374,91.6,NaN,,12.961,,0 / 21,,2453,2022-01-12 10:17:34:437
-0.338,-0.0724,9.7277,-0.26,0.2285,9.8005,0.1247,-0.26,-0.0207,-0.0092,0.026,1.3626,-11.17,-6.0,-42.15,112.54,-1.33,1.52,48.84384,2.353374,91.6,NaN,,12.961,,0 / 21,,2458,2022-01-12 10:17:34:442
-0.338,-0.0724,9.7277,-0.2429,0.2107,9.8014,0.0478,-0.2628,-0.0087,-0.0092,0.026,1.3626,-11.17,-6.0,-42.15,112.54,-1.33,1.52,48.84384,2.353374,91.6,NaN,,12.961,,0 / 21,,2462,2022-01-12 10:17:34:446
-0.338,-0.0724,9.7277,-0.2429,0.2107,9.8014,0.0478,-0.2628,-0.0087,-0.0092,0.026,1.3626,-11.17,-6.0,-42.15,112.54,-1.33,1.52,48.84384,2.353374,91.6,NaN,,12.961,,0 / 21,,2468,2022-01-12 10:17:34:452
-0.338,-0.0724,9.7277,-0.2429,0.2107,9.8014,0.0478,-0.2628,-0.0087,-0.0092,0.026,1.3626,-11.17,-6.0,-42.15,112.54,-1.33,1.52,48.84384,2.353374,91.6,NaN,,12.961,,0 / 21,,2473,2022-01-12 10:17:34:457
-0.338,-0.0724,9.7277,-0.2429,0.2107,9.8014,0.0478,-0.2628,-0.0087,-0.0092,0.026,1.3626,-11.17,-6.0,-42.15,112.54,-1.33,1.52,48.84384,2.353374,91.6,NaN,,12.961,,0 / 21,,2479,2022-01-12 10:17:34:463
-0.338,-0.0724,9.7277,-0.2429,0.2107,9.8014,0.0478,-0.2628,-0.0087,-0.0092,0.026,1.3626,-11.17,-6.0,-42.15,112.54,-1.33,1.52,48.84384,2.353374,91.6,NaN,,12.961,,0 / 21,,2483,2022-01-12 10:17:34:467
-0.338,-0.0724,9.7277,-0.2429,0.2107,9.8014,0.0478,-0.2628,-0.0087,-0.0092,0.026,1.3626,-11.17,-6.0,-42.15,112.54,-1.33,1.52,48.84384,2.353374,91.6,NaN,,12.961,,0 / 21,,2488,2022-01-12 10:17:34:472
-0.338,-0.0724,9.7277,-0.2429,0.2107,9.8014,0.0478,-0.2628,-0.0087,-0.0092,0.026,1.3626,-11.17,-6.0,-42.15,112.54,-1.33,1.52,48.84384,2.353374,91.6,NaN,,12.961,,0 / 21,,2493,2022-01-12 10:17:34:477
-0.338,-0.0724,9.7277,-0.2429,0.2107,9.8014,0.0478,-0.2628,-0.0087,-0.0092,0.026,1.3626,-11.17,-6.0,-42.15,112.54,-1.33,1.52,48.84384,2.353374,91.6,NaN,,12.961,,0 / 21,,2498,2022-01-12 10:17:34:482
-0.338,-0.0724,9.7277,-0.2429,0.2107,9.8014,0.0478,-0.2628,-0.0087,-0.0092,0.026,1.3626,-11.17,-6.0,-42.15,112.54,-1.33,1.52,48.84384,2.353374,91.6,NaN,,12.961,,0 / 21,,2502,2022-01-12 10:17:34:486
-0.338,-0.0724,9.7277,-0.2429,0.2107,9.8014,0.0478,-0.2628,-0.0087,-0.0092,0.026,1.3626,-11.17,-6.0,-42.15,112.54,-1.33,1.52,48.84384,2.353374,91.6,NaN,,12.961,,0 / 21,,2508,2022-01-12 10:17:34:492
-0.338,-0.0724,9.7277,-0.2429,0.2107,9.8014,0.0478,-0.2628,-0.0087,-0.0092,0.026,1.3626,-11.17,-6.0,-42.15,112.54,-1.33,1.52,48.84384,2.353374,91.6,NaN,,12.961,,0 / 21,,2514,2022-01-12 10:17:34:498
-0.4759,0.0942,9.6544,-0.2649,0.1991,9.8011,0.0478,-0.2628,-0.0087,-0.0092,0.026,1.3626,-11.17,-6.0,-42.15,112.54,-1.33,1.52,48.84384,2.353374,91.6,NaN,,12.961,,0 / 21,,2518,2022-01-12 10:17:34:502
-0.4759,0.0942,9.6544,-0.2649,0.1991,9.8011,0.0478,-0.2628,-0.0087,-0.0092,0.026,1.3626,-11.17,-6.0,-42.15,112.54,-1.33,1.52,48.84384,2.353374,91.6,NaN,,12.961,,0 / 21,,2523,2022-01-12 10:17:34:507
-0.4759,0.0942,9.6544,-0.2649,0.1991,9.8011,0.0478,-0.2628,-0.0087,-0.0097,0.0364,1.3984,-11.17,-6.0,-42.15,112.54,-1.33,1.52,48.84384,2.353374,91.6,NaN,,12.961,,0 / 21,,2529,2022-01-12 10:17:34:513
-0.4759,0.0942,9.6544,-0.2649,0.1991,9.8011,0.0478,-0.2628,-0.0087,-0.0097,0.0364,1.3984,-11.17,-6.0,-42.15,112.54,-1.33,1.52,48.84384,2.353374,91.6,NaN,,12.961,,0 / 21,,2533,2022-01-12 10:17:34:517
-0.4759,0.0942,9.6544,-0.2649,0.1991,9.8011,0.0478,-0.2628,-0.0087,-0.0097,0.0364,1.3984,-11.17,-6.0,-42.15,112.54,-1.33,1.52,48.84384,2.353374,91.6,NaN,,12.961,,0 / 21,,2537,2022-01-12 10:17:34:521
-0.4759,0.0942,9.6544,-0.2649,0.1991,9.8011,0.0478,-0.2628,-0.0087,-0.0097,0.0364,1.3984,-11.17,-6.0,-42.15,112.54,-1.33,1.52,48.84384,2.353374,91.6,NaN,,12.961,,0 / 21,,2542,2022-01-12 10:17:34:526
-0.4759,0.0942,9.6544,-0.2649,0.1991,9.8011,0.0478,-0.2628,-0.0087,-0.0097,0.0364,1.3984,-11.17,-6.0,-42.15,112.54,-1.33,1.52,48.84384,2.353374,91.6,NaN,,12.961,,0 / 21,,2548,2022-01-12 10:17:34:532
-0.4759,0.0942,9.6544,-0.2649,0.1991,9.8011,0.0478,-0.2628,-0.0087,-0.0097,0.0364,1.3984,-11.85,-4.65,-42.37,107.55,-1.16,1.55,48.84384,2.353374,91.6,NaN,,12.961,,0 / 21,,2552,2022-01-12 10:17:34:536
-0.4759,0.0942,9.6544,-0.2649,0.1991,9.8011,0.0478,-0.2628,-0.0087,-0.0097,0.0364,1.3984,-11.85,-4.65,-42.37,107.55,-1.16,1.55,48.84384,2.353374,91.6,NaN,,12.961,,0 / 21,,2558,2022-01-12 10:17:34:542
-0.4759,0.0942,9.6544,-0.2649,0.1991,9.8011,0.0478,-0.2628,-0.0087,-0.0097,0.0364,1.3984,-11.85,-4.65,-42.37,107.55,-1.16,1.55,48.84384,2.353374,91.6,NaN,,12.961,,0 / 21,,2563,2022-01-12 10:17:34:547
-0.4759,0.0942,9.6544,-0.2649,0.1991,9.8011,0.0478,-0.2628,-0.0087,-0.0097,0.0364,1.3984,-11.85,-4.65,-42.37,107.55,-1.16,1.55,48.84384,2.353374,91.6,NaN,,12.961,,0 / 21,,2568,2022-01-12 10:17:34:552
-0.4759,0.0942,9.6544,-0.2649,0.1991,9.8011,0.0478,-0.2628,-0.0087,-0.0097,0.0364,1.3984,-11.85,-4.65,-42.37,107.55,-1.16,1.55,48.84384,2.353374,91.6,NaN,,12.961,,0 / 21,,2573,2022-01-12 10:17:34:557
-0.4759,0.0942,9.6544,-0.2649,0.1991,9.8011,0.0478,-0.2628,-0.0087,-0.0097,0.0364,1.3984,-11.85,-4.65,-42.37,107.55,-1.16,1.55,48.84384,2.353374,91.6,NaN,,12.961,,0 / 21,,2578,2022-01-12 10:17:34:562
-0.4759,0.0942,9.6544,-0.2649,0.1991,9.8011,0.0478,-0.2628,-0.0087,-0.0097,0.0364,1.3984,-11.85,-4.65,-42.37,107.55,-1.16,1.55,48.84384,2.353374,91.6,NaN,,12.961,,0 / 21,,2583,2022-01-12 10:17:34:567
-0.4998,-0.0221,9.7134,-0.2783,0.2073,9.8005,-0.1422,-0.0458,-0.0111,-0.0097,0.0364,1.3984,-11.85,-4.65,-42.37,107.55,-1.16,1.55,48.84384,2.353374,91.6,NaN,,12.961,,0 / 21,,2588,2022-01-12 10:17:34:572
-0.4998,-0.0221,9.7134,-0.2783,0.2073,9.8005,-0.1422,-0.0458,-0.0111,-0.0097,0.0364,1.3984,-11.85,-4.65,-42.37,107.55,-1.16,1.55,48.84384,2.353374,91.6,NaN,,12.961,,0 / 21,,2593,2022-01-12 10:17:34:577
-0.4998,-0.0221,9.7134,-0.2783,0.2073,9.8005,-0.1422,-0.0458,-0.0111,-0.0097,0.0364,1.3984,-11.85,-4.65,-42.37,107.55,-1.16,1.55,48.84384,2.353374,91.6,NaN,,12.961,,0 / 21,,2598,2022-01-12 10:17:34:582
-0.4998,-0.0221,9.7134,-0.2783,0.2073,9.8005,-0.1422,-0.0458,-0.0111,-0.0097,0.0364,1.3984,-11.85,-4.65,-42.37,107.55,-1.16,1.55,48.84384,2.353374,91.6,NaN,,12.961,,0 / 21,,2603,2022-01-12 10:17:34:587
-0.4998,-0.0221,9.7134,-0.2783,0.2073,9.8005,-0.1422,-0.0458,-0.0111,-0.0097,0.0364,1.3984,-11.85,-4.65,-42.37,107.55,-1.16,1.55,48.84384,2.353374,91.6,NaN,,12.961,,0 / 21,,2608,2022-01-12 10:17:34:592
-0.4998,-0.0221,9.7134,-0.2783,0.2073,9.8005,-0.1422,-0.0458,-0.0111,-0.0097,0.0364,1.3984,-11.85,-4.65,-42.37,107.55,-1.16,1.55,48.84384,2.353374,91.6,NaN,,12.961,,0 / 21,,2613,2022-01-12 10:17:34:597
-0.4998,-0.0221,9.7134,-0.2783,0.2073,9.8005,-0.1422,-0.0458,-0.0111,-0.0097,0.0364,1.3984,-11.85,-4.65,-42.37,107.55,-1.16,1.55,48.84384,2.353374,91.6,NaN,,12.961,,0 / 21,,2618,2022-01-12 10:17:34:602
-0.4998,-0.0221,9.7134,-0.2783,0.2073,9.8005,-0.1422,-0.0458,-0.0111,-0.0097,0.0364,1.3984,-11.85,-4.65,-42.37,107.55,-1.16,1.55,48.84384,2.353374,91.6,NaN,,12.961,,0 / 21,,2623,2022-01-12 10:17:34:607
-0.4998,-0.0221,9.7134,-0.2783,0.2073,9.8005,-0.1422,-0.0458,-0.0111,-0.0097,0.0364,1.3984,-11.85,-4.65,-42.37,107.55,-1.16,1.55,48.84384,2.353374,91.6,NaN,,12.961,,0 / 21,,2629,2022-01-12 10:17:34:613
-0.4998,-0.0221,9.7134,-0.2783,0.2073,9.8005,-0.1422,-0.0458,-0.0111,-0.0097,0.0364,1.3984,-11.85,-4.65,-42.37,107.55,-1.16,1.55,48.84384,2.353374,91.6,NaN,,12.961,,0 / 21,,2633,2022-01-12 10:17:34:617
-0.4998,-0.0221,9.7134,-0.2783,0.2073,9.8005,-0.1422,-0.0458,-0.0111,-0.0097,0.0364,1.3984,-11.85,-4.65,-42.37,107.55,-1.16,1.55,48.84384,2.353374,91.6,NaN,,12.961,,0 / 21,,2638,2022-01-12 10:17:34:622
-0.4998,-0.0221,9.7134,-0.2783,0.2073,9.8005,-0.1422,-0.0458,-0.0111,-0.0097,0.0364,1.3984,-11.85,-4.65,-42.37,107.55,-1.16,1.55,48.84384,2.353374,91.6,NaN,,12.961,,0 / 21,,2644,2022-01-12 10:17:34:628
-0.6915,-0.2964,9.705,-0.3007,0.1988,9.8,-0.2119,-0.2251,0.0067,-0.0097,0.0364,1.3984,-11.85,-4.65,-42.37,107.55,-1.16,1.55,48.84384,2.353374,91.6,NaN,,12.961,,0 / 21,,2648,2022-01-12 10:17:34:632
-0.6915,-0.2964,9.705,-0.3007,0.1988,9.8,-0.2119,-0.2251,0.0067,-0.0097,0.0364,1.3984,-12.67,-1.2,-42.82,90.55,-1.16,1.76,48.84384,2.353374,91.6,NaN,,12.961,,0 / 21,,2653,2022-01-12 10:17:34:637
-0.6915,-0.2964,9.705,-0.3007,0.1988,9.8,-0.2119,-0.2251,0.0067,-0.0097,0.0364,1.3984,-12.67,-1.2,-42.82,90.55,-1.16,1.76,48.84384,2.353374,91.6,NaN,,12.961,,0 / 21,,2658,2022-01-12 10:17:34:642
-0.6915,-0.2964,9.705,-0.3007,0.1988,9.8,-0.2119,-0.2251,0.0067,-0.0178,0.033,2.0041,-12.67,-1.2,-42.82,90.55,-1.16,1.76,48.84384,2.353374,91.6,NaN,,12.961,,0 / 21,,2663,2022-01-12 10:17:34:647
-0.6915,-0.2964,9.705,-0.3007,0.1988,9.8,-0.2119,-0.2251,0.0067,-0.0178,0.033,2.0041,-12.67,-1.2,-42.82,90.55,-1.16,1.76,48.84384,2.353374,91.6,NaN,,12.961,,0 / 21,,2668,2022-01-12 10:17:34:652
-0.6915,-0.2964,9.705,-0.3007,0.1988,9.8,-0.2119,-0.2251,0.0067,-0.0178,0.033,2.0041,-12.67,-1.2,-42.82,90.55,-1.16,1.76,48.84384,2.353374,91.6,NaN,,12.961,,0 / 21,,2673,2022-01-12 10:17:34:657
-0.6915,-0.2964,9.705,-0.3007,0.1988,9.8,-0.2119,-0.2251,0.0067,-0.0178,0.033,2.0041,-12.67,-1.2,-42.82,90.55,-1.16,1.76,48.84384,2.353374,91.6,NaN,,12.961,,0 / 21,,2678,2022-01-12 10:17:34:662
-0.6915,-0.2964,9.705,-0.3007,0.1988,9.8,-0.2119,-0.2251,0.0067,-0.0178,0.033,2.0041,-12.67,-1.2,-42.82,90.55,-1.16,1.76,48.84384,2.353374,91.6,NaN,,12.961,,0 / 21,,2683,2022-01-12 10:17:34:667
-0.6915,-0.2964,9.705,-0.3007,0.1988,9.8,-0.2119,-0.2251,0.0067,-0.0178,0.033,2.0041,-12.67,-1.2,-42.82,90.55,-1.16,1.76,48.84384,2.353374,91.6,NaN,,12.961,,0 / 21,,2688,2022-01-12 10:17:34:672
-0.6915,-0.2964,9.705,-0.3007,0.1988,9.8,-0.2119,-0.2251,0.0067,-0.0178,0.033,2.0041,-12.67,-1.2,-42.82,90.55,-1.16,1.76,48.84384,2.353374,91.6,NaN,,12.961,,0 / 21,,2693,2022-01-12 10:17:34:677
-0.6915,-0.2964,9.705,-0.3007,0.1988,9.8,-0.2119,-0.2251,0.0067,-0.0178,0.033,2.0041,-12.67,-1.2,-42.82,90.55,-1.16,1.76,48.84384,2.353374,91.6,NaN,,12.961,,0 / 21,,2698,2022-01-12 10:17:34:682
-0.6915,-0.2964,9.705,-0.3007,0.1988,9.8,-0.2119,-0.2251,0.0067,-0.0178,0.033,2.0041,-12.67,-1.2,-42.82,90.55,-1.16,1.76,48.84384,2.353374,91.6,NaN,,12.961,,0 / 21,,2703,2022-01-12 10:17:34:687
-0.6915,-0.2964,9.705,-0.3007,0.1988,9.8,-0.2119,-0.2251,0.0067,-0.0178,0.033,2.0041,-12.67,-1.2,-42.82,90.55,-1.16,1.76,48.84384,2.353374,91.6,NaN,,12.961,,0 / 21,,2709,2022-01-12 10:17:34:693
-0.6915,-0.2964,9.705,-0.3463,0.1732,9.799,-0.4189,-0.4213,0.0017,-0.0178,0.033,2.0041,-12.67,-1.2,-42.82,90.55,-1.16,1.76,48.84384,2.353374,91.6,NaN,,12.961,,0 / 21,,2713,2022-01-12 10:17:34:697
0.2859,0.0799,9.7014,-0.3463,0.1732,9.799,-0.4189,-0.4213,0.0017,-0.0178,0.033,2.0041,-12.67,-1.2,-42.82,90.55,-1.16,1.76,48.84384,2.353374,91.6,NaN,,12.961,,0 / 21,,2718,2022-01-12 10:17:34:702
0.2859,0.0799,9.7014,-0.3463,0.1732,9.799,-0.4189,-0.4213,0.0017,-0.0178,0.033,2.0041,-12.67,-1.2,-42.82,90.55,-1.16,1.76,48.84384,2.353374,91.6,NaN,,12.961,,0 / 21,,2723,2022-01-12 10:17:34:707
0.2859,0.0799,9.7014,-0.3463,0.1732,9.799,-0.4189,-0.4213,0.0017,-0.0178,0.033,2.0041,-12.67,-1.2,-42.82,90.55,-1.16,1.76,48.84384,2.353374,91.6,NaN,,12.961,,0 / 21,,2728,2022-01-12 10:17:34:712
0.2859,0.0799,9.7014,-0.3463,0.1732,9.799,-0.4189,-0.4213,0.0017,-0.0178,0.033,2.0041,-12.67,-1.2,-42.82,90.55,-1.16,1.76,48.84384,2.353374,91.6,NaN,,12.961,,0 / 21,,2734,2022-01-12 10:17:34:718
0.2859,0.0799,9.7014,-0.3463,0.1732,9.799,-0.4189,-0.4213,0.0017,-0.0178,0.033,2.0041,-12.67,-1.2,-42.82,90.55,-1.16,1.76,48.84384,2.353374,91.6,NaN,,12.961,,0 / 21,,2737,2022-01-12 10:17:34:721
0.2859,0.0799,9.7014,-0.3463,0.1732,9.799,-0.4189,-0.4213,0.0017,-0.0178,0.033,2.0041,-12.67,-1.2,-42.82,90.55,-1.16,1.76,48.84384,2.353374,91.6,NaN,,12.961,,0 / 21,,2743,2022-01-12 10:17:34:727
0.2859,0.0799,9.7014,-0.3463,0.1732,9.799,-0.4189,-0.4213,0.0017,-0.0178,0.033,2.0041,-12.67,-1.2,-42.82,90.55,-1.16,1.76,48.84384,2.353374,91.6,NaN,,12.961,,0 / 21,,2747,2022-01-12 10:17:34:731
0.2859,0.0799,9.7014,-0.3463,0.1732,9.799,-0.4189,-0.4213,0.0017,-0.0178,0.033,2.0041,-12.45,0.53,-42.97,82.61,-1.01,2.02,48.84384,2.353374,91.6,NaN,,12.961,,0 / 21,,2753,2022-01-12 10:17:34:737
0.2859,0.0799,9.7014,-0.3463,0.1732,9.799,-0.4189,-0.4213,0.0017,-0.0178,0.033,2.0041,-12.45,0.53,-42.97,82.61,-1.01,2.02,48.84384,2.353374,91.6,NaN,,12.961,,0 / 21,,2758,2022-01-12 10:17:34:742
0.2859,0.0799,9.7014,-0.3463,0.1732,9.799,-0.4189,-0.4213,0.0017,-0.0178,0.033,2.0041,-12.45,0.53,-42.97,82.61,-1.01,2.02,48.84384,2.353374,91.6,NaN,,12.961,,0 / 21,,2763,2022-01-12 10:17:34:747
0.2859,0.0799,9.7014,-0.3463,0.1732,9.799,-0.4189,-0.4213,0.0017,-0.0178,0.033,2.0041,-12.45,0.53,-42.97,82.61,-1.01,2.02,48.84384,2.353374,91.6,NaN,,12.961,,0 / 21,,2767,2022-01-12 10:17:34:751
0.2859,0.0799,9.7014,-0.3463,0.1732,9.799,-0.4189,-0.4213,0.0017,-0.0178,0.033,2.0041,-12.45,0.53,-42.97,82.61,-1.01,2.02,48.84384,2.353374,91.6,NaN,,12.961,,0 / 21,,2773,2022-01-12 10:17:34:757
-0.0338,-0.082,9.705,-0.2834,0.1872,9.8008,0.4685,-0.1596,0.0112,-0.0178,0.033,2.0041,-12.45,0.53,-42.97,82.61,-1.01,2.02,48.84384,2.353374,91.6,NaN,,12.961,,0 / 21,,2778,2022-01-12 10:17:34:762
-0.0338,-0.082,9.705,-0.2834,0.1872,9.8008,0.4685,-0.1596,0.0112,-0.0178,0.033,2.0041,-12.45,0.53,-42.97,82.61,-1.01,2.02,48.84384,2.353374,91.6,NaN,,12.961,,0 / 21,,2782,2022-01-12 10:17:34:766
-0.0338,-0.082,9.705,-0.2834,0.1872,9.8008,0.4685,-0.1596,0.0112,-0.0178,0.033,2.0041,-12.45,0.53,-42.97,82.61,-1.01,2.02,48.84384,2.353374,91.6,NaN,,12.961,,0 / 21,,2788,2022-01-12 10:17:34:772
-0.0338,-0.082,9.705,-0.2834,0.1872,9.8008,0.4685,-0.1596,0.0112,-0.0204,0.0342,2.1078,-12.45,0.53,-42.97,82.61,-1.01,2.02,48.84384,2.353374,91.6,NaN,,12.961,,0 / 21,,2793,2022-01-12 10:17:34:777
-0.0338,-0.082,9.705,-0.2834,0.1872,9.8008,0.4685,-0.1596,0.0112,-0.0204,0.0342,2.1078,-12.45,0.53,-42.97,82.61,-1.01,2.02,48.84384,2.353374,91.6,NaN,,12.961,,0 / 21,,2798,2022-01-12 10:17:34:782
-0.0338,-0.082,9.705,-0.2834,0.1872,9.8008,0.4685,-0.1596,0.0112,-0.0204,0.0342,2.1078,-12.45,0.53,-42.97,82.61,-1.01,2.02,48.84384,2.353374,91.6,NaN,,12.961,,0 / 21,,2802,2022-01-12 10:17:34:786
-0.0338,-0.082,9.705,-0.2834,0.1872,9.8008,0.4685,-0.1596,0.0112,-0.0204,0.0342,2.1078,-12.45,0.53,-42.97,82.61,-1.01,2.02,48.84384,2.353374,91.6,NaN,,12.961,,0 / 21,,2808,2022-01-12 10:17:34:792
-0.0338,-0.082,9.705,-0.2834,0.1872,9.8008,0.4685,-0.1596,0.0112,-0.0204,0.0342,2.1078,-12.45,0.53,-42.97,82.61,-1.01,2.02,48.84384,2.353374,91.6,NaN,,12.961,,0 / 21,,2812,2022-01-12 10:17:34:796
-0.0338,-0.082,9.705,-0.2834,0.1872,9.8008,0.4685,-0.1596,0.0112,-0.0204,0.0342,2.1078,-12.45,0.53,-42.97,82.61,-1.01,2.02,48.84384,2.353374,91.6,NaN,,12.961,,0 / 21,,2818,2022-01-12 10:17:34:802
-0.0338,-0.082,9.705,-0.2834,0.1872,9.8008,0.4685,-0.1596,0.0112,-0.0204,0.0342,2.1078,-12.45,0.53,-42.97,82.61,-1.01,2.02,48.84384,2.353374,91.6,NaN,,12.961,,0 / 21,,2822,2022-01-12 10:17:34:806
-0.0338,-0.082,9.705,-0.2834,0.1872,9.8008,0.4685,-0.1596,0.0112,-0.0204,0.0342,2.1078,-12.45,0.53,-42.97,82.61,-1.01,2.02,48.84384,2.353374,91.6,NaN,,12.961,,0 / 21,,2828,2022-01-12 10:17:34:812
-0.0338,-0.082,9.705,-0.2834,0.1872,9.8008,0.4685,-0.1596,0.0112,-0.0204,0.0342,2.1078,-12.45,0.53,-42.97,82.61,-1.01,2.02,48.84384,2.353374,91.6,NaN,,12.961,,0 / 21,,2832,2022-01-12 10:17:34:816
-0.5704,0.341,9.6882,-0.2348,0.1789,9.8022,0.3548,-0.2508,-0.0082,-0.0204,0.0342,2.1078,-12.45,0.53,-42.97,82.61,-1.01,2.02,48.84384,2.353374,91.6,NaN,,12.961,,0 / 21,,2838,2022-01-12 10:17:34:822
-0.5704,0.341,9.6882,-0.2348,0.1789,9.8022,0.3548,-0.2508,-0.0082,-0.0204,0.0342,2.1078,-12.45,0.53,-42.97,82.61,-1.01,2.02,48.84384,2.353374,91.6,NaN,,12.961,,0 / 21,,2842,2022-01-12 10:17:34:826
-0.5704,0.341,9.6882,-0.2348,0.1789,9.8022,0.3548,-0.2508,-0.0082,-0.0204,0.0342,2.1078,-11.55,3.68,-43.2,69.86,-1.05,1.37,48.84384,2.353374,91.6,NaN,,12.961,,0 / 21,,2848,2022-01-12 10:17:34:832
-0.5704,0.341,9.6882,-0.2348,0.1789,9.8022,0.3548,-0.2508,-0.0082,-0.0204,0.0342,2.1078,-11.55,3.68,-43.2,69.86,-1.05,1.37,48.84384,2.353374,91.6,NaN,,12.961,,0 / 21,,2853,2022-01-12 10:17:34:837
-0.5704,0.341,9.6882,-0.2348,0.1789,9.8022,0.3548,-0.2508,-0.0082,-0.0204,0.0342,2.1078,-11.55,3.68,-43.2,69.86,-1.05,1.37,48.84384,2.353374,91.6,NaN,,12.961,,0 / 21,,2857,2022-01-12 10:17:34:841
-0.5704,0.341,9.6882,-0.2348,0.1789,9.8022,0.3548,-0.2508,-0.0082,-0.0204,0.0342,2.1078,-11.55,3.68,-43.2,69.86,-1.05,1.37,48.84384,2.353374,91.6,NaN,,12.961,,0 / 21,,2863,2022-01-12 10:17:34:847
-0.5704,0.341,9.6882,-0.2348,0.1789,9.8022,0.3548,-0.2508,-0.0082,-0.0204,0.0342,2.1078,-11.55,3.68,-43.2,69.86,-1.05,1.37,48.84384,2.353374,91.6,NaN,,12.961,,0 / 21,,2867,2022-01-12 10:17:34:851
-0.5704,0.341,9.6882,-0.2348,0.1789,9.8022,0.3548,-0.2508,-0.0082,-0.0204,0.0342,2.1078,-11.55,3.68,-43.2,69.86,-1.05,1.37,48.84384,2.353374,91.6,NaN,,12.961,,0 / 21,,2873,2022-01-12 10:17:34:857
-0.5704,0.341,9.6882,-0.2348,0.1789,9.8022,0.3548,-0.2508,-0.0082,-0.0204,0.0342,2.1078,-11.55,3.68,-43.2,69.86,-1.05,1.37,48.84384,2.353374,91.6,NaN,,12.961,,0 / 21,,2877,2022-01-12 10:17:34:861
-0.5704,0.341,9.6882,-0.2348,0.1789,9.8022,0.3548,-0.2508,-0.0082,-0.0204,0.0342,2.1078,-11.55,3.68,-43.2,69.86,-1.05,1.37,48.84384,2.353374,91.6,NaN,,12.961,,0 / 21,,2883,2022-01-12 10:17:34:867
-0.5704,0.341,9.6882,-0.2348,0.1789,9.8022,0.3548,-0.2508,-0.0082,-0.0204,0.0342,2.1078,-11.55,3.68,-43.2,69.86,-1.05,1.37,48.84384,2.353374,91.6,NaN,,12.961,,0 / 21,,2887,2022-01-12 10:17:34:871
-0.5704,0.341,9.6882,-0.2348,0.1789,9.8022,0.3548,-0.2508,-0.0082,-0.0204,0.0342,2.1078,-11.55,3.68,-43.2,69.86,-1.05,1.37,48.84384,2.353374,91.6,NaN,,12.961,,0 / 21,,2893,2022-01-12 10:17:34:877
-0.5704,0.341,9.6882,-0.2348,0.1789,9.8022,0.3548,-0.2508,-0.0082,-0.0204,0.0342,2.1078,-11.55,3.68,-43.2,69.86,-1.05,1.37,48.84384,2.353374,91.6,NaN,,12.961,,0 / 21,,2897,2022-01-12 10:17:34:881
-0.5704,0.341,9.6882,-0.2348,0.1789,9.8022,0.3548,-0.2508,-0.0082,-0.0204,0.0342,2.1078,-11.55,3.68,-43.2,69.86,-1.05,1.37,48.84384,2.353374,91.6,NaN,,12.961,,0 / 21,,2903,2022-01-12 10:17:34:887
-0.5704,0.341,9.6882,-0.2348,0.1789,9.8022,0.3548,-0.2508,-0.0082,-0.0204,0.0342,2.1078,-11.55,3.68,-43.2,69.86,-1.05,1.37,48.84384,2.353374,91.6,NaN,,12.961,,0 / 21,,2908,2022-01-12 10:17:34:892
-0.5704,0.341,9.6882,-0.2348,0.1789,9.8022,0.3548,-0.2508,-0.0082,-0.0204,0.0342,2.1078,-11.55,3.68,-43.2,69.86,-1.05,1.37,48.84384,2.353374,91.6,NaN,,12.961,,0 / 21,,2912,2022-01-12 10:17:34:896
-0.5704,0.341,9.6882,-0.2348,0.1789,9.8022,0.3548,-0.2508,-0.0082,-0.0204,0.0342,2.1078,-11.55,3.68,-43.2,69.86,-1.05,1.37,48.84384,2.353374,91.6,NaN,,12.961,,0 / 21,,2918,2022-01-12 10:17:34:902
-0.5704,0.341,9.6882,-0.2348,0.1789,9.8022,0.3548,-0.2508,-0.0082,-0.0204,0.0342,2.1078,-11.55,3.68,-43.2,69.86,-1.05,1.37,48.84384,2.353374,91.6,NaN,,12.961,,0 / 21,,2922,2022-01-12 10:17:34:906
-0.0772,0.1469,9.7193,-0.2348,0.1789,9.8022,0.3548,-0.2508,-0.0082,-0.0193,0.0305,1.9261,-11.55,3.68,-43.2,69.86,-1.05,1.37,48.84384,2.353374,91.6,NaN,,12.961,,0 / 21,,2928,2022-01-12 10:17:34:912
-0.0772,0.1469,9.7193,-0.2348,0.1789,9.8022,0.3548,-0.2508,-0.0082,-0.0193,0.0305,1.9261,-11.55,3.68,-43.2,69.86,-1.05,1.37,48.84384,2.353374,91.6,NaN,,12.961,,0 / 21,,2933,2022-01-12 10:17:34:917
-0.0772,0.1469,9.7193,-0.2348,0.1789,9.8022,0.3548,-0.2508,-0.0082,-0.0193,0.0305,1.9261,-11.55,3.68,-43.2,69.86,-1.05,1.37,48.84384,2.353374,91.6,NaN,,12.961,,0 / 21,,2937,2022-01-12 10:17:34:921
-0.0772,0.1469,9.7193,-0.2348,0.1789,9.8022,0.3548,-0.2508,-0.0082,-0.0193,0.0305,1.9261,-11.55,3.68,-43.2,69.86,-1.05,1.37,48.84384,2.353374,91.6,NaN,,12.961,,0 / 21,,2943,2022-01-12 10:17:34:927
-0.0772,0.1469,9.7193,-0.2348,0.1789,9.8022,0.3548,-0.2508,-0.0082,-0.0193,0.0305,1.9261,-11.55,3.68,-43.2,69.86,-1.05,1.37,48.84384,2.353374,91.6,NaN,,12.961,,0 / 21,,2948,2022-01-12 10:17:34:932
-0.0772,0.1469,9.7193,-0.2488,0.1737,9.802,-0.0194,-0.3163,0.0014,-0.0193,0.0305,1.9261,-10.65,5.18,-43.35,64.34,-1.05,1.37,48.84384,2.353374,91.6,NaN,,12.961,,0 / 21,,2953,2022-01-12 10:17:34:937
-0.0772,0.1469,9.7193,-0.2488,0.1737,9.802,-0.0194,-0.3163,0.0014,-0.0193,0.0305,1.9261,-10.65,5.18,-43.35,64.34,-1.05,1.37,48.84384,2.353374,91.6,NaN,,12.961,,0 / 21,,2957,2022-01-12 10:17:34:941
-0.0772,0.1469,9.7193,-0.2488,0.1737,9.802,-0.0194,-0.3163,0.0014,-0.0193,0.0305,1.9261,-10.65,5.18,-43.35,64.34,-1.05,1.37,48.84384,2.353374,91.6,NaN,,12.961,,0 / 21,,2963,2022-01-12 10:17:34:947
-0.0772,0.1469,9.7193,-0.2488,0.1737,9.802,-0.0194,-0.3163,0.0014,-0.0193,0.0305,1.9261,-10.65,5.18,-43.35,64.34,-1.05,1.37,48.84384,2.353374,91.6,NaN,,12.961,,0 / 21,,2967,2022-01-12 10:17:34:951
-0.0772,0.1469,9.7193,-0.2488,0.1737,9.802,-0.0194,-0.3163,0.0014,-0.0193,0.0305,1.9261,-10.65,5.18,-43.35,64.34,-1.05,1.37,48.84384,2.353374,91.6,NaN,,12.961,,0 / 21,,2973,2022-01-12 10:17:34:957
-0.0772,0.1469,9.7193,-0.2488,0.1737,9.802,-0.0194,-0.3163,0.0014,-0.0193,0.0305,1.9261,-10.65,5.18,-43.35,64.34,-1.05,1.37,48.84384,2.353374,91.6,NaN,,12.961,,0 / 21,,2978,2022-01-12 10:17:34:962
-0.0772,0.1469,9.7193,-0.2488,0.1737,9.802,-0.0194,-0.3163,0.0014,-0.0193,0.0305,1.9261,-10.65,5.18,-43.35,64.34,-1.05,1.37,48.84384,2.353374,91.6,NaN,,12.961,,0 / 21,,2982,2022-01-12 10:17:34:966
-0.0772,0.1469,9.7193,-0.2488,0.1737,9.802,-0.0194,-0.3163,0.0014,-0.0193,0.0305,1.9261,-10.65,5.18,-43.35,64.34,-1.05,1.37,48.84384,2.353374,91.6,NaN,,12.961,,0 / 21,,2988,2022-01-12 10:17:34:972
-0.149,0.1624,9.6942,-0.2488,0.1737,9.802,-0.0194,-0.3163,0.0014,-0.0193,0.0305,1.9261,-10.65,5.18,-43.35,64.34,-1.05,1.37,48.84384,2.353374,91.6,NaN,,12.961,,0 / 21,,2993,2022-01-12 10:17:34:977
-0.149,0.1624,9.6942,-0.2488,0.1737,9.802,-0.0194,-0.3163,0.0014,-0.0193,0.0305,1.9261,-10.65,5.18,-43.35,64.34,-1.05,1.37,48.84384,2.353374,91.6,NaN,,12.961,,0 / 21,,2999,2022-01-12 10:17:34:983
-0.149,0.1624,9.6942,-0.2488,0.1737,9.802,-0.0194,-0.3163,0.0014,-0.0193,0.0305,1.9261,-10.65,5.18,-43.35,64.34,-1.05,1.37,48.84384,2.353374,91.6,NaN,,12.961,,0 / 21,,3003,2022-01-12 10:17:34:987
-0.149,0.1624,9.6942,-0.2488,0.1737,9.802,-0.0194,-0.3163,0.0014,-0.0193,0.0305,1.9261,-10.65,5.18,-43.35,64.34,-1.05,1.37,48.84384,2.353374,91.6,NaN,,12.961,,0 / 21,,3008,2022-01-12 10:17:34:992
-0.149,0.1624,9.6942,-0.2488,0.1737,9.802,-0.0194,-0.3163,0.0014,-0.0193,0.0305,1.9261,-10.65,5.18,-43.35,64.34,-1.05,1.37,48.84384,2.353374,91.6,NaN,,12.961,,0 / 21,,3014,2022-01-12 10:17:34:998
-0.149,0.1624,9.6942,-0.2419,0.1897,9.8018,0.042,0.0044,0.005,-0.0193,0.0305,1.9261,-10.65,5.18,-43.35,64.34,-1.05,1.37,48.84384,2.353374,91.6,NaN,,12.961,,0 / 21,,3018,2022-01-12 10:17:35:002
-0.149,0.1624,9.6942,-0.2419,0.1897,9.8018,0.042,0.0044,0.005,-0.0193,0.0305,1.9261,-10.65,5.18,-43.35,64.34,-1.05,1.37,48.84384,2.353374,91.6,NaN,,12.961,,0 / 21,,3023,2022-01-12 10:17:35:007
-0.149,0.1624,9.6942,-0.2419,0.1897,9.8018,0.042,0.0044,0.005,-0.0193,0.0305,1.9261,-10.65,5.18,-43.35,64.34,-1.05,1.37,48.84384,2.353374,91.6,NaN,,12.961,,0 / 21,,3028,2022-01-12 10:17:35:012
-0.149,0.1624,9.6942,-0.2419,0.1897,9.8018,0.042,0.0044,0.005,-0.0193,0.0305,1.9261,-10.65,5.18,-43.35,64.34,-1.05,1.37,48.84384,2.353374,91.6,NaN,,12.961,,0 / 21,,3033,2022-01-12 10:17:35:017
-0.149,0.1624,9.6942,-0.2419,0.1897,9.8018,0.042,0.0044,0.005,-0.0193,0.0305,1.9261,-10.65,5.18,-43.35,64.34,-1.05,1.37,48.84384,2.353374,91.6,NaN,,12.961,,0 / 21,,3037,2022-01-12 10:17:35:021
