ACCELEROMETER X (m/s²),ACCELEROMETER Y (m/s²),ACCELEROMETER Z (m/s²),GRAVITY X (m/s²),GRAVITY Y (m/s²),GRAVITY Z (m/s²),LINEAR ACCELERATION X (m/s²),LINEAR ACCELERATION Y (m/s²),LINEAR ACCELERATION Z (m/s²),GYROSCOPE X (rad/s),GYROSCOPE Y (rad/s),GYROSCOPE Z (rad/s),MAGNETIC FIELD X (μT),MAGNETIC FIELD Y (μT),MAGNETIC FIELD Z (μT),ORIENTATION Z (azimuth °),ORIENTATION X (pitch °),ORIENTATION Y (roll °),LOCATION Latitude : ,LOCATION Longitude : ,LOCATION Altitude ( m),LOCATION Altitude-google ( m),LOCATION Speed ( Kmh),LOCATION Accuracy ( m),LOCATION ORIENTATION (°),Satellites in range,GPS NMEA,Time since start in ms ,YYYY-MO-DD HH-MI-SS_SSS
-0.4232,9.8127,0.1516,-0.4297,9.7966,0.1104,0.0556,-0.0051,0.0772,0.0407,-0.0036,-0.0028,18.0,-35.03,1.2,340.74,-87.41,75.6,48.84386,2.353353,91.6,NaN,,13.99,,0 / 19,,6,2022-01-12 10:30:30:757
-0.4232,9.8127,0.1516,-0.4297,9.7966,0.1104,0.0556,-0.0051,0.0772,0.0407,-0.0036,-0.0028,18.0,-35.03,1.2,340.74,-87.41,75.6,48.84386,2.353353,91.6,NaN,,13.99,,0 / 19,,10,2022-01-12 10:30:30:761
-0.4232,9.8127,0.1516,-0.4297,9.7966,0.1104,0.0556,-0.0051,0.0772,0.0407,-0.0036,-0.0028,18.0,-35.03,1.2,340.74,-87.41,75.6,48.84386,2.353353,91.6,NaN,,13.99,,0 / 19,,16,2022-01-12 10:30:30:767
-0.434,9.8438,-0.0422,-0.4373,9.7967,0.0569,0.0107,0.0061,-0.0486,0.0407,-0.0036,-0.0028,18.0,-35.03,1.2,340.74,-87.41,75.6,48.84386,2.353353,91.6,NaN,,13.99,,0 / 19,,21,2022-01-12 10:30:30:772
-0.434,9.8438,-0.0422,-0.4373,9.7967,0.0569,0.0107,0.0061,-0.0486,0.0407,-0.0036,-0.0028,18.0,-35.03,1.2,340.74,-87.41,75.6,48.84386,2.353353,91.6,NaN,,13.99,,0 / 19,,29,2022-01-12 10:30:30:780
-0.434,9.8438,-0.0422,-0.4373,9.7967,0.0569,0.0107,0.0061,-0.0486,0.0407,-0.0036,-0.0028,18.0,-35.03,1.2,340.74,-87.41,75.6,48.84386,2.353353,91.6,NaN,,13.99,,0 / 19,,30,2022-01-12 10:30:30:781
-0.434,9.8438,-0.0422,-0.4373,9.7967,0.0569,0.0107,0.0061,-0.0486,0.0407,-0.0036,-0.0028,18.0,-35.03,1.2,340.74,-87.41,75.6,48.84386,2.353353,91.6,NaN,,13.99,,0 / 19,,35,2022-01-12 10:30:30:786
-0.434,9.8438,-0.0422,-0.4373,9.7967,0.0569,0.0107,0.0061,-0.0486,0.0407,-0.0036,-0.0028,18.0,-35.03,1.2,340.74,-87.41,75.6,48.84386,2.353353,91.6,NaN,,13.99,,0 / 19,,40,2022-01-12 10:30:30:791
-0.434,9.8438,-0.0422,-0.4373,9.7967,0.0569,0.0107,0.0061,-0.0486,0.0407,-0.0036,-0.0028,18.0,-35.03,1.2,340.74,-87.41,75.6,48.84386,2.353353,91.6,NaN,,13.99,,0 / 19,,45,2022-01-12 10:30:30:796
-0.434,9.8438,-0.0422,-0.4373,9.7967,0.0569,0.0107,0.0061,-0.0486,0.0407,-0.0036,-0.0028,18.0,-35.03,1.2,340.74,-87.41,75.6,48.84386,2.353353,91.6,NaN,,13.99,,0 / 19,,51,2022-01-12 10:30:30:802
-0.434,9.8438,-0.0422,-0.4373,9.7967,0.0569,0.0107,0.0061,-0.0486,0.0407,-0.0036,-0.0028,18.0,-35.03,1.2,340.74,-87.41,75.6,48.84386,2.353353,91.6,NaN,,13.99,,0 / 19,,56,2022-01-12 10:30:30:807
-0.434,9.8438,-0.0422,-0.4373,9.7967,0.0569,0.0107,0.0061,-0.0486,0.0407,-0.0036,-0.0028,18.0,-35.03,1.2,340.74,-87.41,75.6,48.84386,2.353353,91.6,NaN,,13.99,,0 / 19,,61,2022-01-12 10:30:30:812
-0.434,9.8438,-0.0422,-0.4373,9.7967,0.0569,0.0107,0.0061,-0.0486,0.0407,-0.0036,-0.0028,18.0,-35.03,1.2,340.74,-87.41,75.6,48.84386,2.353353,91.6,NaN,,13.99,,0 / 19,,66,2022-01-12 10:30:30:817
-0.434,9.8438,-0.0422,-0.4373,9.7967,0.0569,0.0107,0.0061,-0.0486,0.0407,-0.0036,-0.0028,18.0,-35.03,1.2,340.74,-87.41,75.6,48.84386,2.353353,91.6,NaN,,13.99,,0 / 19,,71,2022-01-12 10:30:30:822
-0.434,9.8438,-0.0422,-0.4373,9.7967,0.0569,0.0107,0.0061,-0.0486,0.0407,-0.0036,-0.0028,18.0,-35.03,1.2,340.74,-87.41,75.6,48.84386,2.353353,91.6,NaN,,13.99,,0 / 19,,75,2022-01-12 10:30:30:826
-0.434,9.8438,-0.0422,-0.4373,9.7967,0.0569,0.0107,0.0061,-0.0486,0.0407,-0.0036,-0.0028,18.0,-35.03,1.2,340.74,-87.41,75.6,48.84386,2.353353,91.6,NaN,,13.99,,0 / 19,,80,2022-01-12 10:30:30:831
-0.434,9.8438,-0.0422,-0.4373,9.7967,0.0569,0.0107,0.0061,-0.0486,0.0407,-0.0036,-0.0028,18.0,-35.03,1.2,340.74,-87.41,75.6,48.84386,2.353353,91.6,NaN,,13.99,,0 / 19,,86,2022-01-12 10:30:30:837
-0.3165,9.8055,0.0272,-0.4364,9.7968,0.0492,-0.0369,0.0137,-0.0581,0.0407,-0.0036,-0.0028,18.3,-35.48,1.35,349.46,-87.43,83.57,48.84386,2.353353,91.6,NaN,,13.99,,0 / 19,,91,2022-01-12 10:30:30:842
-0.3165,9.8055,0.0272,-0.4364,9.7968,0.0492,-0.0369,0.0137,-0.0581,0.0407,-0.0036,-0.0028,18.3,-35.48,1.35,349.46,-87.43,83.57,48.84386,2.353353,91.6,NaN,,13.99,,0 / 19,,96,2022-01-12 10:30:30:847
-0.3165,9.8055,0.0272,-0.4364,9.7968,0.0492,-0.0369,0.0137,-0.0581,0.0407,-0.0036,-0.0028,18.3,-35.48,1.35,349.46,-87.43,83.57,48.84386,2.353353,91.6,NaN,,13.99,,0 / 19,,101,2022-01-12 10:30:30:852
-0.3165,9.8055,0.0272,-0.4364,9.7968,0.0492,-0.0369,0.0137,-0.0581,0.0407,-0.0036,-0.0028,18.3,-35.48,1.35,349.46,-87.43,83.57,48.84386,2.353353,91.6,NaN,,13.99,,0 / 19,,106,2022-01-12 10:30:30:857
-0.3165,9.8055,0.0272,-0.4364,9.7968,0.0492,-0.0369,0.0137,-0.0581,0.0407,-0.0036,-0.0028,18.3,-35.48,1.35,349.46,-87.43,83.57,48.84386,2.353353,91.6,NaN,,13.99,,0 / 19,,111,2022-01-12 10:30:30:862
-0.3165,9.8055,0.0272,-0.4364,9.7968,0.0492,-0.0369,0.0137,-0.0581,0.0407,-0.0036,-0.0028,18.3,-35.48,1.35,349.46,-87.43,83.57,48.84386,2.353353,91.6,NaN,,13.99,,0 / 19,,115,2022-01-12 10:30:30:866
-0.3165,9.8055,0.0272,-0.4364,9.7968,0.0492,-0.0369,0.0137,-0.0581,0.0407,-0.0036,-0.0028,18.3,-35.48,1.35,349.46,-87.43,83.57,48.84386,2.353353,91.6,NaN,,13.99,,0 / 19,,121,2022-01-12 10:30:30:872
-0.3165,9.8055,0.0272,-0.4364,9.7968,0.0492,-0.0369,0.0137,-0.0581,0.0407,-0.0036,-0.0028,18.3,-35.48,1.35,349.46,-87.43,83.57,48.84386,2.353353,91.6,NaN,,13.99,,0 / 19,,126,2022-01-12 10:30:30:877
-0.3165,9.8055,0.0272,-0.4364,9.7968,0.0492,-0.0369,0.0137,-0.0581,-0.0475,0.0282,1.0E-4,18.3,-35.48,1.35,349.46,-87.43,83.57,48.84386,2.353353,91.6,NaN,,13.99,,0 / 19,,130,2022-01-12 10:30:30:881
-0.3165,9.8055,0.0272,-0.4364,9.7968,0.0492,-0.0369,0.0137,-0.0581,-0.0475,0.0282,1.0E-4,18.3,-35.48,1.35,349.46,-87.43,83.57,48.84386,2.353353,91.6,NaN,,13.99,,0 / 19,,136,2022-01-12 10:30:30:887
-0.3165,9.8055,0.0272,-0.4364,9.7968,0.0492,-0.0369,0.0137,-0.0581,-0.0475,0.0282,1.0E-4,18.3,-35.48,1.35,349.46,-87.43,83.57,48.84386,2.353353,91.6,NaN,,13.99,,0 / 19,,141,2022-01-12 10:30:30:892
-0.3165,9.8055,0.0272,-0.4364,9.7968,0.0492,-0.0369,0.0137,-0.0581,-0.0475,0.0282,1.0E-4,18.3,-35.48,1.35,349.46,-87.43,83.57,48.84386,2.353353,91.6,NaN,,13.99,,0 / 19,,145,2022-01-12 10:30:30:896
-0.3165,9.8055,0.0272,-0.4364,9.7968,0.0492,-0.0369,0.0137,-0.0581,-0.0475,0.0282,1.0E-4,18.3,-35.48,1.35,349.46,-87.43,83.57,48.84386,2.353353,91.6,NaN,,13.99,,0 / 19,,151,2022-01-12 10:30:30:902
-0.3885,9.7947,0.2321,-0.4343,9.7968,0.0601,0.0228,-0.0114,-0.1404,-0.0475,0.0282,1.0E-4,18.3,-35.48,1.35,349.46,-87.43,83.57,48.84386,2.353353,91.6,NaN,,13.99,,0 / 19,,155,2022-01-12 10:30:30:906
-0.3885,9.7947,0.2321,-0.4343,9.7968,0.0601,0.0228,-0.0114,-0.1404,-0.0475,0.0282,1.0E-4,18.3,-35.48,1.35,349.46,-87.43,83.57,48.84386,2.353353,91.6,NaN,,13.99,,0 / 19,,160,2022-01-12 10:30:30:911
-0.3885,9.7947,0.2321,-0.4343,9.7968,0.0601,0.0228,-0.0114,-0.1404,-0.0475,0.0282,1.0E-4,18.3,-35.48,1.35,349.46,-87.43,83.57,48.84386,2.353353,91.6,NaN,,13.99,,0 / 19,,166,2022-01-12 10:30:30:917
-0.3885,9.7947,0.2321,-0.4343,9.7968,0.0601,0.0228,-0.0114,-0.1404,-0.0475,0.0282,1.0E-4,18.3,-35.48,1.35,349.46,-87.43,83.57,48.84386,2.353353,91.6,NaN,,13.99,,0 / 19,,171,2022-01-12 10:30:30:922
-0.3885,9.7947,0.2321,-0.4343,9.7968,0.0601,0.0228,-0.0114,-0.1404,-0.0475,0.0282,1.0E-4,18.3,-35.48,1.35,349.46,-87.43,83.57,48.84386,2.353353,91.6,NaN,,13.99,,0 / 19,,176,2022-01-12 10:30:30:927
-0.3885,9.7947,0.2321,-0.4343,9.7968,0.0601,0.0228,-0.0114,-0.1404,-0.0475,0.0282,1.0E-4,18.3,-35.48,1.35,349.46,-87.43,83.57,48.84386,2.353353,91.6,NaN,,13.99,,0 / 19,,180,2022-01-12 10:30:30:931
-0.3885,9.7947,0.2321,-0.4343,9.7968,0.0601,0.0228,-0.0114,-0.1404,-0.0475,0.0282,1.0E-4,18.3,-35.48,1.35,349.46,-87.43,83.57,48.84386,2.353353,91.6,NaN,,13.99,,0 / 19,,186,2022-01-12 10:30:30:937
-0.3885,9.7947,0.2321,-0.4343,9.7968,0.0601,0.0228,-0.0114,-0.1404,-0.0475,0.0282,1.0E-4,18.3,-35.55,1.35,347.85,-87.44,82.12,48.84386,2.353353,91.6,NaN,,13.99,,0 / 19,,191,2022-01-12 10:30:30:942
-0.3885,9.7947,0.2321,-0.4343,9.7968,0.0601,0.0228,-0.0114,-0.1404,-0.0475,0.0282,1.0E-4,18.3,-35.55,1.35,347.85,-87.44,82.12,48.84386,2.353353,91.6,NaN,,13.99,,0 / 19,,196,2022-01-12 10:30:30:947
-0.3885,9.7947,0.2321,-0.4343,9.7968,0.0601,0.0228,-0.0114,-0.1404,-0.0475,0.0282,1.0E-4,18.3,-35.55,1.35,347.85,-87.44,82.12,48.84386,2.353353,91.6,NaN,,13.99,,0 / 19,,201,2022-01-12 10:30:30:952
-0.3885,9.7947,0.2321,-0.4343,9.7968,0.0601,0.0228,-0.0114,-0.1404,-0.0475,0.0282,1.0E-4,18.3,-35.55,1.35,347.85,-87.44,82.12,48.84386,2.353353,91.6,NaN,,13.99,,0 / 19,,206,2022-01-12 10:30:30:957
-0.3885,9.7947,0.2321,-0.4343,9.7968,0.0601,0.0228,-0.0114,-0.1404,-0.0475,0.0282,1.0E-4,18.3,-35.55,1.35,347.85,-87.44,82.12,48.84386,2.353353,91.6,NaN,,13.99,,0 / 19,,210,2022-01-12 10:30:30:961
-0.3885,9.7947,0.2321,-0.4343,9.7968,0.0601,0.0228,-0.0114,-0.1404,-0.0475,0.0282,1.0E-4,18.3,-35.55,1.35,347.85,-87.44,82.12,48.84386,2.353353,91.6,NaN,,13.99,,0 / 19,,216,2022-01-12 10:30:30:967
-0.3885,9.7947,0.2321,-0.4343,9.7968,0.0601,0.0228,-0.0114,-0.1404,-0.0475,0.0282,1.0E-4,18.3,-35.55,1.35,347.85,-87.44,82.12,48.84386,2.353353,91.6,NaN,,13.99,,0 / 19,,221,2022-01-12 10:30:30:972
-0.3885,9.7947,0.2321,-0.4343,9.7968,0.0601,0.0228,-0.0114,-0.1404,-0.0475,0.0282,1.0E-4,18.3,-35.55,1.35,347.85,-87.44,82.12,48.84386,2.353353,91.6,NaN,,13.99,,0 / 19,,226,2022-01-12 10:30:30:977
-0.3885,9.7947,0.2321,-0.4343,9.7968,0.0601,0.0228,-0.0114,-0.1404,-0.0475,0.0282,1.0E-4,18.3,-35.55,1.35,347.85,-87.44,82.12,48.84386,2.353353,91.6,NaN,,13.99,,0 / 19,,230,2022-01-12 10:30:30:981
-0.3885,9.7947,0.2321,-0.4343,9.7968,0.0601,0.0228,-0.0114,-0.1404,-0.0475,0.0282,1.0E-4,18.3,-35.55,1.35,347.85,-87.44,82.12,48.84386,2.353353,91.6,NaN,,13.99,,0 / 19,,235,2022-01-12 10:30:30:986
-0.3885,9.7947,0.2321,-0.4343,9.7968,0.0601,0.0228,-0.0114,-0.1404,-0.0475,0.0282,1.0E-4,18.3,-35.55,1.35,347.85,-87.44,82.12,48.84386,2.353353,91.6,NaN,,13.99,,0 / 19,,240,2022-01-12 10:30:30:991
-0.4831,9.8139,0.0691,-0.4343,9.7968,0.0601,0.0228,-0.0114,-0.1404,-0.0475,0.0282,1.0E-4,18.3,-35.55,1.35,347.85,-87.44,82.12,48.84386,2.353353,91.6,NaN,,13.99,,0 / 19,,246,2022-01-12 10:30:30:997
-0.4831,9.8139,0.0691,-0.4343,9.7968,0.0601,0.0228,-0.0114,-0.1404,-0.0475,0.0282,1.0E-4,18.3,-35.55,1.35,347.85,-87.44,82.12,48.84386,2.353353,91.6,NaN,,13.99,,0 / 19,,250,2022-01-12 10:30:31:001
-0.4831,9.8139,0.0691,-0.4343,9.7968,0.0601,0.0228,-0.0114,-0.1404,-0.0475,0.0282,1.0E-4,18.3,-35.55,1.35,347.85,-87.44,82.12,48.84386,2.353353,91.6,NaN,,13.99,,0 / 19,,256,2022-01-12 10:30:31:007
-0.4831,9.8139,0.0691,-0.4343,9.7968,0.0601,0.0228,-0.0114,-0.1404,-0.0475,0.0282,1.0E-4,18.3,-35.55,1.35,347.85,-87.44,82.12,48.84386,2.353353,91.6,NaN,,13.99,,0 / 19,,260,2022-01-12 10:30:31:011
-0.4831,9.8139,0.0691,-0.4275,9.7973,0.0333,-0.0399,0.0075,0.2158,0.1033,0.0172,0.0172,18.3,-35.55,1.35,347.85,-87.44,82.12,48.84386,2.353353,91.6,NaN,,13.99,,0 / 19,,265,2022-01-12 10:30:31:016
-0.4831,9.8139,0.0691,-0.4275,9.7973,0.0333,-0.0399,0.0075,0.2158,0.1033,0.0172,0.0172,18.3,-35.55,1.35,347.85,-87.44,82.12,48.84386,2.353353,91.6,NaN,,13.99,,0 / 19,,270,2022-01-12 10:30:31:021
-0.4831,9.8139,0.0691,-0.4275,9.7973,0.0333,-0.0399,0.0075,0.2158,0.1033,0.0172,0.0172,18.3,-35.55,1.35,347.85,-87.44,82.12,48.84386,2.353353,91.6,NaN,,13.99,,0 / 19,,275,2022-01-12 10:30:31:026
-0.4831,9.8139,0.0691,-0.4275,9.7973,0.0333,-0.0399,0.0075,0.2158,0.1033,0.0172,0.0172,18.3,-35.55,1.35,347.85,-87.44,82.12,48.84386,2.353353,91.6,NaN,,13.99,,0 / 19,,280,2022-01-12 10:30:31:031
-0.4831,9.8139,0.0691,-0.4275,9.7973,0.0333,-0.0399,0.0075,0.2158,0.1033,0.0172,0.0172,18.3,-35.55,1.35,347.85,-87.44,82.12,48.84386,2.353353,91.6,NaN,,13.99,,0 / 19,,285,2022-01-12 10:30:31:036
-0.4831,9.8139,0.0691,-0.4275,9.7973,0.0333,-0.0399,0.0075,0.2158,0.1033,0.0172,0.0172,18.3,-35.55,1.35,347.85,-87.44,82.12,48.84386,2.353353,91.6,NaN,,13.99,,0 / 19,,290,2022-01-12 10:30:31:041
-0.4831,9.8139,0.0691,-0.4275,9.7973,0.0333,-0.0399,0.0075,0.2158,0.1033,0.0172,0.0172,18.15,-35.85,1.8,348.18,-87.49,85.55,48.84386,2.353353,91.6,NaN,,13.99,,0 / 19,,296,2022-01-12 10:30:31:047
-0.4831,9.8139,0.0691,-0.4275,9.7973,0.0333,-0.0399,0.0075,0.2158,0.1033,0.0172,0.0172,18.15,-35.85,1.8,348.18,-87.49,85.55,48.84386,2.353353,91.6,NaN,,13.99,,0 / 19,,300,2022-01-12 10:30:31:051
-0.4831,9.8139,0.0691,-0.4275,9.7973,0.0333,-0.0399,0.0075,0.2158,0.1033,0.0172,0.0172,18.15,-35.85,1.8,348.18,-87.49,85.55,48.84386,2.353353,91.6,NaN,,13.99,,0 / 19,,305,2022-01-12 10:30:31:056
-0.4831,9.8139,0.0691,-0.4275,9.7973,0.0333,-0.0399,0.0075,0.2158,0.1033,0.0172,0.0172,18.15,-35.85,1.8,348.18,-87.49,85.55,48.84386,2.353353,91.6,NaN,,13.99,,0 / 19,,310,2022-01-12 10:30:31:061
-0.4831,9.8139,0.0691,-0.4275,9.7973,0.0333,-0.0399,0.0075,0.2158,0.1033,0.0172,0.0172,18.15,-35.85,1.8,348.18,-87.49,85.55,48.84386,2.353353,91.6,NaN,,13.99,,0 / 19,,315,2022-01-12 10:30:31:066
-0.4831,9.8139,0.0691,-0.4275,9.7973,0.0333,-0.0399,0.0075,0.2158,0.1033,0.0172,0.0172,18.15,-35.85,1.8,348.18,-87.49,85.55,48.84386,2.353353,91.6,NaN,,13.99,,0 / 19,,320,2022-01-12 10:30:31:071
-0.4831,9.8139,0.0691,-0.4275,9.7973,0.0333,-0.0399,0.0075,0.2158,0.1033,0.0172,0.0172,18.15,-35.85,1.8,348.18,-87.49,85.55,48.84386,2.353353,91.6,NaN,,13.99,,0 / 19,,325,2022-01-12 10:30:31:076
-0.4137,9.8079,-0.1322,-0.418,9.7977,-0.0269,-0.033,-0.0063,0.0345,0.1033,0.0172,0.0172,18.15,-35.85,1.8,348.18,-87.49,85.55,48.84386,2.353353,91.6,NaN,,13.99,,0 / 19,,330,2022-01-12 10:30:31:081
-0.4137,9.8079,-0.1322,-0.418,9.7977,-0.0269,-0.033,-0.0063,0.0345,0.1033,0.0172,0.0172,18.15,-35.85,1.8,348.18,-87.49,85.55,48.84386,2.353353,91.6,NaN,,13.99,,0 / 19,,335,2022-01-12 10:30:31:086
-0.4137,9.8079,-0.1322,-0.418,9.7977,-0.0269,-0.033,-0.0063,0.0345,0.1033,0.0172,0.0172,18.15,-35.85,1.8,348.18,-87.49,85.55,48.84386,2.353353,91.6,NaN,,13.99,,0 / 19,,340,2022-01-12 10:30:31:091
-0.4137,9.8079,-0.1322,-0.418,9.7977,-0.0269,-0.033,-0.0063,0.0345,0.1033,0.0172,0.0172,18.15,-35.85,1.8,348.18,-87.49,85.55,48.84386,2.353353,91.6,NaN,,13.99,,0 / 19,,345,2022-01-12 10:30:31:096
-0.4137,9.8079,-0.1322,-0.418,9.7977,-0.0269,-0.033,-0.0063,0.0345,0.1033,0.0172,0.0172,18.15,-35.85,1.8,348.18,-87.49,85.55,48.84386,2.353353,91.6,NaN,,13.99,,0 / 19,,350,2022-01-12 10:30:31:101
-0.4137,9.8079,-0.1322,-0.418,9.7977,-0.0269,-0.033,-0.0063,0.0345,0.1033,0.0172,0.0172,18.15,-35.85,1.8,348.18,-87.49,85.55,48.84386,2.353353,91.6,NaN,,13.99,,0 / 19,,355,2022-01-12 10:30:31:106
-0.4137,9.8079,-0.1322,-0.418,9.7977,-0.0269,-0.033,-0.0063,0.0345,0.1033,0.0172,0.0172,18.15,-35.85,1.8,348.18,-87.49,85.55,48.84386,2.353353,91.6,NaN,,13.99,,0 / 19,,360,2022-01-12 10:30:31:111
-0.4137,9.8079,-0.1322,-0.418,9.7977,-0.0269,-0.033,-0.0063,0.0345,0.1033,0.0172,0.0172,18.15,-35.85,1.8,348.18,-87.49,85.55,48.84386,2.353353,91.6,NaN,,13.99,,0 / 19,,365,2022-01-12 10:30:31:116
-0.4137,9.8079,-0.1322,-0.418,9.7977,-0.0269,-0.033,-0.0063,0.0345,0.1033,0.0172,0.0172,18.15,-35.85,1.8,348.18,-87.49,85.55,48.84386,2.353353,91.6,NaN,,13.99,,0 / 19,,370,2022-01-12 10:30:31:121
-0.4137,9.8079,-0.1322,-0.418,9.7977,-0.0269,-0.033,-0.0063,0.0345,0.1033,0.0172,0.0172,18.15,-35.85,1.8,348.18,-87.49,85.55,48.84386,2.353353,91.6,NaN,,13.99,,0 / 19,,375,2022-01-12 10:30:31:126
-0.4137,9.8079,-0.1322,-0.418,9.7977,-0.0269,-0.033,-0.0063,0.0345,0.1033,0.0172,0.0172,18.15,-35.85,1.8,348.18,-87.49,85.55,48.84386,2.353353,91.6,NaN,,13.99,,0 / 19,,381,2022-01-12 10:30:31:132
-0.4675,9.8127,-0.2327,-0.418,9.7977,-0.0269,-0.033,-0.0063,0.0345,0.1033,0.0172,0.0172,18.15,-35.85,1.8,348.18,-87.49,85.55,48.84386,2.353353,91.6,NaN,,13.99,,0 / 19,,385,2022-01-12 10:30:31:136
-0.4675,9.8127,-0.2327,-0.418,9.7977,-0.0269,-0.033,-0.0063,0.0345,0.1033,0.0172,0.0172,18.15,-35.85,1.8,348.18,-87.49,85.55,48.84386,2.353353,91.6,NaN,,13.99,,0 / 19,,390,2022-01-12 10:30:31:141
-0.4675,9.8127,-0.2327,-0.418,9.7977,-0.0269,-0.033,-0.0063,0.0345,0.1033,0.0172,0.0172,17.93,-35.7,1.88,357.09,-87.55,93.68,48.84386,2.353353,91.6,NaN,,13.99,,0 / 19,,395,2022-01-12 10:30:31:146
-0.4675,9.8127,-0.2327,-0.418,9.7977,-0.0269,-0.033,-0.0063,0.0345,0.1033,0.0172,0.0172,17.93,-35.7,1.88,357.09,-87.55,93.68,48.84386,2.353353,91.6,NaN,,13.99,,0 / 19,,400,2022-01-12 10:30:31:151
-0.4675,9.8127,-0.2327,-0.418,9.7977,-0.0269,-0.033,-0.0063,0.0345,0.0593,0.5276,0.0027,17.93,-35.7,1.88,357.09,-87.55,93.68,48.84386,2.353353,91.6,NaN,,13.99,,0 / 19,,405,2022-01-12 10:30:31:156
-0.4675,9.8127,-0.2327,-0.418,9.7977,-0.0269,-0.033,-0.0063,0.0345,0.0593,0.5276,0.0027,17.93,-35.7,1.88,357.09,-87.55,93.68,48.84386,2.353353,91.6,NaN,,13.99,,0 / 19,,410,2022-01-12 10:30:31:161
-0.4675,9.8127,-0.2327,-0.418,9.7977,-0.0269,-0.033,-0.0063,0.0345,0.0593,0.5276,0.0027,17.93,-35.7,1.88,357.09,-87.55,93.68,48.84386,2.353353,91.6,NaN,,13.99,,0 / 19,,415,2022-01-12 10:30:31:166
-0.4675,9.8127,-0.2327,-0.418,9.7977,-0.0269,-0.033,-0.0063,0.0345,0.0593,0.5276,0.0027,17.93,-35.7,1.88,357.09,-87.55,93.68,48.84386,2.353353,91.6,NaN,,13.99,,0 / 19,,420,2022-01-12 10:30:31:171
-0.4675,9.8127,-0.2327,-0.418,9.7977,-0.0269,-0.033,-0.0063,0.0345,0.0593,0.5276,0.0027,17.93,-35.7,1.88,357.09,-87.55,93.68,48.84386,2.353353,91.6,NaN,,13.99,,0 / 19,,426,2022-01-12 10:30:31:177
-0.4675,9.8127,-0.2327,-0.418,9.7977,-0.0269,-0.033,-0.0063,0.0345,0.0593,0.5276,0.0027,17.93,-35.7,1.88,357.09,-87.55,93.68,48.84386,2.353353,91.6,NaN,,13.99,,0 / 19,,431,2022-01-12 10:30:31:182
-0.4675,9.8127,-0.2327,-0.418,9.7977,-0.0269,-0.033,-0.0063,0.0345,0.0593,0.5276,0.0027,17.93,-35.7,1.88,357.09,-87.55,93.68,48.84386,2.353353,91.6,NaN,,13.99,,0 / 19,,435,2022-01-12 10:30:31:186
-0.4675,9.8127,-0.2327,-0.418,9.7977,-0.0269,-0.033,-0.0063,0.0345,0.0593,0.5276,0.0027,17.93,-35.7,1.88,357.09,-87.55,93.68,48.84386,2.353353,91.6,NaN,,13.99,,0 / 19,,440,2022-01-12 10:30:31:191
-0.2124,9.8186,-0.1956,-0.4066,9.7975,-0.1221,-0.0092,-0.0064,-0.039,0.0593,0.5276,0.0027,17.93,-35.7,1.88,357.09,-87.55,93.68,48.84386,2.353353,91.6,NaN,,13.99,,0 / 19,,445,2022-01-12 10:30:31:196
-0.2124,9.8186,-0.1956,-0.4066,9.7975,-0.1221,-0.0092,-0.0064,-0.039,0.0593,0.5276,0.0027,17.93,-35.7,1.88,357.09,-87.55,93.68,48.84386,2.353353,91.6,NaN,,13.99,,0 / 19,,450,2022-01-12 10:30:31:201
-0.2124,9.8186,-0.1956,-0.4066,9.7975,-0.1221,-0.0092,-0.0064,-0.039,0.0593,0.5276,0.0027,17.93,-35.7,1.88,357.09,-87.55,93.68,48.84386,2.353353,91.6,NaN,,13.99,,0 / 19,,455,2022-01-12 10:30:31:206
-0.2124,9.8186,-0.1956,-0.4066,9.7975,-0.1221,-0.0092,-0.0064,-0.039,0.0593,0.5276,0.0027,17.93,-35.7,1.88,357.09,-87.55,93.68,48.84386,2.353353,91.6,NaN,,13.99,,0 / 19,,460,2022-01-12 10:30:31:211
-0.2124,9.8186,-0.1956,-0.4066,9.7975,-0.1221,-0.0092,-0.0064,-0.039,0.0593,0.5276,0.0027,17.93,-35.7,1.88,357.09,-87.55,93.68,48.84386,2.353353,91.6,NaN,,13.99,,0 / 19,,465,2022-01-12 10:30:31:216
-0.2124,9.8186,-0.1956,-0.4066,9.7975,-0.1221,-0.0092,-0.0064,-0.039,0.0593,0.5276,0.0027,17.93,-35.7,1.88,357.09,-87.55,93.68,48.84386,2.353353,91.6,NaN,,13.99,,0 / 19,,470,2022-01-12 10:30:31:221
-0.2124,9.8186,-0.1956,-0.4066,9.7975,-0.1221,-0.0092,-0.0064,-0.039,0.0593,0.5276,0.0027,17.93,-35.7,1.88,357.09,-87.55,93.68,48.84386,2.353353,91.6,NaN,,13.99,,0 / 19,,476,2022-01-12 10:30:31:227
-0.2124,9.8186,-0.1956,-0.4066,9.7975,-0.1221,-0.0092,-0.0064,-0.039,0.0593,0.5276,0.0027,17.93,-35.7,1.88,357.09,-87.55,93.68,48.84386,2.353353,91.6,NaN,,13.99,,0 / 19,,480,2022-01-12 10:30:31:231
-0.2124,9.8186,-0.1956,-0.4066,9.7975,-0.1221,-0.0092,-0.0064,-0.039,0.0593,0.5276,0.0027,17.93,-35.7,1.88,357.09,-87.55,93.68,48.84386,2.353353,91.6,NaN,,13.99,,0 / 19,,485,2022-01-12 10:30:31:236
-0.2124,9.8186,-0.1956,-0.4066,9.7975,-0.1221,-0.0092,-0.0064,-0.039,0.0593,0.5276,0.0027,17.93,-35.7,1.88,357.09,-87.55,93.68,48.84386,2.353353,91.6,NaN,,13.99,,0 / 19,,491,2022-01-12 10:30:31:242
-0.2124,9.8186,-0.1956,-0.4066,9.7975,-0.1221,-0.0092,-0.0064,-0.039,0.0593,0.5276,0.0027,18.38,-35.48,2.7,7.92,-87.52,106.72,48.84386,2.353353,91.6,NaN,,13.99,,0 / 19,,496,2022-01-12 10:30:31:247
-0.2124,9.8186,-0.1956,-0.4066,9.7975,-0.1221,-0.0092,-0.0064,-0.039,0.0593,0.5276,0.0027,18.38,-35.48,2.7,7.92,-87.52,106.72,48.84386,2.353353,91.6,NaN,,13.99,,0 / 19,,501,2022-01-12 10:30:31:252
-0.4663,9.7911,-0.125,-0.4205,9.796,-0.1792,0.1424,0.0161,-0.0018,0.0593,0.5276,0.0027,18.38,-35.48,2.7,7.92,-87.52,106.72,48.84386,2.353353,91.6,NaN,,13.99,,0 / 19,,527,2022-01-12 10:30:31:278
-0.4663,9.7911,-0.125,-0.4205,9.796,-0.1792,0.1424,0.0161,-0.0018,0.1004,0.9498,-0.0694,18.38,-35.48,2.7,7.92,-87.52,106.72,48.84386,2.353353,91.6,NaN,,13.99,,0 / 19,,528,2022-01-12 10:30:31:279
-0.4663,9.7911,-0.125,-0.4205,9.796,-0.1792,0.1424,0.0161,-0.0018,0.1004,0.9498,-0.0694,18.38,-35.48,2.7,7.92,-87.52,106.72,48.84386,2.353353,91.6,NaN,,13.99,,0 / 19,,528,2022-01-12 10:30:31:279
-0.4663,9.7911,-0.125,-0.4205,9.796,-0.1792,0.1424,0.0161,-0.0018,0.1004,0.9498,-0.0694,18.38,-35.48,2.7,7.92,-87.52,106.72,48.84386,2.353353,91.6,NaN,,13.99,,0 / 19,,528,2022-01-12 10:30:31:279
-0.4663,9.7911,-0.125,-0.4205,9.796,-0.1792,0.1424,0.0161,-0.0018,0.1004,0.9498,-0.0694,18.38,-35.48,2.7,7.92,-87.52,106.72,48.84386,2.353353,91.6,NaN,,13.99,,0 / 19,,528,2022-01-12 10:30:31:279
-0.4663,9.7911,-0.125,-0.4205,9.796,-0.1792,0.1424,0.0161,-0.0018,0.1004,0.9498,-0.0694,18.38,-35.48,2.7,7.92,-87.52,106.72,48.84386,2.353353,91.6,NaN,,13.99,,0 / 19,,531,2022-01-12 10:30:31:282
-0.4663,9.7911,-0.125,-0.4205,9.796,-0.1792,0.1424,0.0161,-0.0018,0.1004,0.9498,-0.0694,18.38,-35.48,2.7,7.92,-87.52,106.72,48.84386,2.353353,91.6,NaN,,13.99,,0 / 19,,535,2022-01-12 10:30:31:286
-0.4663,9.7911,-0.125,-0.4205,9.796,-0.1792,0.1424,0.0161,-0.0018,0.1004,0.9498,-0.0694,18.38,-35.48,2.7,7.92,-87.52,106.72,48.84386,2.353353,91.6,NaN,,13.99,,0 / 19,,540,2022-01-12 10:30:31:291
-0.4663,9.7911,-0.125,-0.4205,9.796,-0.1792,0.1424,0.0161,-0.0018,0.1004,0.9498,-0.0694,18.38,-35.48,2.7,7.92,-87.52,106.72,48.84386,2.353353,91.6,NaN,,13.99,,0 / 19,,545,2022-01-12 10:30:31:296
-0.4663,9.7911,-0.125,-0.4205,9.796,-0.1792,0.1424,0.0161,-0.0018,0.1004,0.9498,-0.0694,18.38,-35.48,2.7,7.92,-87.52,106.72,48.84386,2.353353,91.6,NaN,,13.99,,0 / 19,,551,2022-01-12 10:30:31:302
-0.4663,9.7911,-0.125,-0.4205,9.796,-0.1792,0.1424,0.0161,-0.0018,0.1004,0.9498,-0.0694,18.38,-35.48,2.7,7.92,-87.52,106.72,48.84386,2.353353,91.6,NaN,,13.99,,0 / 19,,555,2022-01-12 10:30:31:306
-0.4663,9.7911,-0.125,-0.4205,9.796,-0.1792,0.1424,0.0161,-0.0018,0.1004,0.9498,-0.0694,18.38,-35.48,2.7,7.92,-87.52,106.72,48.84386,2.353353,91.6,NaN,,13.99,,0 / 19,,560,2022-01-12 10:30:31:311
-0.4663,9.7911,-0.125,-0.4205,9.796,-0.1792,0.1424,0.0161,-0.0018,0.1004,0.9498,-0.0694,18.38,-35.48,2.7,7.92,-87.52,106.72,48.84386,2.353353,91.6,NaN,,13.99,,0 / 19,,566,2022-01-12 10:30:31:317
-0.4663,9.7911,-0.125,-0.4205,9.796,-0.1792,0.1424,0.0161,-0.0018,0.1004,0.9498,-0.0694,18.38,-35.48,2.7,7.92,-87.52,106.72,48.84386,2.353353,91.6,NaN,,13.99,,0 / 19,,570,2022-01-12 10:30:31:321
-0.4663,9.7911,-0.125,-0.4205,9.796,-0.1792,0.1424,0.0161,-0.0018,0.1004,0.9498,-0.0694,18.38,-35.48,2.7,7.92,-87.52,106.72,48.84386,2.353353,91.6,NaN,,13.99,,0 / 19,,575,2022-01-12 10:30:31:326
-0.4663,9.7911,-0.125,-0.4205,9.796,-0.1792,0.1424,0.0161,-0.0018,0.1004,0.9498,-0.0694,18.38,-35.48,2.7,7.92,-87.52,106.72,48.84386,2.353353,91.6,NaN,,13.99,,0 / 19,,580,2022-01-12 10:30:31:331
-0.4783,9.7585,-0.2279,-0.4534,9.7929,-0.2528,-0.0171,-0.0072,0.2012,0.1004,0.9498,-0.0694,18.38,-35.48,2.7,7.92,-87.52,106.72,48.84386,2.353353,91.6,NaN,,13.99,,0 / 19,,586,2022-01-12 10:30:31:337
-0.4783,9.7585,-0.2279,-0.4534,9.7929,-0.2528,-0.0171,-0.0072,0.2012,0.1004,0.9498,-0.0694,18.38,-35.48,2.7,7.92,-87.52,106.72,48.84386,2.353353,91.6,NaN,,13.99,,0 / 19,,590,2022-01-12 10:30:31:341
-0.4783,9.7585,-0.2279,-0.4534,9.7929,-0.2528,-0.0171,-0.0072,0.2012,0.1004,0.9498,-0.0694,18.53,-35.32,3.23,22.29,-86.97,119.14,48.84386,2.353353,91.6,NaN,,13.99,,0 / 19,,595,2022-01-12 10:30:31:346
-0.4783,9.7585,-0.2279,-0.4534,9.7929,-0.2528,-0.0171,-0.0072,0.2012,0.1004,0.9498,-0.0694,18.53,-35.32,3.23,22.29,-86.97,119.14,48.84386,2.353353,91.6,NaN,,13.99,,0 / 19,,600,2022-01-12 10:30:31:351
-0.4783,9.7585,-0.2279,-0.4534,9.7929,-0.2528,-0.0171,-0.0072,0.2012,0.1004,0.9498,-0.0694,18.53,-35.32,3.23,22.29,-86.97,119.14,48.84386,2.353353,91.6,NaN,,13.99,,0 / 19,,605,2022-01-12 10:30:31:356
-0.4783,9.7585,-0.2279,-0.4534,9.7929,-0.2528,-0.0171,-0.0072,0.2012,0.1004,0.9498,-0.0694,18.53,-35.32,3.23,22.29,-86.97,119.14,48.84386,2.353353,91.6,NaN,,13.99,,0 / 19,,611,2022-01-12 10:30:31:362
-0.4783,9.7585,-0.2279,-0.4534,9.7929,-0.2528,-0.0171,-0.0072,0.2012,0.1004,0.9498,-0.0694,18.53,-35.32,3.23,22.29,-86.97,119.14,48.84386,2.353353,91.6,NaN,,13.99,,0 / 19,,616,2022-01-12 10:30:31:367
-0.4783,9.7585,-0.2279,-0.4534,9.7929,-0.2528,-0.0171,-0.0072,0.2012,0.1004,0.9498,-0.0694,18.53,-35.32,3.23,22.29,-86.97,119.14,48.84386,2.353353,91.6,NaN,,13.99,,0 / 19,,620,2022-01-12 10:30:31:371
-0.4783,9.7585,-0.2279,-0.4534,9.7929,-0.2528,-0.0171,-0.0072,0.2012,0.1004,0.9498,-0.0694,18.53,-35.32,3.23,22.29,-86.97,119.14,48.84386,2.353353,91.6,NaN,,13.99,,0 / 19,,625,2022-01-12 10:30:31:376
-0.4783,9.7585,-0.2279,-0.4534,9.7929,-0.2528,-0.0171,-0.0072,0.2012,0.1004,0.9498,-0.0694,18.53,-35.32,3.23,22.29,-86.97,119.14,48.84386,2.353353,91.6,NaN,,13.99,,0 / 19,,630,2022-01-12 10:30:31:381
-0.4783,9.7585,-0.2279,-0.4534,9.7929,-0.2528,-0.0171,-0.0072,0.2012,0.1004,0.9498,-0.0694,18.53,-35.32,3.23,22.29,-86.97,119.14,48.84386,2.353353,91.6,NaN,,13.99,,0 / 19,,635,2022-01-12 10:30:31:386
-0.562,9.7609,-0.2877,-0.4534,9.7929,-0.2528,-0.0171,-0.0072,0.2012,0.1004,0.9498,-0.0694,18.53,-35.32,3.23,22.29,-86.97,119.14,48.84386,2.353353,91.6,NaN,,13.99,,0 / 19,,640,2022-01-12 10:30:31:391
-0.562,9.7609,-0.2877,-0.4534,9.7929,-0.2528,-0.0171,-0.0072,0.2012,0.1004,0.9498,-0.0694,18.53,-35.32,3.23,22.29,-86.97,119.14,48.84386,2.353353,91.6,NaN,,13.99,,0 / 19,,645,2022-01-12 10:30:31:396
-0.562,9.7609,-0.2877,-0.4534,9.7929,-0.2528,-0.0171,-0.0072,0.2012,0.1004,0.9498,-0.0694,18.53,-35.32,3.23,22.29,-86.97,119.14,48.84386,2.353353,91.6,NaN,,13.99,,0 / 19,,650,2022-01-12 10:30:31:401
-0.562,9.7609,-0.2877,-0.4534,9.7929,-0.2528,-0.0171,-0.0072,0.2012,0.1004,0.9498,-0.0694,18.53,-35.32,3.23,22.29,-86.97,119.14,48.84386,2.353353,91.6,NaN,,13.99,,0 / 19,,655,2022-01-12 10:30:31:406
-0.562,9.7609,-0.2877,-0.4534,9.7929,-0.2528,-0.0171,-0.0072,0.2012,0.1597,0.9409,-0.0828,18.53,-35.32,3.23,22.29,-86.97,119.14,48.84386,2.353353,91.6,NaN,,13.99,,0 / 19,,660,2022-01-12 10:30:31:411
-0.562,9.7609,-0.2877,-0.4534,9.7929,-0.2528,-0.0171,-0.0072,0.2012,0.1597,0.9409,-0.0828,18.53,-35.32,3.23,22.29,-86.97,119.14,48.84386,2.353353,91.6,NaN,,13.99,,0 / 19,,666,2022-01-12 10:30:31:417
-0.562,9.7609,-0.2877,-0.4534,9.7929,-0.2528,-0.0171,-0.0072,0.2012,0.1597,0.9409,-0.0828,18.53,-35.32,3.23,22.29,-86.97,119.14,48.84386,2.353353,91.6,NaN,,13.99,,0 / 19,,670,2022-01-12 10:30:31:421
-0.562,9.7609,-0.2877,-0.4534,9.7929,-0.2528,-0.0171,-0.0072,0.2012,0.1597,0.9409,-0.0828,18.53,-35.32,3.23,22.29,-86.97,119.14,48.84386,2.353353,91.6,NaN,,13.99,,0 / 19,,676,2022-01-12 10:30:31:427
-0.562,9.7609,-0.2877,-0.4534,9.7929,-0.2528,-0.0171,-0.0072,0.2012,0.1597,0.9409,-0.0828,18.53,-35.32,3.23,22.29,-86.97,119.14,48.84386,2.353353,91.6,NaN,,13.99,,0 / 19,,681,2022-01-12 10:30:31:432
-0.562,9.7609,-0.2877,-0.4534,9.7929,-0.2528,-0.0171,-0.0072,0.2012,0.1597,0.9409,-0.0828,18.53,-35.32,3.23,22.29,-86.97,119.14,48.84386,2.353353,91.6,NaN,,13.99,,0 / 19,,685,2022-01-12 10:30:31:436
-0.562,9.7609,-0.2877,-0.5163,9.7822,-0.4616,-0.0278,-0.0055,0.1434,0.1597,0.9409,-0.0828,18.53,-35.32,3.23,22.29,-86.97,119.14,48.84386,2.353353,91.6,NaN,,13.99,,0 / 19,,690,2022-01-12 10:30:31:441
-0.562,9.7609,-0.2877,-0.5163,9.7822,-0.4616,-0.0278,-0.0055,0.1434,0.1597,0.9409,-0.0828,18.53,-35.1,4.95,30.82,-85.95,131.8,48.84386,2.353353,91.6,NaN,,13.99,,0 / 19,,695,2022-01-12 10:30:31:446
-0.562,9.7609,-0.2877,-0.5163,9.7822,-0.4616,-0.0278,-0.0055,0.1434,0.1597,0.9409,-0.0828,18.53,-35.1,4.95,30.82,-85.95,131.8,48.84386,2.353353,91.6,NaN,,13.99,,0 / 19,,700,2022-01-12 10:30:31:451
-0.562,9.7609,-0.2877,-0.5163,9.7822,-0.4616,-0.0278,-0.0055,0.1434,0.1597,0.9409,-0.0828,18.53,-35.1,4.95,30.82,-85.95,131.8,48.84386,2.353353,91.6,NaN,,13.99,,0 / 19,,705,2022-01-12 10:30:31:456
-0.562,9.7609,-0.2877,-0.5163,9.7822,-0.4616,-0.0278,-0.0055,0.1434,0.1597,0.9409,-0.0828,18.53,-35.1,4.95,30.82,-85.95,131.8,48.84386,2.353353,91.6,NaN,,13.99,,0 / 19,,710,2022-01-12 10:30:31:461
-0.562,9.7609,-0.2877,-0.5163,9.7822,-0.4616,-0.0278,-0.0055,0.1434,0.1597,0.9409,-0.0828,18.53,-35.1,4.95,30.82,-85.95,131.8,48.84386,2.353353,91.6,NaN,,13.99,,0 / 19,,715,2022-01-12 10:30:31:466
-0.562,9.7609,-0.2877,-0.5163,9.7822,-0.4616,-0.0278,-0.0055,0.1434,0.1597,0.9409,-0.0828,18.53,-35.1,4.95,30.82,-85.95,131.8,48.84386,2.353353,91.6,NaN,,13.99,,0 / 19,,720,2022-01-12 10:30:31:471
-0.562,9.7609,-0.2877,-0.5163,9.7822,-0.4616,-0.0278,-0.0055,0.1434,0.1597,0.9409,-0.0828,18.53,-35.1,4.95,30.82,-85.95,131.8,48.84386,2.353353,91.6,NaN,,13.99,,0 / 19,,725,2022-01-12 10:30:31:476
-0.7621,9.7875,-0.6437,-0.5163,9.7822,-0.4616,-0.0278,-0.0055,0.1434,0.1597,0.9409,-0.0828,18.53,-35.1,4.95,30.82,-85.95,131.8,48.84386,2.353353,91.6,NaN,,13.99,,0 / 19,,730,2022-01-12 10:30:31:481
-0.7621,9.7875,-0.6437,-0.5163,9.7822,-0.4616,-0.0278,-0.0055,0.1434,0.1597,0.9409,-0.0828,18.53,-35.1,4.95,30.82,-85.95,131.8,48.84386,2.353353,91.6,NaN,,13.99,,0 / 19,,735,2022-01-12 10:30:31:486
-0.7621,9.7875,-0.6437,-0.5163,9.7822,-0.4616,-0.0278,-0.0055,0.1434,0.1597,0.9409,-0.0828,18.53,-35.1,4.95,30.82,-85.95,131.8,48.84386,2.353353,91.6,NaN,,13.99,,0 / 19,,740,2022-01-12 10:30:31:491
-0.7621,9.7875,-0.6437,-0.5163,9.7822,-0.4616,-0.0278,-0.0055,0.1434,0.1597,0.9409,-0.0828,18.53,-35.1,4.95,30.82,-85.95,131.8,48.84386,2.353353,91.6,NaN,,13.99,,0 / 19,,745,2022-01-12 10:30:31:496
-0.7621,9.7875,-0.6437,-0.5444,9.7741,-0.5832,-0.0278,-0.0055,0.1434,0.1597,0.9409,-0.0828,18.53,-35.1,4.95,30.82,-85.95,131.8,48.84386,2.353353,91.6,NaN,,13.99,,0 / 19,,752,2022-01-12 10:30:31:503
-0.7621,9.7875,-0.6437,-0.5444,9.7741,-0.5832,0.0234,0.0023,0.1441,0.1597,0.9409,-0.0828,18.53,-35.1,4.95,30.82,-85.95,131.8,48.84386,2.353353,91.6,NaN,,13.99,,0 / 19,,755,2022-01-12 10:30:31:506
-0.7621,9.7875,-0.6437,-0.5444,9.7741,-0.5832,0.0234,0.0023,0.1441,0.1597,0.9409,-0.0828,18.53,-35.1,4.95,30.82,-85.95,131.8,48.84386,2.353353,91.6,NaN,,13.99,,0 / 19,,760,2022-01-12 10:30:31:511
-0.7621,9.7875,-0.6437,-0.5444,9.7741,-0.5832,0.0234,0.0023,0.1441,0.1597,0.9409,-0.0828,18.53,-35.1,4.95,30.82,-85.95,131.8,48.84386,2.353353,91.6,NaN,,13.99,,0 / 19,,765,2022-01-12 10:30:31:516
-0.7621,9.7875,-0.6437,-0.5444,9.7741,-0.5832,0.0234,0.0023,0.1441,0.1597,0.9409,-0.0828,18.53,-35.1,4.95,30.82,-85.95,131.8,48.84386,2.353353,91.6,NaN,,13.99,,0 / 19,,770,2022-01-12 10:30:31:521
-0.7621,9.7875,-0.6437,-0.5444,9.7741,-0.5832,0.0234,0.0023,0.1441,0.1597,0.9409,-0.0828,18.53,-35.1,4.95,30.82,-85.95,131.8,48.84386,2.353353,91.6,NaN,,13.99,,0 / 19,,775,2022-01-12 10:30:31:526
-0.7621,9.7875,-0.6437,-0.5444,9.7741,-0.5832,0.0234,0.0023,0.1441,0.1597,0.9409,-0.0828,18.53,-35.1,4.95,30.82,-85.95,131.8,48.84386,2.353353,91.6,NaN,,13.99,,0 / 19,,780,2022-01-12 10:30:31:531
-0.7621,9.7875,-0.6437,-0.5444,9.7741,-0.5832,0.0234,0.0023,0.1441,0.1597,0.9409,-0.0828,18.53,-35.1,4.95,30.82,-85.95,131.8,48.84386,2.353353,91.6,NaN,,13.99,,0 / 19,,785,2022-01-12 10:30:31:536
-0.8315,9.8186,-0.5524,-0.5444,9.7741,-0.5832,0.0234,0.0023,0.1441,0.122,0.8333,-0.0676,18.6,-34.87,6.0,34.14,-85.33,136.97,48.84386,2.353353,91.6,NaN,,13.99,,0 / 19,,790,2022-01-12 10:30:31:541
-0.8315,9.8186,-0.5524,-0.5444,9.7741,-0.5832,0.0234,0.0023,0.1441,0.122,0.8333,-0.0676,18.6,-34.87,6.0,34.14,-85.33,136.97,48.84386,2.353353,91.6,NaN,,13.99,,0 / 19,,795,2022-01-12 10:30:31:546
-0.8315,9.8186,-0.5524,-0.5444,9.7741,-0.5832,0.0234,0.0023,0.1441,0.122,0.8333,-0.0676,18.6,-34.87,6.0,34.14,-85.33,136.97,48.84386,2.353353,91.6,NaN,,13.99,,0 / 19,,800,2022-01-12 10:30:31:551
-0.8315,9.8186,-0.5524,-0.5444,9.7741,-0.5832,0.0234,0.0023,0.1441,0.122,0.8333,-0.0676,18.6,-34.87,6.0,34.14,-85.33,136.97,48.84386,2.353353,91.6,NaN,,13.99,,0 / 19,,809,2022-01-12 10:30:31:560
-0.8315,9.8186,-0.5524,-0.5444,9.7741,-0.5832,0.0234,0.0023,0.1441,0.122,0.8333,-0.0676,18.6,-34.87,6.0,34.14,-85.33,136.97,48.84386,2.353353,91.6,NaN,,13.99,,0 / 19,,810,2022-01-12 10:30:31:561
-0.8315,9.8186,-0.5524,-0.5444,9.7741,-0.5832,0.0234,0.0023,0.1441,0.122,0.8333,-0.0676,18.6,-34.87,6.0,34.14,-85.33,136.97,48.84386,2.353353,91.6,NaN,,13.99,,0 / 19,,816,2022-01-12 10:30:31:567
-0.8315,9.8186,-0.5524,-0.5444,9.7741,-0.5832,0.0234,0.0023,0.1441,0.122,0.8333,-0.0676,18.6,-34.87,6.0,34.14,-85.33,136.97,48.84386,2.353353,91.6,NaN,,13.99,,0 / 19,,820,2022-01-12 10:30:31:571
-0.8315,9.8186,-0.5524,-0.5675,9.7666,-0.6802,-0.1407,0.0454,0.0192,0.122,0.8333,-0.0676,18.6,-34.87,6.0,34.14,-85.33,136.97,48.84386,2.353353,91.6,NaN,,13.99,,0 / 19,,825,2022-01-12 10:30:31:576
-0.8315,9.8186,-0.5524,-0.5675,9.7666,-0.6802,-0.1407,0.0454,0.0192,0.122,0.8333,-0.0676,18.6,-34.87,6.0,34.14,-85.33,136.97,48.84386,2.353353,91.6,NaN,,13.99,,0 / 19,,831,2022-01-12 10:30:31:582
-0.8315,9.8186,-0.5524,-0.5675,9.7666,-0.6802,-0.1407,0.0454,0.0192,0.122,0.8333,-0.0676,18.6,-34.87,6.0,34.14,-85.33,136.97,48.84386,2.353353,91.6,NaN,,13.99,,0 / 19,,836,2022-01-12 10:30:31:587
-0.8315,9.8186,-0.5524,-0.5675,9.7666,-0.6802,-0.1407,0.0454,0.0192,0.122,0.8333,-0.0676,18.6,-34.87,6.0,34.14,-85.33,136.97,48.84386,2.353353,91.6,NaN,,13.99,,0 / 19,,841,2022-01-12 10:30:31:592
-0.8315,9.8186,-0.5524,-0.5675,9.7666,-0.6802,-0.1407,0.0454,0.0192,0.122,0.8333,-0.0676,18.6,-34.87,6.0,34.14,-85.33,136.97,48.84386,2.353353,91.6,NaN,,13.99,,0 / 19,,845,2022-01-12 10:30:31:596
-0.8315,9.8186,-0.5524,-0.5675,9.7666,-0.6802,-0.1407,0.0454,0.0192,0.122,0.8333,-0.0676,18.6,-34.87,6.0,34.14,-85.33,136.97,48.84386,2.353353,91.6,NaN,,13.99,,0 / 19,,851,2022-01-12 10:30:31:602
-0.8315,9.8186,-0.5524,-0.5675,9.7666,-0.6802,-0.1407,0.0454,0.0192,0.122,0.8333,-0.0676,18.6,-34.87,6.0,34.14,-85.33,136.97,48.84386,2.353353,91.6,NaN,,13.99,,0 / 19,,855,2022-01-12 10:30:31:606
-0.8399,9.8856,-1.0304,-0.5675,9.7666,-0.6802,-0.1407,0.0454,0.0192,0.075,0.6764,0.0301,18.6,-34.87,6.0,34.14,-85.33,136.97,48.84386,2.353353,91.6,NaN,,13.99,,0 / 19,,860,2022-01-12 10:30:31:611
-0.8399,9.8856,-1.0304,-0.5675,9.7666,-0.6802,-0.1407,0.0454,0.0192,0.075,0.6764,0.0301,18.6,-34.87,6.0,34.14,-85.33,136.97,48.84386,2.353353,91.6,NaN,,13.99,,0 / 19,,866,2022-01-12 10:30:31:617
-0.8399,9.8856,-1.0304,-0.5675,9.7666,-0.6802,-0.1407,0.0454,0.0192,0.075,0.6764,0.0301,18.6,-34.87,6.0,34.14,-85.33,136.97,48.84386,2.353353,91.6,NaN,,13.99,,0 / 19,,871,2022-01-12 10:30:31:622
-0.8399,9.8856,-1.0304,-0.5675,9.7666,-0.6802,-0.1407,0.0454,0.0192,0.075,0.6764,0.0301,18.6,-34.87,6.0,34.14,-85.33,136.97,48.84386,2.353353,91.6,NaN,,13.99,,0 / 19,,875,2022-01-12 10:30:31:626
-0.8399,9.8856,-1.0304,-0.5675,9.7666,-0.6802,-0.1407,0.0454,0.0192,0.075,0.6764,0.0301,18.6,-34.87,6.0,34.14,-85.33,136.97,48.84386,2.353353,91.6,NaN,,13.99,,0 / 19,,880,2022-01-12 10:30:31:631
-0.8399,9.8856,-1.0304,-0.5529,9.7635,-0.7336,-0.1407,0.0454,0.0192,0.075,0.6764,0.0301,18.6,-34.87,6.0,34.14,-85.33,136.97,48.84386,2.353353,91.6,NaN,,13.99,,0 / 19,,885,2022-01-12 10:30:31:636
-0.8399,9.8856,-1.0304,-0.5529,9.7635,-0.7336,-0.1407,0.0454,0.0192,0.075,0.6764,0.0301,18.6,-34.87,6.0,34.14,-85.33,136.97,48.84386,2.353353,91.6,NaN,,13.99,,0 / 19,,891,2022-01-12 10:30:31:642
-0.8399,9.8856,-1.0304,-0.5529,9.7635,-0.7336,-0.1407,0.0454,0.0192,0.075,0.6764,0.0301,18.9,-34.8,8.4,35.6,-84.62,143.0,48.84386,2.353353,91.6,NaN,,13.99,,0 / 19,,897,2022-01-12 10:30:31:648
-0.8399,9.8856,-1.0304,-0.5529,9.7635,-0.7336,-0.1407,0.0454,0.0192,0.075,0.6764,0.0301,18.9,-34.8,8.4,35.6,-84.62,143.0,48.84386,2.353353,91.6,NaN,,13.99,,0 / 19,,901,2022-01-12 10:30:31:652
-0.8399,9.8856,-1.0304,-0.5529,9.7635,-0.7336,-0.1407,0.0454,0.0192,0.075,0.6764,0.0301,18.9,-34.8,8.4,35.6,-84.62,143.0,48.84386,2.353353,91.6,NaN,,13.99,,0 / 19,,907,2022-01-12 10:30:31:658
-0.8399,9.8856,-1.0304,-0.5529,9.7635,-0.7336,-0.1407,0.0454,0.0192,0.075,0.6764,0.0301,18.9,-34.8,8.4,35.6,-84.62,143.0,48.84386,2.353353,91.6,NaN,,13.99,,0 / 19,,910,2022-01-12 10:30:31:661
-0.8399,9.8856,-1.0304,-0.5529,9.7635,-0.7336,-0.1407,0.0454,0.0192,0.075,0.6764,0.0301,18.9,-34.8,8.4,35.6,-84.62,143.0,48.84386,2.353353,91.6,NaN,,13.99,,0 / 19,,916,2022-01-12 10:30:31:667
-0.8399,9.8856,-1.0304,-0.5529,9.7635,-0.7336,-0.1407,0.0454,0.0192,0.075,0.6764,0.0301,18.9,-34.8,8.4,35.6,-84.62,143.0,48.84386,2.353353,91.6,NaN,,13.99,,0 / 19,,920,2022-01-12 10:30:31:671
-0.8399,9.8856,-1.0304,-0.5529,9.7635,-0.7336,-0.1407,0.0454,0.0192,0.075,0.6764,0.0301,18.9,-34.8,8.4,35.6,-84.62,143.0,48.84386,2.353353,91.6,NaN,,13.99,,0 / 19,,925,2022-01-12 10:30:31:676
-0.4603,9.7179,-1.0137,-0.5529,9.7635,-0.7336,-0.1407,0.0454,0.0192,0.075,0.6764,0.0301,18.9,-34.8,8.4,35.6,-84.62,143.0,48.84386,2.353353,91.6,NaN,,13.99,,0 / 19,,930,2022-01-12 10:30:31:681
-0.4603,9.7179,-1.0137,-0.5529,9.7635,-0.7336,-0.238,0.0186,-0.065,0.075,0.6764,0.0301,18.9,-34.8,8.4,35.6,-84.62,143.0,48.84386,2.353353,91.6,NaN,,13.99,,0 / 19,,935,2022-01-12 10:30:31:686
-0.4603,9.7179,-1.0137,-0.5529,9.7635,-0.7336,-0.238,0.0186,-0.065,0.075,0.6764,0.0301,18.9,-34.8,8.4,35.6,-84.62,143.0,48.84386,2.353353,91.6,NaN,,13.99,,0 / 19,,941,2022-01-12 10:30:31:692
-0.4603,9.7179,-1.0137,-0.5529,9.7635,-0.7336,-0.238,0.0186,-0.065,0.075,0.6764,0.0301,18.9,-34.8,8.4,35.6,-84.62,143.0,48.84386,2.353353,91.6,NaN,,13.99,,0 / 19,,946,2022-01-12 10:30:31:697
-0.4603,9.7179,-1.0137,-0.5529,9.7635,-0.7336,-0.238,0.0186,-0.065,0.075,0.6764,0.0301,18.9,-34.8,8.4,35.6,-84.62,143.0,48.84386,2.353353,91.6,NaN,,13.99,,0 / 19,,950,2022-01-12 10:30:31:701
-0.4603,9.7179,-1.0137,-0.5529,9.7635,-0.7336,-0.238,0.0186,-0.065,0.075,0.6764,0.0301,18.9,-34.8,8.4,35.6,-84.62,143.0,48.84386,2.353353,91.6,NaN,,13.99,,0 / 19,,955,2022-01-12 10:30:31:706
-0.4603,9.7179,-1.0137,-0.5529,9.7635,-0.7336,-0.238,0.0186,-0.065,0.075,0.6764,0.0301,18.9,-34.8,8.4,35.6,-84.62,143.0,48.84386,2.353353,91.6,NaN,,13.99,,0 / 19,,961,2022-01-12 10:30:31:712
-0.4603,9.7179,-1.0137,-0.5529,9.7635,-0.7336,-0.238,0.0186,-0.065,0.075,0.6764,0.0301,18.9,-34.8,8.4,35.6,-84.62,143.0,48.84386,2.353353,91.6,NaN,,13.99,,0 / 19,,965,2022-01-12 10:30:31:716
-0.4603,9.7179,-1.0137,-0.5529,9.7635,-0.7336,-0.238,0.0186,-0.065,0.075,0.6764,0.0301,18.9,-34.8,8.4,35.6,-84.62,143.0,48.84386,2.353353,91.6,NaN,,13.99,,0 / 19,,970,2022-01-12 10:30:31:721
-0.4603,9.7179,-1.0137,-0.5529,9.7635,-0.7336,-0.238,0.0186,-0.065,0.075,0.6764,0.0301,18.9,-34.8,8.4,35.6,-84.62,143.0,48.84386,2.353353,91.6,NaN,,13.99,,0 / 19,,976,2022-01-12 10:30:31:727
-0.4603,9.7179,-1.0137,-0.5529,9.7635,-0.7336,-0.238,0.0186,-0.065,0.075,0.6764,0.0301,18.9,-34.8,8.4,35.6,-84.62,143.0,48.84386,2.353353,91.6,NaN,,13.99,,0 / 19,,980,2022-01-12 10:30:31:731
-0.4603,9.7179,-1.0137,-0.5529,9.7635,-0.7336,-0.238,0.0186,-0.065,0.075,0.6764,0.0301,18.9,-34.8,8.4,35.6,-84.62,143.0,48.84386,2.353353,91.6,NaN,,13.99,,0 / 19,,985,2022-01-12 10:30:31:736
-0.4603,9.7179,-1.0137,-0.5529,9.7635,-0.7336,-0.238,0.0186,-0.065,0.075,0.6764,0.0301,18.9,-34.8,8.4,35.6,-84.62,143.0,48.84386,2.353353,91.6,NaN,,13.99,,0 / 19,,991,2022-01-12 10:30:31:742
-0.81,9.7597,-0.5106,-0.4405,9.7601,-0.8462,-0.0942,0.0133,-0.0784,0.0495,1.4093,0.0605,18.53,-34.95,9.45,32.59,-84.62,143.0,48.84386,2.353353,91.6,NaN,,13.99,,0 / 19,,995,2022-01-12 10:30:31:746
-0.81,9.7597,-0.5106,-0.4405,9.7601,-0.8462,-0.0942,0.0133,-0.0784,0.0495,1.4093,0.0605,18.53,-34.95,9.45,32.59,-84.62,143.0,48.84386,2.353353,91.6,NaN,,13.99,,0 / 19,,1000,2022-01-12 10:30:31:751
-0.81,9.7597,-0.5106,-0.4405,9.7601,-0.8462,-0.0942,0.0133,-0.0784,0.0495,1.4093,0.0605,18.53,-34.95,9.45,32.59,-84.62,143.0,48.84386,2.353353,91.6,NaN,,13.99,,0 / 19,,1006,2022-01-12 10:30:31:757
-0.81,9.7597,-0.5106,-0.4405,9.7601,-0.8462,-0.0942,0.0133,-0.0784,0.0495,1.4093,0.0605,18.53,-34.95,9.45,32.59,-84.62,143.0,48.84386,2.353353,91.6,NaN,,13.99,,0 / 19,,1010,2022-01-12 10:30:31:761
-0.81,9.7597,-0.5106,-0.4405,9.7601,-0.8462,-0.0942,0.0133,-0.0784,0.0495,1.4093,0.0605,18.53,-34.95,9.45,32.59,-84.62,143.0,48.84386,2.353353,91.6,NaN,,13.99,,0 / 19,,1015,2022-01-12 10:30:31:766
-0.81,9.7597,-0.5106,-0.4405,9.7601,-0.8462,-0.0942,0.0133,-0.0784,0.0495,1.4093,0.0605,18.53,-34.95,9.45,32.59,-84.62,143.0,48.84386,2.353353,91.6,NaN,,13.99,,0 / 19,,1020,2022-01-12 10:30:31:771
-0.81,9.7597,-0.5106,-0.4405,9.7601,-0.8462,-0.0942,0.0133,-0.0784,0.0495,1.4093,0.0605,18.53,-34.95,9.45,32.59,-84.62,143.0,48.84386,2.353353,91.6,NaN,,13.99,,0 / 19,,1026,2022-01-12 10:30:31:777
-0.81,9.7597,-0.5106,-0.4405,9.7601,-0.8462,-0.0942,0.0133,-0.0784,0.0495,1.4093,0.0605,18.53,-34.95,9.45,32.59,-84.62,143.0,48.84386,2.353353,91.6,NaN,,13.99,,0 / 19,,1030,2022-01-12 10:30:31:781
-0.81,9.7597,-0.5106,-0.4405,9.7601,-0.8462,-0.0942,0.0133,-0.0784,0.0495,1.4093,0.0605,18.53,-34.95,9.45,32.59,-84.62,143.0,48.84386,2.353353,91.6,NaN,,13.99,,0 / 19,,1035,2022-01-12 10:30:31:786
-0.81,9.7597,-0.5106,-0.4405,9.7601,-0.8462,-0.0942,0.0133,-0.0784,0.0495,1.4093,0.0605,18.53,-34.95,9.45,32.59,-84.62,143.0,48.84386,2.353353,91.6,NaN,,13.99,,0 / 19,,1040,2022-01-12 10:30:31:791
-0.81,9.7597,-0.5106,-0.4405,9.7601,-0.8462,-0.0942,0.0133,-0.0784,0.0495,1.4093,0.0605,18.53,-34.95,9.45,32.59,-84.62,143.0,48.84386,2.353353,91.6,NaN,,13.99,,0 / 19,,1045,2022-01-12 10:30:31:796
-0.81,9.7597,-0.5106,-0.4405,9.7601,-0.8462,-0.0942,0.0133,-0.0784,0.0495,1.4093,0.0605,18.53,-34.95,9.45,32.59,-84.62,143.0,48.84386,2.353353,91.6,NaN,,13.99,,0 / 19,,1050,2022-01-12 10:30:31:801
-0.81,9.7597,-0.5106,-0.4405,9.7601,-0.8462,-0.0942,0.0133,-0.0784,0.0495,1.4093,0.0605,18.53,-34.95,9.45,32.59,-84.62,143.0,48.84386,2.353353,91.6,NaN,,13.99,,0 / 19,,1055,2022-01-12 10:30:31:806
-0.81,9.7597,-0.5106,-0.4405,9.7601,-0.8462,-0.0942,0.0133,-0.0784,0.0495,1.4093,0.0605,18.53,-34.95,9.45,32.59,-84.62,143.0,48.84386,2.353353,91.6,NaN,,13.99,,0 / 19,,1060,2022-01-12 10:30:31:811
-0.6027,9.8402,-0.5261,-0.3449,9.7605,-0.8852,-0.3234,0.0162,0.2601,0.0939,1.3482,0.1238,18.53,-34.95,9.45,32.59,-84.62,143.0,48.84386,2.353353,91.6,NaN,,13.99,,0 / 19,,1065,2022-01-12 10:30:31:816
-0.6027,9.8402,-0.5261,-0.3449,9.7605,-0.8852,-0.3234,0.0162,0.2601,0.0939,1.3482,0.1238,18.53,-34.95,9.45,32.59,-84.62,143.0,48.84386,2.353353,91.6,NaN,,13.99,,0 / 19,,1070,2022-01-12 10:30:31:821
-0.6027,9.8402,-0.5261,-0.3449,9.7605,-0.8852,-0.3234,0.0162,0.2601,0.0939,1.3482,0.1238,18.53,-34.95,9.45,32.59,-84.62,143.0,48.84386,2.353353,91.6,NaN,,13.99,,0 / 19,,1076,2022-01-12 10:30:31:827
-0.6027,9.8402,-0.5261,-0.3449,9.7605,-0.8852,-0.3234,0.0162,0.2601,0.0939,1.3482,0.1238,18.53,-34.95,9.45,32.59,-84.62,143.0,48.84386,2.353353,91.6,NaN,,13.99,,0 / 19,,1080,2022-01-12 10:30:31:831
-0.6027,9.8402,-0.5261,-0.3449,9.7605,-0.8852,-0.3234,0.0162,0.2601,0.0939,1.3482,0.1238,18.53,-34.95,9.45,32.59,-84.62,143.0,48.84386,2.353353,91.6,NaN,,13.99,,0 / 19,,1087,2022-01-12 10:30:31:838
-0.6027,9.8402,-0.5261,-0.3449,9.7605,-0.8852,-0.3234,0.0162,0.2601,0.0939,1.3482,0.1238,18.53,-34.95,9.45,32.59,-84.62,143.0,48.84386,2.353353,91.6,NaN,,13.99,,0 / 19,,1091,2022-01-12 10:30:31:842
-0.6027,9.8402,-0.5261,-0.3449,9.7605,-0.8852,-0.3234,0.0162,0.2601,0.0939,1.3482,0.1238,17.55,-34.87,11.63,41.08,-84.44,158.71,48.84386,2.353353,91.6,NaN,,13.99,,0 / 19,,1095,2022-01-12 10:30:31:846
-0.6027,9.8402,-0.5261,-0.3449,9.7605,-0.8852,-0.3234,0.0162,0.2601,0.0939,1.3482,0.1238,17.55,-34.87,11.63,41.08,-84.44,158.71,48.84386,2.353353,91.6,NaN,,13.99,,0 / 19,,1100,2022-01-12 10:30:31:851
-0.6027,9.8402,-0.5261,-0.3449,9.7605,-0.8852,-0.3234,0.0162,0.2601,0.0939,1.3482,0.1238,17.55,-34.87,11.63,41.08,-84.44,158.71,48.84386,2.353353,91.6,NaN,,13.99,,0 / 19,,1106,2022-01-12 10:30:31:857
-0.6027,9.8402,-0.5261,-0.3449,9.7605,-0.8852,-0.3234,0.0162,0.2601,0.0939,1.3482,0.1238,17.55,-34.87,11.63,41.08,-84.44,158.71,48.84386,2.353353,91.6,NaN,,13.99,,0 / 19,,1110,2022-01-12 10:30:31:861
-0.6027,9.8402,-0.5261,-0.3449,9.7605,-0.8852,-0.3234,0.0162,0.2601,0.0939,1.3482,0.1238,17.55,-34.87,11.63,41.08,-84.44,158.71,48.84386,2.353353,91.6,NaN,,13.99,,0 / 19,,1116,2022-01-12 10:30:31:867
-0.0975,9.6365,-0.7825,-0.3449,9.7605,-0.8852,-0.3234,0.0162,0.2601,0.0939,1.3482,0.1238,17.55,-34.87,11.63,41.08,-84.44,158.71,48.84386,2.353353,91.6,NaN,,13.99,,0 / 19,,1121,2022-01-12 10:30:31:872
-0.0975,9.6365,-0.7825,-0.3449,9.7605,-0.8852,-0.3234,0.0162,0.2601,0.0939,1.3482,0.1238,17.55,-34.87,11.63,41.08,-84.44,158.71,48.84386,2.353353,91.6,NaN,,13.99,,0 / 19,,1125,2022-01-12 10:30:31:876
-0.0975,9.6365,-0.7825,-0.3449,9.7605,-0.8852,-0.3234,0.0162,0.2601,0.0939,1.3482,0.1238,17.55,-34.87,11.63,41.08,-84.44,158.71,48.84386,2.353353,91.6,NaN,,13.99,,0 / 19,,1131,2022-01-12 10:30:31:882
-0.0975,9.6365,-0.7825,-0.3449,9.7605,-0.8852,-0.3234,0.0162,0.2601,0.3063,1.5454,0.1518,17.55,-34.87,11.63,41.08,-84.44,158.71,48.84386,2.353353,91.6,NaN,,13.99,,0 / 19,,1136,2022-01-12 10:30:31:887
-0.0975,9.6365,-0.7825,-0.3449,9.7605,-0.8852,-0.3234,0.0162,0.2601,0.3063,1.5454,0.1518,17.55,-34.87,11.63,41.08,-84.44,158.71,48.84386,2.353353,91.6,NaN,,13.99,,0 / 19,,1141,2022-01-12 10:30:31:892
-0.0975,9.6365,-0.7825,-0.3449,9.7605,-0.8852,-0.3234,0.0162,0.2601,0.3063,1.5454,0.1518,17.55,-34.87,11.63,41.08,-84.44,158.71,48.84386,2.353353,91.6,NaN,,13.99,,0 / 19,,1145,2022-01-12 10:30:31:896
-0.0975,9.6365,-0.7825,-0.3449,9.7605,-0.8852,-0.3234,0.0162,0.2601,0.3063,1.5454,0.1518,17.55,-34.87,11.63,41.08,-84.44,158.71,48.84386,2.353353,91.6,NaN,,13.99,,0 / 19,,1151,2022-01-12 10:30:31:902
-0.0975,9.6365,-0.7825,-0.3449,9.7605,-0.8852,-0.3234,0.0162,0.2601,0.3063,1.5454,0.1518,17.55,-34.87,11.63,41.08,-84.44,158.71,48.84386,2.353353,91.6,NaN,,13.99,,0 / 19,,1157,2022-01-12 10:30:31:908
-0.0975,9.6365,-0.7825,-0.3449,9.7605,-0.8852,-0.3234,0.0162,0.2601,0.3063,1.5454,0.1518,17.55,-34.87,11.63,41.08,-84.44,158.71,48.84386,2.353353,91.6,NaN,,13.99,,0 / 19,,1160,2022-01-12 10:30:31:911
-0.0975,9.6365,-0.7825,-0.3449,9.7605,-0.8852,-0.3234,0.0162,0.2601,0.3063,1.5454,0.1518,17.55,-34.87,11.63,41.08,-84.44,158.71,48.84386,2.353353,91.6,NaN,,13.99,,0 / 19,,1165,2022-01-12 10:30:31:916
-0.0975,9.6365,-0.7825,-0.3449,9.7605,-0.8852,-0.3234,0.0162,0.2601,0.3063,1.5454,0.1518,17.55,-34.87,11.63,41.08,-84.44,158.71,48.84386,2.353353,91.6,NaN,,13.99,,0 / 19,,1170,2022-01-12 10:30:31:921
-0.0975,9.6365,-0.7825,-0.3449,9.7605,-0.8852,-0.3234,0.0162,0.2601,0.3063,1.5454,0.1518,17.55,-34.87,11.63,41.08,-84.44,158.71,48.84386,2.353353,91.6,NaN,,13.99,,0 / 19,,1175,2022-01-12 10:30:31:926
-0.0975,9.6365,-0.7825,-0.3449,9.7605,-0.8852,-0.3234,0.0162,0.2601,0.3063,1.5454,0.1518,17.55,-34.87,11.63,41.08,-84.44,158.71,48.84386,2.353353,91.6,NaN,,13.99,,0 / 19,,1180,2022-01-12 10:30:31:931
-0.0302,9.7995,-0.9981,-0.0424,9.7378,-1.1593,-0.1723,-0.0306,0.3912,0.3063,1.5454,0.1518,17.55,-34.87,11.63,41.08,-84.44,158.71,48.84386,2.353353,91.6,NaN,,13.99,,0 / 19,,1185,2022-01-12 10:30:31:936
-0.0302,9.7995,-0.9981,-0.0424,9.7378,-1.1593,-0.1723,-0.0306,0.3912,0.3063,1.5454,0.1518,17.55,-34.87,11.63,41.08,-84.44,158.71,48.84386,2.353353,91.6,NaN,,13.99,,0 / 19,,1190,2022-01-12 10:30:31:941
-0.0302,9.7995,-0.9981,-0.0424,9.7378,-1.1593,-0.1723,-0.0306,0.3912,0.3063,1.5454,0.1518,16.8,-34.95,13.2,60.41,-83.21,177.9,48.84386,2.353353,91.6,NaN,,13.99,,0 / 19,,1196,2022-01-12 10:30:31:947
-0.0302,9.7995,-0.9981,-0.0424,9.7378,-1.1593,-0.1723,-0.0306,0.3912,0.3063,1.5454,0.1518,16.8,-34.95,13.2,60.41,-83.21,177.9,48.84386,2.353353,91.6,NaN,,13.99,,0 / 19,,1200,2022-01-12 10:30:31:951
-0.0302,9.7995,-0.9981,-0.0424,9.7378,-1.1593,-0.1723,-0.0306,0.3912,0.3063,1.5454,0.1518,16.8,-34.95,13.2,60.41,-83.21,177.9,48.84386,2.353353,91.6,NaN,,13.99,,0 / 19,,1205,2022-01-12 10:30:31:956
-0.0302,9.7995,-0.9981,-0.0424,9.7378,-1.1593,-0.1723,-0.0306,0.3912,0.3063,1.5454,0.1518,16.8,-34.95,13.2,60.41,-83.21,177.9,48.84386,2.353353,91.6,NaN,,13.99,,0 / 19,,1210,2022-01-12 10:30:31:961
-0.0302,9.7995,-0.9981,-0.0424,9.7378,-1.1593,-0.1723,-0.0306,0.3912,0.3063,1.5454,0.1518,16.8,-34.95,13.2,60.41,-83.21,177.9,48.84386,2.353353,91.6,NaN,,13.99,,0 / 19,,1215,2022-01-12 10:30:31:966
-0.0302,9.7995,-0.9981,-0.0424,9.7378,-1.1593,-0.1723,-0.0306,0.3912,0.3063,1.5454,0.1518,16.8,-34.95,13.2,60.41,-83.21,177.9,48.84386,2.353353,91.6,NaN,,13.99,,0 / 19,,1220,2022-01-12 10:30:31:971
-0.0302,9.7995,-0.9981,-0.0424,9.7378,-1.1593,-0.1723,-0.0306,0.3912,0.3063,1.5454,0.1518,16.8,-34.95,13.2,60.41,-83.21,177.9,48.84386,2.353353,91.6,NaN,,13.99,,0 / 19,,1225,2022-01-12 10:30:31:976
-0.0302,9.7995,-0.9981,-0.0424,9.7378,-1.1593,-0.1723,-0.0306,0.3912,0.3063,1.5454,0.1518,16.8,-34.95,13.2,60.41,-83.21,177.9,48.84386,2.353353,91.6,NaN,,13.99,,0 / 19,,1230,2022-01-12 10:30:31:981
-0.0302,9.7995,-0.9981,-0.0424,9.7378,-1.1593,-0.1723,-0.0306,0.3912,0.3063,1.5454,0.1518,16.8,-34.95,13.2,60.41,-83.21,177.9,48.84386,2.353353,91.6,NaN,,13.99,,0 / 19,,1235,2022-01-12 10:30:31:986
0.2297,9.6473,-1.2592,-0.0424,9.7378,-1.1593,-0.1723,-0.0306,0.3912,0.3063,1.5454,0.1518,16.8,-34.95,13.2,60.41,-83.21,177.9,48.84386,2.353353,91.6,NaN,,13.99,,0 / 19,,1240,2022-01-12 10:30:31:991
0.2297,9.6473,-1.2592,-0.0424,9.7378,-1.1593,-0.1723,-0.0306,0.3912,0.3063,1.5454,0.1518,16.8,-34.95,13.2,60.41,-83.21,177.9,48.84386,2.353353,91.6,NaN,,13.99,,0 / 19,,1245,2022-01-12 10:30:31:996
0.2297,9.6473,-1.2592,-0.0424,9.7378,-1.1593,-0.1723,-0.0306,0.3912,0.3063,1.5454,0.1518,16.8,-34.95,13.2,60.41,-83.21,177.9,48.84386,2.353353,91.6,NaN,,13.99,,0 / 19,,1250,2022-01-12 10:30:32:001
0.2297,9.6473,-1.2592,-0.0424,9.7378,-1.1593,-0.1723,-0.0306,0.3912,0.3063,1.5454,0.1518,16.8,-34.95,13.2,60.41,-83.21,177.9,48.84386,2.353353,91.6,NaN,,13.99,,0 / 19,,1256,2022-01-12 10:30:32:007
0.2297,9.6473,-1.2592,-0.0424,9.7378,-1.1593,-0.1723,-0.0306,0.3912,0.3684,1.445,0.1044,16.8,-34.95,13.2,60.41,-83.21,177.9,48.84386,2.353353,91.6,NaN,,13.99,,0 / 19,,1263,2022-01-12 10:30:32:014
0.2297,9.6473,-1.2592,-0.0424,9.7378,-1.1593,-0.1723,-0.0306,0.3912,0.3684,1.445,0.1044,16.8,-34.95,13.2,60.41,-83.21,177.9,48.84386,2.353353,91.6,NaN,,13.99,,0 / 19,,1265,2022-01-12 10:30:32:016
0.2297,9.6473,-1.2592,-0.0424,9.7378,-1.1593,-0.1723,-0.0306,0.3912,0.3684,1.445,0.1044,16.8,-34.95,13.2,60.41,-83.21,177.9,48.84386,2.353353,91.6,NaN,,13.99,,0 / 19,,1271,2022-01-12 10:30:32:022
0.2297,9.6473,-1.2592,-0.0424,9.7378,-1.1593,-0.1723,-0.0306,0.3912,0.3684,1.445,0.1044,16.8,-34.95,13.2,60.41,-83.21,177.9,48.84386,2.353353,91.6,NaN,,13.99,,0 / 19,,1275,2022-01-12 10:30:32:026
0.2297,9.6473,-1.2592,-0.0424,9.7378,-1.1593,-0.1723,-0.0306,0.3912,0.3684,1.445,0.1044,16.8,-34.95,13.2,60.41,-83.21,177.9,48.84386,2.353353,91.6,NaN,,13.99,,0 / 19,,1280,2022-01-12 10:30:32:031
0.2297,9.6473,-1.2592,-0.0424,9.7378,-1.1593,-0.1723,-0.0306,0.3912,0.3684,1.445,0.1044,16.8,-34.95,13.2,60.41,-83.21,177.9,48.84386,2.353353,91.6,NaN,,13.99,,0 / 19,,1288,2022-01-12 10:30:32:039
0.2297,9.6473,-1.2592,-0.0424,9.7378,-1.1593,-0.1723,-0.0306,0.3912,0.3684,1.445,0.1044,14.85,-34.87,16.13,49.55,-83.21,177.9,48.84386,2.353353,91.6,NaN,,13.99,,0 / 19,,1291,2022-01-12 10:30:32:042
0.2297,9.6473,-1.2592,-0.0424,9.7378,-1.1593,-0.1723,-0.0306,0.3912,0.3684,1.445,0.1044,14.85,-34.87,16.13,49.55,-83.21,177.9,48.84386,2.353353,91.6,NaN,,13.99,,0 / 19,,1296,2022-01-12 10:30:32:047
0.2297,9.6473,-1.2592,-0.0424,9.7378,-1.1593,-0.1723,-0.0306,0.3912,0.3684,1.445,0.1044,14.85,-34.87,16.13,49.55,-83.21,177.9,48.84386,2.353353,91.6,NaN,,13.99,,0 / 19,,1301,2022-01-12 10:30:32:052
0.2297,9.6473,-1.2592,-0.0424,9.7378,-1.1593,-0.1723,-0.0306,0.3912,0.3684,1.445,0.1044,14.85,-34.87,16.13,49.55,-83.21,177.9,48.84386,2.353353,91.6,NaN,,13.99,,0 / 19,,1306,2022-01-12 10:30:32:057
0.2297,9.6473,-1.2592,-0.0424,9.7378,-1.1593,-0.1723,-0.0306,0.3912,0.3684,1.445,0.1044,14.85,-34.87,16.13,49.55,-83.21,177.9,48.84386,2.353353,91.6,NaN,,13.99,,0 / 19,,1311,2022-01-12 10:30:32:062
0.207,9.6927,-1.5371,0.2908,9.6856,-1.5086,-0.0785,0.027,0.2601,0.3684,1.445,0.1044,14.85,-34.87,16.13,49.55,-83.21,177.9,48.84386,2.353353,91.6,NaN,,13.99,,0 / 19,,1315,2022-01-12 10:30:32:066
0.207,9.6927,-1.5371,0.2908,9.6856,-1.5086,-0.0785,0.027,0.2601,0.3684,1.445,0.1044,14.85,-34.87,16.13,49.55,-83.21,177.9,48.84386,2.353353,91.6,NaN,,13.99,,0 / 19,,1320,2022-01-12 10:30:32:071
0.207,9.6927,-1.5371,0.2908,9.6856,-1.5086,-0.0785,0.027,0.2601,0.3684,1.445,0.1044,14.85,-34.87,16.13,49.55,-83.21,177.9,48.84386,2.353353,91.6,NaN,,13.99,,0 / 19,,1325,2022-01-12 10:30:32:076
0.207,9.6927,-1.5371,0.2908,9.6856,-1.5086,-0.0785,0.027,0.2601,0.3426,1.3711,0.0732,14.85,-34.87,16.13,49.55,-83.21,177.9,48.84386,2.353353,91.6,NaN,,13.99,,0 / 19,,1330,2022-01-12 10:30:32:081
0.207,9.6927,-1.5371,0.2908,9.6856,-1.5086,-0.0785,0.027,0.2601,0.3426,1.3711,0.0732,14.85,-34.87,16.13,49.55,-83.21,177.9,48.84386,2.353353,91.6,NaN,,13.99,,0 / 19,,1336,2022-01-12 10:30:32:087
0.207,9.6927,-1.5371,0.2908,9.6856,-1.5086,-0.0785,0.027,0.2601,0.3426,1.3711,0.0732,14.85,-34.87,16.13,49.55,-83.21,177.9,48.84386,2.353353,91.6,NaN,,13.99,,0 / 19,,1340,2022-01-12 10:30:32:091
0.207,9.6927,-1.5371,0.2908,9.6856,-1.5086,-0.0785,0.027,0.2601,0.3426,1.3711,0.0732,14.85,-34.87,16.13,49.55,-83.21,177.9,48.84386,2.353353,91.6,NaN,,13.99,,0 / 19,,1352,2022-01-12 10:30:32:103
0.207,9.6927,-1.5371,0.2908,9.6856,-1.5086,-0.0785,0.027,0.2601,0.3426,1.3711,0.0732,14.85,-34.87,16.13,49.55,-83.21,177.9,48.84386,2.353353,91.6,NaN,,13.99,,0 / 19,,1352,2022-01-12 10:30:32:103
0.207,9.6927,-1.5371,0.2908,9.6856,-1.5086,-0.0785,0.027,0.2601,0.3426,1.3711,0.0732,14.85,-34.87,16.13,49.55,-83.21,177.9,48.84386,2.353353,91.6,NaN,,13.99,,0 / 19,,1355,2022-01-12 10:30:32:106
0.207,9.6927,-1.5371,0.2908,9.6856,-1.5086,-0.0785,0.027,0.2601,0.3426,1.3711,0.0732,14.85,-34.87,16.13,49.55,-83.21,177.9,48.84386,2.353353,91.6,NaN,,13.99,,0 / 19,,1361,2022-01-12 10:30:32:112
0.207,9.6927,-1.5371,0.2908,9.6856,-1.5086,-0.0785,0.027,0.2601,0.3426,1.3711,0.0732,14.85,-34.87,16.13,49.55,-83.21,177.9,48.84386,2.353353,91.6,NaN,,13.99,,0 / 19,,1366,2022-01-12 10:30:32:117
0.4008,9.7155,-1.6519,0.2908,9.6856,-1.5086,-0.0785,0.027,0.2601,0.3426,1.3711,0.0732,14.85,-34.87,16.13,49.55,-83.21,177.9,48.84386,2.353353,91.6,NaN,,13.99,,0 / 19,,1370,2022-01-12 10:30:32:121
0.4008,9.7155,-1.6519,0.2908,9.6856,-1.5086,-0.0785,0.027,0.2601,0.3426,1.3711,0.0732,14.85,-34.87,16.13,49.55,-83.21,177.9,48.84386,2.353353,91.6,NaN,,13.99,,0 / 19,,1376,2022-01-12 10:30:32:127
0.4008,9.7155,-1.6519,0.2908,9.6856,-1.5086,-0.0785,0.027,0.2601,0.3426,1.3711,0.0732,14.85,-34.87,16.13,49.55,-83.21,177.9,48.84386,2.353353,91.6,NaN,,13.99,,0 / 19,,1381,2022-01-12 10:30:32:132
0.4008,9.7155,-1.6519,0.2908,9.6856,-1.5086,-0.0785,0.027,0.2601,0.3426,1.3711,0.0732,14.85,-34.87,16.13,49.55,-83.21,177.9,48.84386,2.353353,91.6,NaN,,13.99,,0 / 19,,1386,2022-01-12 10:30:32:137
0.4008,9.7155,-1.6519,0.2908,9.6856,-1.5086,-0.0785,0.027,0.2601,0.3426,1.3711,0.0732,13.5,-34.8,17.85,61.39,-80.99,-169.09,48.84386,2.353353,91.6,NaN,,13.99,,0 / 19,,1390,2022-01-12 10:30:32:141
0.4008,9.7155,-1.6519,0.2908,9.6856,-1.5086,-0.0785,0.027,0.2601,0.3426,1.3711,0.0732,13.5,-34.8,17.85,61.39,-80.99,-169.09,48.84386,2.353353,91.6,NaN,,13.99,,0 / 19,,1396,2022-01-12 10:30:32:147
0.4008,9.7155,-1.6519,0.2908,9.6856,-1.5086,-0.0785,0.027,0.2601,0.3426,1.3711,0.0732,13.5,-34.8,17.85,61.39,-80.99,-169.09,48.84386,2.353353,91.6,NaN,,13.99,,0 / 19,,1401,2022-01-12 10:30:32:152
0.4008,9.7155,-1.6519,0.2908,9.6856,-1.5086,-0.0785,0.027,0.2601,0.3081,1.1105,0.0977,13.5,-34.8,17.85,61.39,-80.99,-169.09,48.84386,2.353353,91.6,NaN,,13.99,,0 / 19,,1406,2022-01-12 10:30:32:157
0.4008,9.7155,-1.6519,0.2908,9.6856,-1.5086,-0.0785,0.027,0.2601,0.3081,1.1105,0.0977,13.5,-34.8,17.85,61.39,-80.99,-169.09,48.84386,2.353353,91.6,NaN,,13.99,,0 / 19,,1411,2022-01-12 10:30:32:162
0.4008,9.7155,-1.6519,0.2908,9.6856,-1.5086,-0.0785,0.027,0.2601,0.3081,1.1105,0.0977,13.5,-34.8,17.85,61.39,-80.99,-169.09,48.84386,2.353353,91.6,NaN,,13.99,,0 / 19,,1416,2022-01-12 10:30:32:167
0.4008,9.7155,-1.6519,0.2908,9.6856,-1.5086,-0.0785,0.027,0.2601,0.3081,1.1105,0.0977,13.5,-34.8,17.85,61.39,-80.99,-169.09,48.84386,2.353353,91.6,NaN,,13.99,,0 / 19,,1421,2022-01-12 10:30:32:172
1.7243,9.3778,-3.0236,0.6377,9.6165,-1.8132,-0.2596,0.0644,0.1928,0.3081,1.1105,0.0977,13.5,-34.8,17.85,61.39,-80.99,-169.09,48.84386,2.353353,91.6,NaN,,13.99,,0 / 19,,1425,2022-01-12 10:30:32:176
1.7243,9.3778,-3.0236,0.6377,9.6165,-1.8132,-0.2596,0.0644,0.1928,0.3081,1.1105,0.0977,13.5,-34.8,17.85,61.39,-80.99,-169.09,48.84386,2.353353,91.6,NaN,,13.99,,0 / 19,,1430,2022-01-12 10:30:32:181
1.7243,9.3778,-3.0236,0.6377,9.6165,-1.8132,-0.2596,0.0644,0.1928,0.3081,1.1105,0.0977,13.5,-34.8,17.85,61.39,-80.99,-169.09,48.84386,2.353353,91.6,NaN,,13.99,,0 / 19,,1436,2022-01-12 10:30:32:187
1.7243,9.3778,-3.0236,0.6377,9.6165,-1.8132,-0.2596,0.0644,0.1928,0.3081,1.1105,0.0977,13.5,-34.8,17.85,61.39,-80.99,-169.09,48.84386,2.353353,91.6,NaN,,13.99,,0 / 19,,1441,2022-01-12 10:30:32:192
1.7243,9.3778,-3.0236,0.6377,9.6165,-1.8132,-0.2596,0.0644,0.1928,0.3081,1.1105,0.0977,13.5,-34.8,17.85,61.39,-80.99,-169.09,48.84386,2.353353,91.6,NaN,,13.99,,0 / 19,,1445,2022-01-12 10:30:32:196
1.7243,9.3778,-3.0236,0.6377,9.6165,-1.8132,-0.2596,0.0644,0.1928,0.3081,1.1105,0.0977,13.5,-34.8,17.85,61.39,-80.99,-169.09,48.84386,2.353353,91.6,NaN,,13.99,,0 / 19,,1450,2022-01-12 10:30:32:201
1.7243,9.3778,-3.0236,0.6377,9.6165,-1.8132,-0.2596,0.0644,0.1928,0.3081,1.1105,0.0977,13.5,-34.8,17.85,61.39,-80.99,-169.09,48.84386,2.353353,91.6,NaN,,13.99,,0 / 19,,1456,2022-01-12 10:30:32:207
1.7243,9.3778,-3.0236,0.6377,9.6165,-1.8132,-0.2596,0.0644,0.1928,0.3081,1.1105,0.0977,13.5,-34.8,17.85,61.39,-80.99,-169.09,48.84386,2.353353,91.6,NaN,,13.99,,0 / 19,,1461,2022-01-12 10:30:32:212
1.7243,9.3778,-3.0236,0.6377,9.6165,-1.8132,-0.2596,0.0644,0.1928,0.3081,1.1105,0.0977,13.5,-34.8,17.85,61.39,-80.99,-169.09,48.84386,2.353353,91.6,NaN,,13.99,,0 / 19,,1466,2022-01-12 10:30:32:217
1.7243,9.3778,-3.0236,0.6377,9.6165,-1.8132,-0.2596,0.0644,0.1928,0.3081,1.1105,0.0977,13.5,-34.8,17.85,61.39,-80.99,-169.09,48.84386,2.353353,91.6,NaN,,13.99,,0 / 19,,1471,2022-01-12 10:30:32:222
1.7243,9.3778,-3.0236,0.6377,9.6165,-1.8132,-0.2596,0.0644,0.1928,0.3081,1.1105,0.0977,13.5,-34.8,17.85,61.39,-80.99,-169.09,48.84386,2.353353,91.6,NaN,,13.99,,0 / 19,,1475,2022-01-12 10:30:32:226
1.7243,9.3778,-3.0236,0.6377,9.6165,-1.8132,-0.2596,0.0644,0.1928,0.3081,1.1105,0.0977,13.5,-34.8,17.85,61.39,-80.99,-169.09,48.84386,2.353353,91.6,NaN,,13.99,,0 / 19,,1480,2022-01-12 10:30:32:231
0.4499,9.6377,-1.8353,0.6976,9.6124,-1.8124,-0.2596,0.0644,0.1928,0.3081,1.1105,0.0977,13.5,-34.8,17.85,61.39,-80.99,-169.09,48.84386,2.353353,91.6,NaN,,13.99,,0 / 19,,1485,2022-01-12 10:30:32:236
0.4499,9.6377,-1.8353,0.6976,9.6124,-1.8124,-0.2596,0.0644,0.1928,0.3081,1.1105,0.0977,13.5,-34.8,17.85,61.39,-80.99,-169.09,48.84386,2.353353,91.6,NaN,,13.99,,0 / 19,,1490,2022-01-12 10:30:32:241
0.4499,9.6377,-1.8353,0.6976,9.6124,-1.8124,-0.2596,0.0644,0.1928,0.3081,1.1105,0.0977,10.43,-34.43,21.0,62.04,-78.58,-158.95,48.84386,2.353353,91.6,NaN,,13.99,,0 / 19,,1495,2022-01-12 10:30:32:246
0.4499,9.6377,-1.8353,0.6976,9.6124,-1.8124,-0.2596,0.0644,0.1928,0.3081,1.1105,0.0977,10.43,-34.43,21.0,62.04,-78.58,-158.95,48.84386,2.353353,91.6,NaN,,13.99,,0 / 19,,1500,2022-01-12 10:30:32:251
0.4499,9.6377,-1.8353,0.6976,9.6124,-1.8124,-0.2596,0.0644,0.1928,0.3081,1.1105,0.0977,10.43,-34.43,21.0,62.04,-78.58,-158.95,48.84386,2.353353,91.6,NaN,,13.99,,0 / 19,,1505,2022-01-12 10:30:32:256
0.4499,9.6377,-1.8353,0.6976,9.6124,-1.8124,-0.2596,0.0644,0.1928,0.3081,1.1105,0.0977,10.43,-34.43,21.0,62.04,-78.58,-158.95,48.84386,2.353353,91.6,NaN,,13.99,,0 / 19,,1511,2022-01-12 10:30:32:262
0.4499,9.6377,-1.8353,0.6976,9.6124,-1.8124,-0.2596,0.0644,0.1928,0.3081,1.1105,0.0977,10.43,-34.43,21.0,62.04,-78.58,-158.95,48.84386,2.353353,91.6,NaN,,13.99,,0 / 19,,1515,2022-01-12 10:30:32:266
0.4499,9.6377,-1.8353,0.6976,9.6124,-1.8124,-0.2596,0.0644,0.1928,0.3081,1.1105,0.0977,10.43,-34.43,21.0,62.04,-78.58,-158.95,48.84386,2.353353,91.6,NaN,,13.99,,0 / 19,,1520,2022-01-12 10:30:32:271
0.4499,9.6377,-1.8353,0.6976,9.6124,-1.8124,-0.2596,0.0644,0.1928,0.3081,1.1105,0.0977,10.43,-34.43,21.0,62.04,-78.58,-158.95,48.84386,2.353353,91.6,NaN,,13.99,,0 / 19,,1525,2022-01-12 10:30:32:276
0.4499,9.6377,-1.8353,0.6976,9.6124,-1.8124,-0.2596,0.0644,0.1928,-0.0305,0.7595,-0.0358,10.43,-34.43,21.0,62.04,-78.58,-158.95,48.84386,2.353353,91.6,NaN,,13.99,,0 / 19,,1530,2022-01-12 10:30:32:281
0.4499,9.6377,-1.8353,0.6976,9.6124,-1.8124,-0.2596,0.0644,0.1928,-0.0305,0.7595,-0.0358,10.43,-34.43,21.0,62.04,-78.58,-158.95,48.84386,2.353353,91.6,NaN,,13.99,,0 / 19,,1535,2022-01-12 10:30:32:286
0.4499,9.6377,-1.8353,0.6976,9.6124,-1.8124,-0.2596,0.0644,0.1928,-0.0305,0.7595,-0.0358,10.43,-34.43,21.0,62.04,-78.58,-158.95,48.84386,2.353353,91.6,NaN,,13.99,,0 / 19,,1540,2022-01-12 10:30:32:291
0.4499,9.6377,-1.8353,0.6976,9.6124,-1.8124,-0.2596,0.0644,0.1928,-0.0305,0.7595,-0.0358,10.43,-34.43,21.0,62.04,-78.58,-158.95,48.84386,2.353353,91.6,NaN,,13.99,,0 / 19,,1548,2022-01-12 10:30:32:299
0.4499,9.6377,-1.8353,0.6976,9.6124,-1.8124,-0.2596,0.0644,0.1928,-0.0305,0.7595,-0.0358,10.43,-34.43,21.0,62.04,-78.58,-158.95,48.84386,2.353353,91.6,NaN,,13.99,,0 / 19,,1550,2022-01-12 10:30:32:301
0.4499,9.6377,-1.8353,0.6976,9.6124,-1.8124,-0.2596,0.0644,0.1928,-0.0305,0.7595,-0.0358,10.43,-34.43,21.0,62.04,-78.58,-158.95,48.84386,2.353353,91.6,NaN,,13.99,,0 / 19,,1555,2022-01-12 10:30:32:306
0.5279,9.7011,-1.8485,0.7601,9.6169,-1.763,-0.1914,1.0E-4,-0.1104,-0.0305,0.7595,-0.0358,10.43,-34.43,21.0,62.04,-78.58,-158.95,48.84386,2.353353,91.6,NaN,,13.99,,0 / 19,,1560,2022-01-12 10:30:32:311
0.5279,9.7011,-1.8485,0.7601,9.6169,-1.763,-0.1914,1.0E-4,-0.1104,-0.0305,0.7595,-0.0358,10.43,-34.43,21.0,62.04,-78.58,-158.95,48.84386,2.353353,91.6,NaN,,13.99,,0 / 19,,1565,2022-01-12 10:30:32:316
0.5279,9.7011,-1.8485,0.7601,9.6169,-1.763,-0.1914,1.0E-4,-0.1104,-0.0305,0.7595,-0.0358,10.43,-34.43,21.0,62.04,-78.58,-158.95,48.84386,2.353353,91.6,NaN,,13.99,,0 / 19,,1570,2022-01-12 10:30:32:321
0.5279,9.7011,-1.8485,0.7601,9.6169,-1.763,-0.1914,1.0E-4,-0.1104,-0.0305,0.7595,-0.0358,10.43,-34.43,21.0,62.04,-78.58,-158.95,48.84386,2.353353,91.6,NaN,,13.99,,0 / 19,,1575,2022-01-12 10:30:32:326
0.5279,9.7011,-1.8485,0.7601,9.6169,-1.763,-0.1914,1.0E-4,-0.1104,-0.0305,0.7595,-0.0358,10.43,-34.43,21.0,62.04,-78.58,-158.95,48.84386,2.353353,91.6,NaN,,13.99,,0 / 19,,1580,2022-01-12 10:30:32:331
0.5279,9.7011,-1.8485,0.7601,9.6169,-1.763,-0.1914,1.0E-4,-0.1104,-0.0305,0.7595,-0.0358,10.43,-34.43,21.0,62.04,-78.58,-158.95,48.84386,2.353353,91.6,NaN,,13.99,,0 / 19,,1585,2022-01-12 10:30:32:336
0.5279,9.7011,-1.8485,0.7601,9.6169,-1.763,-0.1914,1.0E-4,-0.1104,-0.0305,0.7595,-0.0358,8.85,-34.28,22.35,60.35,-78.71,-156.68,48.84386,2.353353,91.6,NaN,,13.99,,0 / 19,,1590,2022-01-12 10:30:32:341
0.5279,9.7011,-1.8485,0.7601,9.6169,-1.763,-0.1914,1.0E-4,-0.1104,-0.0305,0.7595,-0.0358,8.85,-34.28,22.35,60.35,-78.71,-156.68,48.84386,2.353353,91.6,NaN,,13.99,,0 / 19,,1595,2022-01-12 10:30:32:346
0.5279,9.7011,-1.8485,0.7601,9.6169,-1.763,-0.1914,1.0E-4,-0.1104,-0.0305,0.7595,-0.0358,8.85,-34.28,22.35,60.35,-78.71,-156.68,48.84386,2.353353,91.6,NaN,,13.99,,0 / 19,,1600,2022-01-12 10:30:32:351
0.5279,9.7011,-1.8485,0.7601,9.6169,-1.763,-0.1914,1.0E-4,-0.1104,-0.0305,0.7595,-0.0358,8.85,-34.28,22.35,60.35,-78.71,-156.68,48.84386,2.353353,91.6,NaN,,13.99,,0 / 19,,1605,2022-01-12 10:30:32:356
0.5279,9.7011,-1.8485,0.7601,9.6169,-1.763,-0.1914,1.0E-4,-0.1104,-0.0305,0.7595,-0.0358,8.85,-34.28,22.35,60.35,-78.71,-156.68,48.84386,2.353353,91.6,NaN,,13.99,,0 / 19,,1610,2022-01-12 10:30:32:361
0.5279,9.7011,-1.8485,0.7601,9.6169,-1.763,-0.1914,1.0E-4,-0.1104,-0.0305,0.7595,-0.0358,8.85,-34.28,22.35,60.35,-78.71,-156.68,48.84386,2.353353,91.6,NaN,,13.99,,0 / 19,,1615,2022-01-12 10:30:32:366
0.5279,9.7011,-1.8485,0.7601,9.6169,-1.763,-0.1914,1.0E-4,-0.1104,-0.0305,0.7595,-0.0358,8.85,-34.28,22.35,60.35,-78.71,-156.68,48.84386,2.353353,91.6,NaN,,13.99,,0 / 19,,1620,2022-01-12 10:30:32:371
0.5279,9.7011,-1.8485,0.7601,9.6169,-1.763,-0.1914,1.0E-4,-0.1104,-0.0305,0.7595,-0.0358,8.85,-34.28,22.35,60.35,-78.71,-156.68,48.84386,2.353353,91.6,NaN,,13.99,,0 / 19,,1625,2022-01-12 10:30:32:376
0.5279,9.7011,-1.8485,0.7601,9.6169,-1.763,-0.1914,1.0E-4,-0.1104,-0.0305,0.7595,-0.0358,8.85,-34.28,22.35,60.35,-78.71,-156.68,48.84386,2.353353,91.6,NaN,,13.99,,0 / 19,,1630,2022-01-12 10:30:32:381
0.5279,9.7011,-1.8485,0.7601,9.6169,-1.763,-0.1914,1.0E-4,-0.1104,-0.0305,0.7595,-0.0358,8.85,-34.28,22.35,60.35,-78.71,-156.68,48.84386,2.353353,91.6,NaN,,13.99,,0 / 19,,1635,2022-01-12 10:30:32:386
0.5279,9.7011,-1.8485,0.7601,9.6169,-1.763,-0.1914,1.0E-4,-0.1104,-0.0305,0.7595,-0.0358,8.85,-34.28,22.35,60.35,-78.71,-156.68,48.84386,2.353353,91.6,NaN,,13.99,,0 / 19,,1641,2022-01-12 10:30:32:392
0.565,9.6544,-1.9433,0.7601,9.6169,-1.763,-0.1914,1.0E-4,-0.1104,-0.0305,0.7595,-0.0358,8.85,-34.28,22.35,60.35,-78.71,-156.68,48.84386,2.353353,91.6,NaN,,13.99,,0 / 19,,1645,2022-01-12 10:30:32:396
0.565,9.6544,-1.9433,0.7601,9.6169,-1.763,-0.1914,1.0E-4,-0.1104,-0.0305,0.7595,-0.0358,8.85,-34.28,22.35,60.35,-78.71,-156.68,48.84386,2.353353,91.6,NaN,,13.99,,0 / 19,,1650,2022-01-12 10:30:32:401
0.565,9.6544,-1.9433,0.7601,9.6169,-1.763,-0.1914,1.0E-4,-0.1104,-0.0305,0.7595,-0.0358,8.85,-34.28,22.35,60.35,-78.71,-156.68,48.84386,2.353353,91.6,NaN,,13.99,,0 / 19,,1655,2022-01-12 10:30:32:406
0.565,9.6544,-1.9433,0.7601,9.6169,-1.763,-0.1914,1.0E-4,-0.1104,-0.0305,0.7595,-0.0358,8.85,-34.28,22.35,60.35,-78.71,-156.68,48.84386,2.353353,91.6,NaN,,13.99,,0 / 19,,1660,2022-01-12 10:30:32:411
0.565,9.6544,-1.9433,0.7601,9.6169,-1.763,-0.1914,1.0E-4,-0.1104,-0.0305,0.7595,-0.0358,8.85,-34.28,22.35,60.35,-78.71,-156.68,48.84386,2.353353,91.6,NaN,,13.99,,0 / 19,,1666,2022-01-12 10:30:32:417
0.565,9.6544,-1.9433,0.7601,9.6169,-1.763,-0.1914,1.0E-4,-0.1104,7.0E-4,0.8925,-0.1158,8.85,-34.28,22.35,60.35,-78.71,-156.68,48.84386,2.353353,91.6,NaN,,13.99,,0 / 19,,1670,2022-01-12 10:30:32:421
0.565,9.6544,-1.9433,0.8423,9.6271,-1.6672,0.0292,-0.0145,0.0612,7.0E-4,0.8925,-0.1158,8.85,-34.28,22.35,60.35,-78.71,-156.68,48.84386,2.353353,91.6,NaN,,13.99,,0 / 19,,1675,2022-01-12 10:30:32:426
0.565,9.6544,-1.9433,0.8423,9.6271,-1.6672,0.0292,-0.0145,0.0612,7.0E-4,0.8925,-0.1158,8.85,-34.28,22.35,60.35,-78.71,-156.68,48.84386,2.353353,91.6,NaN,,13.99,,0 / 19,,1680,2022-01-12 10:30:32:431
0.565,9.6544,-1.9433,0.8423,9.6271,-1.6672,0.0292,-0.0145,0.0612,7.0E-4,0.8925,-0.1158,8.85,-34.28,22.35,60.35,-78.71,-156.68,48.84386,2.353353,91.6,NaN,,13.99,,0 / 19,,1685,2022-01-12 10:30:32:436
0.565,9.6544,-1.9433,0.8423,9.6271,-1.6672,0.0292,-0.0145,0.0612,7.0E-4,0.8925,-0.1158,8.85,-34.28,22.35,60.35,-78.71,-156.68,48.84386,2.353353,91.6,NaN,,13.99,,0 / 19,,1690,2022-01-12 10:30:32:441
0.565,9.6544,-1.9433,0.8423,9.6271,-1.6672,0.0292,-0.0145,0.0612,7.0E-4,0.8925,-0.1158,6.53,-35.62,23.03,58.47,-79.02,-153.2,48.84386,2.353353,91.6,NaN,,13.99,,0 / 19,,1695,2022-01-12 10:30:32:446
0.565,9.6544,-1.9433,0.8423,9.6271,-1.6672,0.0292,-0.0145,0.0612,7.0E-4,0.8925,-0.1158,6.53,-35.62,23.03,58.47,-79.02,-153.2,48.84386,2.353353,91.6,NaN,,13.99,,0 / 19,,1700,2022-01-12 10:30:32:451
0.565,9.6544,-1.9433,0.8423,9.6271,-1.6672,0.0292,-0.0145,0.0612,7.0E-4,0.8925,-0.1158,6.53,-35.62,23.03,58.47,-79.02,-153.2,48.84386,2.353353,91.6,NaN,,13.99,,0 / 19,,1705,2022-01-12 10:30:32:456
0.565,9.6544,-1.9433,0.8423,9.6271,-1.6672,0.0292,-0.0145,0.0612,7.0E-4,0.8925,-0.1158,6.53,-35.62,23.03,58.47,-79.02,-153.2,48.84386,2.353353,91.6,NaN,,13.99,,0 / 19,,1710,2022-01-12 10:30:32:461
0.565,9.6544,-1.9433,0.8423,9.6271,-1.6672,0.0292,-0.0145,0.0612,7.0E-4,0.8925,-0.1158,6.53,-35.62,23.03,58.47,-79.02,-153.2,48.84386,2.353353,91.6,NaN,,13.99,,0 / 19,,1715,2022-01-12 10:30:32:466
0.565,9.6544,-1.9433,0.8423,9.6271,-1.6672,0.0292,-0.0145,0.0612,7.0E-4,0.8925,-0.1158,6.53,-35.62,23.03,58.47,-79.02,-153.2,48.84386,2.353353,91.6,NaN,,13.99,,0 / 19,,1720,2022-01-12 10:30:32:471
0.565,9.6544,-1.9433,0.8423,9.6271,-1.6672,0.0292,-0.0145,0.0612,7.0E-4,0.8925,-0.1158,6.53,-35.62,23.03,58.47,-79.02,-153.2,48.84386,2.353353,91.6,NaN,,13.99,,0 / 19,,1725,2022-01-12 10:30:32:476
0.0248,9.5815,-1.8245,0.8423,9.6271,-1.6672,0.0292,-0.0145,0.0612,7.0E-4,0.8925,-0.1158,6.53,-35.62,23.03,58.47,-79.02,-153.2,48.84386,2.353353,91.6,NaN,,13.99,,0 / 19,,1730,2022-01-12 10:30:32:481
0.0248,9.5815,-1.8245,0.8423,9.6271,-1.6672,0.0292,-0.0145,0.0612,7.0E-4,0.8925,-0.1158,6.53,-35.62,23.03,58.47,-79.02,-153.2,48.84386,2.353353,91.6,NaN,,13.99,,0 / 19,,1735,2022-01-12 10:30:32:486
0.0248,9.5815,-1.8245,0.8423,9.6271,-1.6672,0.0292,-0.0145,0.0612,7.0E-4,0.8925,-0.1158,6.53,-35.62,23.03,58.47,-79.02,-153.2,48.84386,2.353353,91.6,NaN,,13.99,,0 / 19,,1740,2022-01-12 10:30:32:491
0.0248,9.5815,-1.8245,0.8423,9.6271,-1.6672,0.0292,-0.0145,0.0612,7.0E-4,0.8925,-0.1158,6.53,-35.62,23.03,58.47,-79.02,-153.2,48.84386,2.353353,91.6,NaN,,13.99,,0 / 19,,1745,2022-01-12 10:30:32:496
0.0248,9.5815,-1.8245,0.8423,9.6271,-1.6672,0.0292,-0.0145,0.0612,7.0E-4,0.8925,-0.1158,6.53,-35.62,23.03,58.47,-79.02,-153.2,48.84386,2.353353,91.6,NaN,,13.99,,0 / 19,,1750,2022-01-12 10:30:32:501
0.0248,9.5815,-1.8245,0.8423,9.6271,-1.6672,0.0292,-0.0145,0.0612,7.0E-4,0.8925,-0.1158,6.53,-35.62,23.03,58.47,-79.02,-153.2,48.84386,2.353353,91.6,NaN,,13.99,,0 / 19,,1755,2022-01-12 10:30:32:506
0.0248,9.5815,-1.8245,0.8423,9.6271,-1.6672,0.0292,-0.0145,0.0612,7.0E-4,0.8925,-0.1158,6.53,-35.62,23.03,58.47,-79.02,-153.2,48.84386,2.353353,91.6,NaN,,13.99,,0 / 19,,1760,2022-01-12 10:30:32:511
0.0248,9.5815,-1.8245,0.8423,9.6271,-1.6672,0.0292,-0.0145,0.0612,7.0E-4,0.8925,-0.1158,6.53,-35.62,23.03,58.47,-79.02,-153.2,48.84386,2.353353,91.6,NaN,,13.99,,0 / 19,,1765,2022-01-12 10:30:32:516
0.0248,9.5815,-1.8245,0.8423,9.6271,-1.6672,0.0292,-0.0145,0.0612,7.0E-4,0.8925,-0.1158,6.53,-35.62,23.03,58.47,-79.02,-153.2,48.84386,2.353353,91.6,NaN,,13.99,,0 / 19,,1770,2022-01-12 10:30:32:521
0.0248,9.5815,-1.8245,0.8423,9.6271,-1.6672,0.0292,-0.0145,0.0612,7.0E-4,0.8925,-0.1158,6.53,-35.62,23.03,58.47,-79.02,-153.2,48.84386,2.353353,91.6,NaN,,13.99,,0 / 19,,1775,2022-01-12 10:30:32:526
0.0248,9.5815,-1.8245,0.8423,9.6271,-1.6672,0.0292,-0.0145,0.0612,7.0E-4,0.8925,-0.1158,6.53,-35.62,23.03,58.47,-79.02,-153.2,48.84386,2.353353,91.6,NaN,,13.99,,0 / 19,,1780,2022-01-12 10:30:32:531
0.0248,9.5815,-1.8245,0.8423,9.6271,-1.6672,0.0292,-0.0145,0.0612,7.0E-4,0.8925,-0.1158,6.53,-35.62,23.03,58.47,-79.02,-153.2,48.84386,2.353353,91.6,NaN,,13.99,,0 / 19,,1785,2022-01-12 10:30:32:536
0.0248,9.5815,-1.8245,0.8423,9.6271,-1.6672,0.0292,-0.0145,0.0612,7.0E-4,0.8925,-0.1158,5.1,-35.7,23.78,51.96,-79.02,-153.2,48.84386,2.353353,91.6,NaN,,13.99,,0 / 19,,1790,2022-01-12 10:30:32:541
1.2009,9.7633,-1.101,0.8423,9.6271,-1.6672,0.0292,-0.0145,0.0612,7.0E-4,0.8925,-0.1158,5.1,-35.7,23.78,51.96,-79.02,-153.2,48.84386,2.353353,91.6,NaN,,13.99,,0 / 19,,1795,2022-01-12 10:30:32:546
1.2009,9.7633,-1.101,0.8731,9.6392,-1.5789,-0.5687,0.0054,-0.225,-0.0281,0.873,-0.0201,5.1,-35.7,23.78,51.96,-79.02,-153.2,48.84386,2.353353,91.6,NaN,,13.99,,0 / 19,,1800,2022-01-12 10:30:32:551
1.2009,9.7633,-1.101,0.8731,9.6392,-1.5789,-0.5687,0.0054,-0.225,-0.0281,0.873,-0.0201,5.1,-35.7,23.78,51.96,-79.02,-153.2,48.84386,2.353353,91.6,NaN,,13.99,,0 / 19,,1805,2022-01-12 10:30:32:556
1.2009,9.7633,-1.101,0.8731,9.6392,-1.5789,-0.5687,0.0054,-0.225,-0.0281,0.873,-0.0201,5.1,-35.7,23.78,51.96,-79.02,-153.2,48.84386,2.353353,91.6,NaN,,13.99,,0 / 19,,1811,2022-01-12 10:30:32:562
1.2009,9.7633,-1.101,0.8731,9.6392,-1.5789,-0.5687,0.0054,-0.225,-0.0281,0.873,-0.0201,5.1,-35.7,23.78,51.96,-79.02,-153.2,48.84386,2.353353,91.6,NaN,,13.99,,0 / 19,,1816,2022-01-12 10:30:32:567
1.2009,9.7633,-1.101,0.8731,9.6392,-1.5789,-0.5687,0.0054,-0.225,-0.0281,0.873,-0.0201,5.1,-35.7,23.78,51.96,-79.02,-153.2,48.84386,2.353353,91.6,NaN,,13.99,,0 / 19,,1820,2022-01-12 10:30:32:571
1.2009,9.7633,-1.101,0.8731,9.6392,-1.5789,-0.5687,0.0054,-0.225,-0.0281,0.873,-0.0201,5.1,-35.7,23.78,51.96,-79.02,-153.2,48.84386,2.353353,91.6,NaN,,13.99,,0 / 19,,1825,2022-01-12 10:30:32:576
1.2009,9.7633,-1.101,0.8731,9.6392,-1.5789,-0.5687,0.0054,-0.225,-0.0281,0.873,-0.0201,5.1,-35.7,23.78,51.96,-79.02,-153.2,48.84386,2.353353,91.6,NaN,,13.99,,0 / 19,,1830,2022-01-12 10:30:32:581
1.2009,9.7633,-1.101,0.8731,9.6392,-1.5789,-0.5687,0.0054,-0.225,-0.0281,0.873,-0.0201,5.1,-35.7,23.78,51.96,-79.02,-153.2,48.84386,2.353353,91.6,NaN,,13.99,,0 / 19,,1835,2022-01-12 10:30:32:586
1.2009,9.7633,-1.101,0.8731,9.6392,-1.5789,-0.5687,0.0054,-0.225,-0.0281,0.873,-0.0201,5.1,-35.7,23.78,51.96,-79.02,-153.2,48.84386,2.353353,91.6,NaN,,13.99,,0 / 19,,1840,2022-01-12 10:30:32:591
1.2009,9.7633,-1.101,0.8731,9.6392,-1.5789,-0.5687,0.0054,-0.225,-0.0281,0.873,-0.0201,5.1,-35.7,23.78,51.96,-79.02,-153.2,48.84386,2.353353,91.6,NaN,,13.99,,0 / 19,,1845,2022-01-12 10:30:32:596
1.2009,9.7633,-1.101,0.8731,9.6392,-1.5789,-0.5687,0.0054,-0.225,-0.0281,0.873,-0.0201,5.1,-35.7,23.78,51.96,-79.02,-153.2,48.84386,2.353353,91.6,NaN,,13.99,,0 / 19,,1850,2022-01-12 10:30:32:601
1.2009,9.7633,-1.101,0.8731,9.6392,-1.5789,-0.5687,0.0054,-0.225,-0.0281,0.873,-0.0201,5.1,-35.7,23.78,51.96,-79.02,-153.2,48.84386,2.353353,91.6,NaN,,13.99,,0 / 19,,1855,2022-01-12 10:30:32:606
1.1686,9.6999,-1.2544,0.949,9.6458,-1.4929,-0.102,0.0409,0.1365,-0.0281,0.873,-0.0201,5.1,-35.7,23.78,51.96,-79.02,-153.2,48.84386,2.353353,91.6,NaN,,13.99,,0 / 19,,1860,2022-01-12 10:30:32:611
1.1686,9.6999,-1.2544,0.949,9.6458,-1.4929,-0.102,0.0409,0.1365,-0.0281,0.873,-0.0201,5.1,-35.7,23.78,51.96,-79.02,-153.2,48.84386,2.353353,91.6,NaN,,13.99,,0 / 19,,1865,2022-01-12 10:30:32:616
1.1686,9.6999,-1.2544,0.949,9.6458,-1.4929,-0.102,0.0409,0.1365,-0.0281,0.873,-0.0201,5.1,-35.7,23.78,51.96,-79.02,-153.2,48.84386,2.353353,91.6,NaN,,13.99,,0 / 19,,1871,2022-01-12 10:30:32:622
1.1686,9.6999,-1.2544,0.949,9.6458,-1.4929,-0.102,0.0409,0.1365,-0.0281,0.873,-0.0201,5.1,-35.7,23.78,51.96,-79.02,-153.2,48.84386,2.353353,91.6,NaN,,13.99,,0 / 19,,1875,2022-01-12 10:30:32:626
1.1686,9.6999,-1.2544,0.949,9.6458,-1.4929,-0.102,0.0409,0.1365,-0.0281,0.873,-0.0201,5.1,-35.7,23.78,51.96,-79.02,-153.2,48.84386,2.353353,91.6,NaN,,13.99,,0 / 19,,1881,2022-01-12 10:30:32:632
1.1686,9.6999,-1.2544,0.949,9.6458,-1.4929,-0.102,0.0409,0.1365,-0.0281,0.873,-0.0201,5.1,-35.7,23.78,51.96,-79.02,-153.2,48.84386,2.353353,91.6,NaN,,13.99,,0 / 19,,1886,2022-01-12 10:30:32:637
1.1686,9.6999,-1.2544,0.949,9.6458,-1.4929,-0.102,0.0409,0.1365,-0.0281,0.873,-0.0201,2.48,-35.85,23.85,49.65,-79.61,-147.56,48.84386,2.353353,91.6,NaN,,13.99,,0 / 19,,1890,2022-01-12 10:30:32:641
1.1686,9.6999,-1.2544,0.949,9.6458,-1.4929,-0.102,0.0409,0.1365,-0.0281,0.873,-0.0201,2.48,-35.85,23.85,49.65,-79.61,-147.56,48.84386,2.353353,91.6,NaN,,13.99,,0 / 19,,1896,2022-01-12 10:30:32:647
1.1686,9.6999,-1.2544,0.949,9.6458,-1.4929,-0.102,0.0409,0.1365,-0.0281,0.873,-0.0201,2.48,-35.85,23.85,49.65,-79.61,-147.56,48.84386,2.353353,91.6,NaN,,13.99,,0 / 19,,1901,2022-01-12 10:30:32:652
1.1686,9.6999,-1.2544,0.949,9.6458,-1.4929,-0.102,0.0409,0.1365,-0.0281,0.873,-0.0201,2.48,-35.85,23.85,49.65,-79.61,-147.56,48.84386,2.353353,91.6,NaN,,13.99,,0 / 19,,1906,2022-01-12 10:30:32:657
1.1686,9.6999,-1.2544,0.949,9.6458,-1.4929,-0.102,0.0409,0.1365,-0.0281,0.873,-0.0201,2.48,-35.85,23.85,49.65,-79.61,-147.56,48.84386,2.353353,91.6,NaN,,13.99,,0 / 19,,1911,2022-01-12 10:30:32:662
1.1686,9.6999,-1.2544,0.949,9.6458,-1.4929,-0.102,0.0409,0.1365,-0.0281,0.873,-0.0201,2.48,-35.85,23.85,49.65,-79.61,-147.56,48.84386,2.353353,91.6,NaN,,13.99,,0 / 19,,1915,2022-01-12 10:30:32:666
1.1686,9.6999,-1.2544,0.949,9.6458,-1.4929,-0.102,0.0409,0.1365,-0.0281,0.873,-0.0201,2.48,-35.85,23.85,49.65,-79.61,-147.56,48.84386,2.353353,91.6,NaN,,13.99,,0 / 19,,1920,2022-01-12 10:30:32:671
1.1686,9.6999,-1.2544,0.949,9.6458,-1.4929,-0.102,0.0409,0.1365,-0.0281,0.873,-0.0201,2.48,-35.85,23.85,49.65,-79.61,-147.56,48.84386,2.353353,91.6,NaN,,13.99,,0 / 19,,1925,2022-01-12 10:30:32:676
1.1387,9.6305,-1.3513,0.949,9.6458,-1.4929,-0.102,0.0409,0.1365,0.0045,0.9953,-0.0126,2.48,-35.85,23.85,49.65,-79.61,-147.56,48.84386,2.353353,91.6,NaN,,13.99,,0 / 19,,1933,2022-01-12 10:30:32:684
1.1387,9.6305,-1.3513,0.949,9.6458,-1.4929,-0.102,0.0409,0.1365,0.0045,0.9953,-0.0126,2.48,-35.85,23.85,49.65,-79.61,-147.56,48.84386,2.353353,91.6,NaN,,13.99,,0 / 19,,1935,2022-01-12 10:30:32:686
1.1387,9.6305,-1.3513,0.949,9.6458,-1.4929,-0.102,0.0409,0.1365,0.0045,0.9953,-0.0126,2.48,-35.85,23.85,49.65,-79.61,-147.56,48.84386,2.353353,91.6,NaN,,13.99,,0 / 19,,1940,2022-01-12 10:30:32:691
1.1387,9.6305,-1.3513,0.949,9.6458,-1.4929,-0.102,0.0409,0.1365,0.0045,0.9953,-0.0126,2.48,-35.85,23.85,49.65,-79.61,-147.56,48.84386,2.353353,91.6,NaN,,13.99,,0 / 19,,1945,2022-01-12 10:30:32:696
1.1387,9.6305,-1.3513,0.949,9.6458,-1.4929,-0.102,0.0409,0.1365,0.0045,0.9953,-0.0126,2.48,-35.85,23.85,49.65,-79.61,-147.56,48.84386,2.353353,91.6,NaN,,13.99,,0 / 19,,1951,2022-01-12 10:30:32:702
1.1387,9.6305,-1.3513,0.949,9.6458,-1.4929,-0.102,0.0409,0.1365,0.0045,0.9953,-0.0126,2.48,-35.85,23.85,49.65,-79.61,-147.56,48.84386,2.353353,91.6,NaN,,13.99,,0 / 19,,1955,2022-01-12 10:30:32:706
1.1387,9.6305,-1.3513,0.949,9.6458,-1.4929,-0.102,0.0409,0.1365,0.0045,0.9953,-0.0126,2.48,-35.85,23.85,49.65,-79.61,-147.56,48.84386,2.353353,91.6,NaN,,13.99,,0 / 19,,1960,2022-01-12 10:30:32:711
1.1387,9.6305,-1.3513,0.949,9.6458,-1.4929,-0.102,0.0409,0.1365,0.0045,0.9953,-0.0126,2.48,-35.85,23.85,49.65,-79.61,-147.56,48.84386,2.353353,91.6,NaN,,13.99,,0 / 19,,1965,2022-01-12 10:30:32:716
1.1387,9.6305,-1.3513,0.949,9.6458,-1.4929,-0.102,0.0409,0.1365,0.0045,0.9953,-0.0126,2.48,-35.85,23.85,49.65,-79.61,-147.56,48.84386,2.353353,91.6,NaN,,13.99,,0 / 19,,1970,2022-01-12 10:30:32:721
1.1387,9.6305,-1.3513,1.0629,9.6536,-1.3597,-0.3209,0.0108,-0.0046,0.0045,0.9953,-0.0126,2.48,-35.85,23.85,49.65,-79.61,-147.56,48.84386,2.353353,91.6,NaN,,13.99,,0 / 19,,1976,2022-01-12 10:30:32:727
1.1387,9.6305,-1.3513,1.0629,9.6536,-1.3597,-0.3209,0.0108,-0.0046,0.0045,0.9953,-0.0126,2.48,-35.85,23.85,49.65,-79.61,-147.56,48.84386,2.353353,91.6,NaN,,13.99,,0 / 19,,1980,2022-01-12 10:30:32:731
1.1387,9.6305,-1.3513,1.0629,9.6536,-1.3597,-0.3209,0.0108,-0.0046,0.0045,0.9953,-0.0126,2.48,-35.85,23.85,49.65,-79.61,-147.56,48.84386,2.353353,91.6,NaN,,13.99,,0 / 19,,1986,2022-01-12 10:30:32:737
0.9685,9.6975,-1.1743,1.0629,9.6536,-1.3597,-0.3209,0.0108,-0.0046,0.0045,0.9953,-0.0126,1.35,-35.93,23.85,53.14,-79.86,-141.99,48.84386,2.353353,91.6,NaN,,13.99,,0 / 19,,1990,2022-01-12 10:30:32:741
0.9685,9.6975,-1.1743,1.0629,9.6536,-1.3597,-0.3209,0.0108,-0.0046,0.0045,0.9953,-0.0126,1.35,-35.93,23.85,53.14,-79.86,-141.99,48.84386,2.353353,91.6,NaN,,13.99,,0 / 19,,1996,2022-01-12 10:30:32:747
0.9685,9.6975,-1.1743,1.0629,9.6536,-1.3597,-0.3209,0.0108,-0.0046,0.0045,0.9953,-0.0126,1.35,-35.93,23.85,53.14,-79.86,-141.99,48.84386,2.353353,91.6,NaN,,13.99,,0 / 19,,2000,2022-01-12 10:30:32:751
0.9685,9.6975,-1.1743,1.0629,9.6536,-1.3597,-0.3209,0.0108,-0.0046,0.0045,0.9953,-0.0126,1.35,-35.93,23.85,53.14,-79.86,-141.99,48.84386,2.353353,91.6,NaN,,13.99,,0 / 19,,2005,2022-01-12 10:30:32:756
0.9685,9.6975,-1.1743,1.0629,9.6536,-1.3597,-0.3209,0.0108,-0.0046,0.0045,0.9953,-0.0126,1.35,-35.93,23.85,53.14,-79.86,-141.99,48.84386,2.353353,91.6,NaN,,13.99,,0 / 19,,2010,2022-01-12 10:30:32:761
0.9685,9.6975,-1.1743,1.0629,9.6536,-1.3597,-0.3209,0.0108,-0.0046,0.0045,0.9953,-0.0126,1.35,-35.93,23.85,53.14,-79.86,-141.99,48.84386,2.353353,91.6,NaN,,13.99,,0 / 19,,2015,2022-01-12 10:30:32:766
0.9685,9.6975,-1.1743,1.0629,9.6536,-1.3597,-0.3209,0.0108,-0.0046,0.0045,0.9953,-0.0126,1.35,-35.93,23.85,53.14,-79.86,-141.99,48.84386,2.353353,91.6,NaN,,13.99,,0 / 19,,2020,2022-01-12 10:30:32:771
0.9685,9.6975,-1.1743,1.0629,9.6536,-1.3597,-0.3209,0.0108,-0.0046,0.0045,0.9953,-0.0126,1.35,-35.93,23.85,53.14,-79.86,-141.99,48.84386,2.353353,91.6,NaN,,13.99,,0 / 19,,2025,2022-01-12 10:30:32:776
0.9685,9.6975,-1.1743,1.0629,9.6536,-1.3597,-0.3209,0.0108,-0.0046,0.0045,0.9953,-0.0126,1.35,-35.93,23.85,53.14,-79.86,-141.99,48.84386,2.353353,91.6,NaN,,13.99,,0 / 19,,2030,2022-01-12 10:30:32:781
0.9685,9.6975,-1.1743,1.0629,9.6536,-1.3597,-0.3209,0.0108,-0.0046,0.0045,0.9953,-0.0126,1.35,-35.93,23.85,53.14,-79.86,-141.99,48.84386,2.353353,91.6,NaN,,13.99,,0 / 19,,2036,2022-01-12 10:30:32:787
0.9685,9.6975,-1.1743,1.0629,9.6536,-1.3597,-0.3209,0.0108,-0.0046,0.0045,0.9953,-0.0126,1.35,-35.93,23.85,53.14,-79.86,-141.99,48.84386,2.353353,91.6,NaN,,13.99,,0 / 19,,2040,2022-01-12 10:30:32:791
0.9685,9.6975,-1.1743,1.1332,9.6574,-1.2728,-0.0318,-0.0063,0.0184,0.0045,0.9953,-0.0126,1.35,-35.93,23.85,53.14,-79.86,-141.99,48.84386,2.353353,91.6,NaN,,13.99,,0 / 19,,2045,2022-01-12 10:30:32:796
0.9685,9.6975,-1.1743,1.1332,9.6574,-1.2728,-0.0318,-0.0063,0.0184,0.0045,0.9953,-0.0126,1.35,-35.93,23.85,53.14,-79.86,-141.99,48.84386,2.353353,91.6,NaN,,13.99,,0 / 19,,2051,2022-01-12 10:30:32:802
0.9685,9.6975,-1.1743,1.1332,9.6574,-1.2728,-0.0318,-0.0063,0.0184,0.0045,0.9953,-0.0126,1.35,-35.93,23.85,53.14,-79.86,-141.99,48.84386,2.353353,91.6,NaN,,13.99,,0 / 19,,2056,2022-01-12 10:30:32:807
1.4345,9.6867,-0.7011,1.1332,9.6574,-1.2728,-0.0318,-0.0063,0.0184,-0.0224,1.0659,-0.0274,1.35,-35.93,23.85,53.14,-79.86,-141.99,48.84386,2.353353,91.6,NaN,,13.99,,0 / 19,,2060,2022-01-12 10:30:32:811
1.4345,9.6867,-0.7011,1.1332,9.6574,-1.2728,-0.0318,-0.0063,0.0184,-0.0224,1.0659,-0.0274,1.35,-35.93,23.85,53.14,-79.86,-141.99,48.84386,2.353353,91.6,NaN,,13.99,,0 / 19,,2066,2022-01-12 10:30:32:817
1.4345,9.6867,-0.7011,1.1332,9.6574,-1.2728,-0.0318,-0.0063,0.0184,-0.0224,1.0659,-0.0274,1.35,-35.93,23.85,53.14,-79.86,-141.99,48.84386,2.353353,91.6,NaN,,13.99,,0 / 19,,2071,2022-01-12 10:30:32:822
1.4345,9.6867,-0.7011,1.1332,9.6574,-1.2728,-0.0318,-0.0063,0.0184,-0.0224,1.0659,-0.0274,1.35,-35.93,23.85,53.14,-79.86,-141.99,48.84386,2.353353,91.6,NaN,,13.99,,0 / 19,,2075,2022-01-12 10:30:32:826
1.4345,9.6867,-0.7011,1.1332,9.6574,-1.2728,-0.0318,-0.0063,0.0184,-0.0224,1.0659,-0.0274,1.35,-35.93,23.85,53.14,-79.86,-141.99,48.84386,2.353353,91.6,NaN,,13.99,,0 / 19,,2081,2022-01-12 10:30:32:832
1.4345,9.6867,-0.7011,1.1332,9.6574,-1.2728,-0.0318,-0.0063,0.0184,-0.0224,1.0659,-0.0274,1.35,-35.93,23.85,53.14,-79.86,-141.99,48.84386,2.353353,91.6,NaN,,13.99,,0 / 19,,2086,2022-01-12 10:30:32:837
1.4345,9.6867,-0.7011,1.1332,9.6574,-1.2728,-0.0318,-0.0063,0.0184,-0.0224,1.0659,-0.0274,-0.97,-36.15,23.55,51.61,-79.99,-138.32,48.84386,2.353353,91.6,NaN,,13.99,,0 / 19,,2091,2022-01-12 10:30:32:842
1.4345,9.6867,-0.7011,1.1332,9.6574,-1.2728,-0.0318,-0.0063,0.0184,-0.0224,1.0659,-0.0274,-0.97,-36.15,23.55,51.61,-79.99,-138.32,48.84386,2.353353,91.6,NaN,,13.99,,0 / 19,,2096,2022-01-12 10:30:32:847
1.4345,9.6867,-0.7011,1.1332,9.6574,-1.2728,-0.0318,-0.0063,0.0184,-0.0224,1.0659,-0.0274,-0.97,-36.15,23.55,51.61,-79.99,-138.32,48.84386,2.353353,91.6,NaN,,13.99,,0 / 19,,2101,2022-01-12 10:30:32:852
1.4345,9.6867,-0.7011,1.1583,9.6644,-1.1948,-0.1328,-0.0102,0.0201,-0.0224,1.0659,-0.0274,-0.97,-36.15,23.55,51.61,-79.99,-138.32,48.84386,2.353353,91.6,NaN,,13.99,,0 / 19,,2106,2022-01-12 10:30:32:857
1.4345,9.6867,-0.7011,1.1583,9.6644,-1.1948,-0.1328,-0.0102,0.0201,-0.0224,1.0659,-0.0274,-0.97,-36.15,23.55,51.61,-79.99,-138.32,48.84386,2.353353,91.6,NaN,,13.99,,0 / 19,,2111,2022-01-12 10:30:32:862
0.99,9.7358,-1.1503,1.1583,9.6644,-1.1948,-0.1328,-0.0102,0.0201,-0.0224,1.0659,-0.0274,-0.97,-36.15,23.55,51.61,-79.99,-138.32,48.84386,2.353353,91.6,NaN,,13.99,,0 / 19,,2116,2022-01-12 10:30:32:867
0.99,9.7358,-1.1503,1.1583,9.6644,-1.1948,-0.1328,-0.0102,0.0201,-0.0224,1.0659,-0.0274,-0.97,-36.15,23.55,51.61,-79.99,-138.32,48.84386,2.353353,91.6,NaN,,13.99,,0 / 19,,2121,2022-01-12 10:30:32:872
0.99,9.7358,-1.1503,1.1583,9.6644,-1.1948,-0.1328,-0.0102,0.0201,-0.0224,1.0659,-0.0274,-0.97,-36.15,23.55,51.61,-79.99,-138.32,48.84386,2.353353,91.6,NaN,,13.99,,0 / 19,,2125,2022-01-12 10:30:32:876
0.99,9.7358,-1.1503,1.1583,9.6644,-1.1948,-0.1328,-0.0102,0.0201,-0.0224,1.0659,-0.0274,-0.97,-36.15,23.55,51.61,-79.99,-138.32,48.84386,2.353353,91.6,NaN,,13.99,,0 / 19,,2131,2022-01-12 10:30:32:882
0.99,9.7358,-1.1503,1.1583,9.6644,-1.1948,-0.1328,-0.0102,0.0201,-0.0224,1.0659,-0.0274,-0.97,-36.15,23.55,51.61,-79.99,-138.32,48.84386,2.353353,91.6,NaN,,13.99,,0 / 19,,2136,2022-01-12 10:30:32:887
0.99,9.7358,-1.1503,1.1583,9.6644,-1.1948,-0.1328,-0.0102,0.0201,-0.0224,1.0659,-0.0274,-0.97,-36.15,23.55,51.61,-79.99,-138.32,48.84386,2.353353,91.6,NaN,,13.99,,0 / 19,,2141,2022-01-12 10:30:32:892
0.99,9.7358,-1.1503,1.1583,9.6644,-1.1948,-0.1328,-0.0102,0.0201,-0.0224,1.0659,-0.0274,-0.97,-36.15,23.55,51.61,-79.99,-138.32,48.84386,2.353353,91.6,NaN,,13.99,,0 / 19,,2145,2022-01-12 10:30:32:896
0.99,9.7358,-1.1503,1.1583,9.6644,-1.1948,-0.1328,-0.0102,0.0201,-0.0224,1.0659,-0.0274,-0.97,-36.15,23.55,51.61,-79.99,-138.32,48.84386,2.353353,91.6,NaN,,13.99,,0 / 19,,2151,2022-01-12 10:30:32:902
0.99,9.7358,-1.1503,1.1583,9.6644,-1.1948,-0.1328,-0.0102,0.0201,-0.0224,1.0659,-0.0274,-0.97,-36.15,23.55,51.61,-79.99,-138.32,48.84386,2.353353,91.6,NaN,,13.99,,0 / 19,,2156,2022-01-12 10:30:32:907
0.99,9.7358,-1.1503,1.1583,9.6644,-1.1948,-0.1328,-0.0102,0.0201,-0.0224,1.0659,-0.0274,-0.97,-36.15,23.55,51.61,-79.99,-138.32,48.84386,2.353353,91.6,NaN,,13.99,,0 / 19,,2161,2022-01-12 10:30:32:912
0.99,9.7358,-1.1503,1.1583,9.6644,-1.1948,-0.1328,-0.0102,0.0201,-0.0224,1.0659,-0.0274,-0.97,-36.15,23.55,51.61,-79.99,-138.32,48.84386,2.353353,91.6,NaN,,13.99,,0 / 19,,2166,2022-01-12 10:30:32:917
0.99,9.7358,-1.1503,1.1583,9.6644,-1.1948,-0.1328,-0.0102,0.0201,-0.0224,1.0659,-0.0274,-0.97,-36.15,23.55,51.61,-79.99,-138.32,48.84386,2.353353,91.6,NaN,,13.99,,0 / 19,,2171,2022-01-12 10:30:32:922
0.99,9.7358,-1.1503,1.1583,9.6644,-1.1948,-0.1328,-0.0102,0.0201,-0.0224,1.0659,-0.0274,-0.97,-36.15,23.55,51.61,-79.99,-138.32,48.84386,2.353353,91.6,NaN,,13.99,,0 / 19,,2176,2022-01-12 10:30:32:927
0.99,9.7358,-1.1503,1.1583,9.6644,-1.1948,-0.1328,-0.0102,0.0201,-0.0224,1.0659,-0.0274,-0.97,-36.15,23.55,51.61,-79.99,-138.32,48.84386,2.353353,91.6,NaN,,13.99,,0 / 19,,2180,2022-01-12 10:30:32:931
0.99,9.7358,-1.1503,1.1583,9.6644,-1.1948,-0.1328,-0.0102,0.0201,-0.0224,1.0659,-0.0274,-0.97,-36.15,23.55,51.61,-79.99,-138.32,48.84386,2.353353,91.6,NaN,,13.99,,0 / 19,,2186,2022-01-12 10:30:32:937
1.0382,9.7777,-0.8785,1.1583,9.6644,-1.1948,-0.1328,-0.0102,0.0201,0.1124,1.0888,-0.1726,-2.03,-36.07,23.4,51.63,-80.23,-135.89,48.84386,2.353353,91.6,NaN,,13.99,,0 / 19,,2190,2022-01-12 10:30:32:941
1.0382,9.7777,-0.8785,1.1583,9.6644,-1.1948,-0.1328,-0.0102,0.0201,0.1124,1.0888,-0.1726,-2.03,-36.07,23.4,51.63,-80.23,-135.89,48.84386,2.353353,91.6,NaN,,13.99,,0 / 19,,2195,2022-01-12 10:30:32:946
1.0382,9.7777,-0.8785,1.1583,9.6644,-1.1948,-0.1328,-0.0102,0.0201,0.1124,1.0888,-0.1726,-2.03,-36.07,23.4,51.63,-80.23,-135.89,48.84386,2.353353,91.6,NaN,,13.99,,0 / 19,,2200,2022-01-12 10:30:32:951
1.0382,9.7777,-0.8785,1.1583,9.6644,-1.1948,-0.1328,-0.0102,0.0201,0.1124,1.0888,-0.1726,-2.03,-36.07,23.4,51.63,-80.23,-135.89,48.84386,2.353353,91.6,NaN,,13.99,,0 / 19,,2207,2022-01-12 10:30:32:958
1.0382,9.7777,-0.8785,1.1583,9.6644,-1.1948,-0.1328,-0.0102,0.0201,0.1124,1.0888,-0.1726,-2.03,-36.07,23.4,51.63,-80.23,-135.89,48.84386,2.353353,91.6,NaN,,13.99,,0 / 19,,2210,2022-01-12 10:30:32:961
1.0382,9.7777,-0.8785,1.1583,9.6644,-1.1948,-0.1328,-0.0102,0.0201,0.1124,1.0888,-0.1726,-2.03,-36.07,23.4,51.63,-80.23,-135.89,48.84386,2.353353,91.6,NaN,,13.99,,0 / 19,,2215,2022-01-12 10:30:32:966
1.0382,9.7777,-0.8785,1.1583,9.6644,-1.1948,-0.1328,-0.0102,0.0201,0.1124,1.0888,-0.1726,-2.03,-36.07,23.4,51.63,-80.23,-135.89,48.84386,2.353353,91.6,NaN,,13.99,,0 / 19,,2220,2022-01-12 10:30:32:971
1.0382,9.7777,-0.8785,1.1246,9.6788,-1.1079,-0.0215,-0.0194,0.1234,0.1124,1.0888,-0.1726,-2.03,-36.07,23.4,51.63,-80.23,-135.89,48.84386,2.353353,91.6,NaN,,13.99,,0 / 19,,2225,2022-01-12 10:30:32:976
1.0382,9.7777,-0.8785,1.1246,9.6788,-1.1079,-0.0215,-0.0194,0.1234,0.1124,1.0888,-0.1726,-2.03,-36.07,23.4,51.63,-80.23,-135.89,48.84386,2.353353,91.6,NaN,,13.99,,0 / 19,,2230,2022-01-12 10:30:32:981
1.0382,9.7777,-0.8785,1.1246,9.6788,-1.1079,-0.0215,-0.0194,0.1234,0.1124,1.0888,-0.1726,-2.03,-36.07,23.4,51.63,-80.23,-135.89,48.84386,2.353353,91.6,NaN,,13.99,,0 / 19,,2235,2022-01-12 10:30:32:986
1.0382,9.7777,-0.8785,1.1246,9.6788,-1.1079,-0.0215,-0.0194,0.1234,0.1124,1.0888,-0.1726,-2.03,-36.07,23.4,51.63,-80.23,-135.89,48.84386,2.353353,91.6,NaN,,13.99,,0 / 19,,2240,2022-01-12 10:30:32:991
1.0382,9.7777,-0.8785,1.1246,9.6788,-1.1079,-0.0215,-0.0194,0.1234,0.1124,1.0888,-0.1726,-2.03,-36.07,23.4,51.63,-80.23,-135.89,48.84386,2.353353,91.6,NaN,,13.99,,0 / 19,,2245,2022-01-12 10:30:32:996
1.0382,9.7777,-0.8785,1.1246,9.6788,-1.1079,-0.0215,-0.0194,0.1234,0.1124,1.0888,-0.1726,-2.03,-36.07,23.4,51.63,-80.23,-135.89,48.84386,2.353353,91.6,NaN,,13.99,,0 / 19,,2250,2022-01-12 10:30:33:001
1.0382,9.7777,-0.8785,1.1246,9.6788,-1.1079,-0.0215,-0.0194,0.1234,0.1124,1.0888,-0.1726,-2.03,-36.07,23.4,51.63,-80.23,-135.89,48.84386,2.353353,91.6,NaN,,13.99,,0 / 19,,2256,2022-01-12 10:30:33:007
1.0382,9.7777,-0.8785,1.1246,9.6788,-1.1079,-0.0215,-0.0194,0.1234,0.1124,1.0888,-0.1726,-2.03,-36.07,23.4,51.63,-80.23,-135.89,48.84386,2.353353,91.6,NaN,,13.99,,0 / 19,,2260,2022-01-12 10:30:33:011
0.577,9.7274,-1.6941,1.1246,9.6788,-1.1079,-0.0215,-0.0194,0.1234,0.0599,1.2594,-0.0362,-2.03,-36.07,23.4,51.63,-80.23,-135.89,48.84386,2.353353,91.6,NaN,,13.99,,0 / 19,,2266,2022-01-12 10:30:33:017
0.577,9.7274,-1.6941,1.1246,9.6788,-1.1079,-0.0215,-0.0194,0.1234,0.0599,1.2594,-0.0362,-2.03,-36.07,23.4,51.63,-80.23,-135.89,48.84386,2.353353,91.6,NaN,,13.99,,0 / 19,,2270,2022-01-12 10:30:33:021
0.577,9.7274,-1.6941,1.1246,9.6788,-1.1079,-0.0215,-0.0194,0.1234,0.0599,1.2594,-0.0362,-2.03,-36.07,23.4,51.63,-80.23,-135.89,48.84386,2.353353,91.6,NaN,,13.99,,0 / 19,,2275,2022-01-12 10:30:33:026
0.577,9.7274,-1.6941,1.1246,9.6788,-1.1079,-0.0215,-0.0194,0.1234,0.0599,1.2594,-0.0362,-2.03,-36.07,23.4,51.63,-80.23,-135.89,48.84386,2.353353,91.6,NaN,,13.99,,0 / 19,,2280,2022-01-12 10:30:33:031
0.577,9.7274,-1.6941,1.1406,9.6826,-1.0571,-0.0215,-0.0194,0.1234,0.0599,1.2594,-0.0362,-2.03,-36.07,23.4,51.63,-80.23,-135.89,48.84386,2.353353,91.6,NaN,,13.99,,0 / 19,,2285,2022-01-12 10:30:33:036
0.577,9.7274,-1.6941,1.1406,9.6826,-1.0571,-0.0215,-0.0194,0.1234,0.0599,1.2594,-0.0362,-2.03,-36.07,23.4,51.63,-80.23,-135.89,48.84386,2.353353,91.6,NaN,,13.99,,0 / 19,,2291,2022-01-12 10:30:33:042
0.577,9.7274,-1.6941,1.1406,9.6826,-1.0571,-0.0215,-0.0194,0.1234,0.0599,1.2594,-0.0362,-4.27,-36.23,22.73,48.26,-80.88,-132.83,48.84386,2.353353,91.6,NaN,,13.99,,0 / 19,,2295,2022-01-12 10:30:33:046
0.577,9.7274,-1.6941,1.1406,9.6826,-1.0571,-0.0215,-0.0194,0.1234,0.0599,1.2594,-0.0362,-4.27,-36.23,22.73,48.26,-80.88,-132.83,48.84386,2.353353,91.6,NaN,,13.99,,0 / 19,,2300,2022-01-12 10:30:33:051
0.577,9.7274,-1.6941,1.1406,9.6826,-1.0571,-0.0215,-0.0194,0.1234,0.0599,1.2594,-0.0362,-4.27,-36.23,22.73,48.26,-80.88,-132.83,48.84386,2.353353,91.6,NaN,,13.99,,0 / 19,,2307,2022-01-12 10:30:33:058
0.577,9.7274,-1.6941,1.1406,9.6826,-1.0571,-0.0215,-0.0194,0.1234,0.0599,1.2594,-0.0362,-4.27,-36.23,22.73,48.26,-80.88,-132.83,48.84386,2.353353,91.6,NaN,,13.99,,0 / 19,,2311,2022-01-12 10:30:33:062
0.577,9.7274,-1.6941,1.1406,9.6826,-1.0571,-0.0215,-0.0194,0.1234,0.0599,1.2594,-0.0362,-4.27,-36.23,22.73,48.26,-80.88,-132.83,48.84386,2.353353,91.6,NaN,,13.99,,0 / 19,,2315,2022-01-12 10:30:33:066
0.577,9.7274,-1.6941,1.1406,9.6826,-1.0571,-0.0215,-0.0194,0.1234,0.0599,1.2594,-0.0362,-4.27,-36.23,22.73,48.26,-80.88,-132.83,48.84386,2.353353,91.6,NaN,,13.99,,0 / 19,,2320,2022-01-12 10:30:33:071
0.577,9.7274,-1.6941,1.1406,9.6826,-1.0571,-0.0215,-0.0194,0.1234,0.0599,1.2594,-0.0362,-4.27,-36.23,22.73,48.26,-80.88,-132.83,48.84386,2.353353,91.6,NaN,,13.99,,0 / 19,,2325,2022-01-12 10:30:33:076
1.2667,9.6162,-0.4819,1.1406,9.6826,-1.0571,-0.0215,-0.0194,0.1234,0.0599,1.2594,-0.0362,-4.27,-36.23,22.73,48.26,-80.88,-132.83,48.84386,2.353353,91.6,NaN,,13.99,,0 / 19,,2330,2022-01-12 10:30:33:081
1.2667,9.6162,-0.4819,1.1406,9.6826,-1.0571,-0.2475,0.0167,0.0351,0.0599,1.2594,-0.0362,-4.27,-36.23,22.73,48.26,-80.88,-132.83,48.84386,2.353353,91.6,NaN,,13.99,,0 / 19,,2335,2022-01-12 10:30:33:086
1.2667,9.6162,-0.4819,1.1406,9.6826,-1.0571,-0.2475,0.0167,0.0351,0.0599,1.2594,-0.0362,-4.27,-36.23,22.73,48.26,-80.88,-132.83,48.84386,2.353353,91.6,NaN,,13.99,,0 / 19,,2340,2022-01-12 10:30:33:091
1.2667,9.6162,-0.4819,1.1406,9.6826,-1.0571,-0.2475,0.0167,0.0351,0.0599,1.2594,-0.0362,-4.27,-36.23,22.73,48.26,-80.88,-132.83,48.84386,2.353353,91.6,NaN,,13.99,,0 / 19,,2346,2022-01-12 10:30:33:097
1.2667,9.6162,-0.4819,1.1406,9.6826,-1.0571,-0.2475,0.0167,0.0351,0.0599,1.2594,-0.0362,-4.27,-36.23,22.73,48.26,-80.88,-132.83,48.84386,2.353353,91.6,NaN,,13.99,,0 / 19,,2351,2022-01-12 10:30:33:102
1.2667,9.6162,-0.4819,1.1406,9.6826,-1.0571,-0.2475,0.0167,0.0351,0.0599,1.2594,-0.0362,-4.27,-36.23,22.73,48.26,-80.88,-132.83,48.84386,2.353353,91.6,NaN,,13.99,,0 / 19,,2356,2022-01-12 10:30:33:107
1.2667,9.6162,-0.4819,1.1406,9.6826,-1.0571,-0.2475,0.0167,0.0351,0.0599,1.2594,-0.0362,-4.27,-36.23,22.73,48.26,-80.88,-132.83,48.84386,2.353353,91.6,NaN,,13.99,,0 / 19,,2360,2022-01-12 10:30:33:111
1.2667,9.6162,-0.4819,1.1406,9.6826,-1.0571,-0.2475,0.0167,0.0351,0.0599,1.2594,-0.0362,-4.27,-36.23,22.73,48.26,-80.88,-132.83,48.84386,2.353353,91.6,NaN,,13.99,,0 / 19,,2365,2022-01-12 10:30:33:116
1.2667,9.6162,-0.4819,1.1406,9.6826,-1.0571,-0.2475,0.0167,0.0351,0.0599,1.2594,-0.0362,-4.27,-36.23,22.73,48.26,-80.88,-132.83,48.84386,2.353353,91.6,NaN,,13.99,,0 / 19,,2370,2022-01-12 10:30:33:121
1.2667,9.6162,-0.4819,1.1406,9.6826,-1.0571,-0.2475,0.0167,0.0351,0.0599,1.2594,-0.0362,-4.27,-36.23,22.73,48.26,-80.88,-132.83,48.84386,2.353353,91.6,NaN,,13.99,,0 / 19,,2375,2022-01-12 10:30:33:126
1.2667,9.6162,-0.4819,1.1406,9.6826,-1.0571,-0.2475,0.0167,0.0351,0.0599,1.2594,-0.0362,-4.27,-36.23,22.73,48.26,-80.88,-132.83,48.84386,2.353353,91.6,NaN,,13.99,,0 / 19,,2380,2022-01-12 10:30:33:131
1.2667,9.6162,-0.4819,1.1406,9.6826,-1.0571,-0.2475,0.0167,0.0351,0.0599,1.2594,-0.0362,-4.27,-36.23,22.73,48.26,-80.88,-132.83,48.84386,2.353353,91.6,NaN,,13.99,,0 / 19,,2385,2022-01-12 10:30:33:136
1.2547,9.7816,-0.9156,1.1406,9.6826,-1.0571,-0.2475,0.0167,0.0351,0.0599,1.2594,-0.0362,-5.48,-36.15,22.2,45.13,-80.88,-132.83,48.84386,2.353353,91.6,NaN,,13.99,,0 / 19,,2390,2022-01-12 10:30:33:141
1.2547,9.7816,-0.9156,1.1406,9.6826,-1.0571,-0.2475,0.0167,0.0351,0.0599,1.2594,-0.0362,-5.48,-36.15,22.2,45.13,-80.88,-132.83,48.84386,2.353353,91.6,NaN,,13.99,,0 / 19,,2395,2022-01-12 10:30:33:146
1.2547,9.7816,-0.9156,1.1406,9.6826,-1.0571,-0.2475,0.0167,0.0351,0.0599,1.2594,-0.0362,-5.48,-36.15,22.2,45.13,-80.88,-132.83,48.84386,2.353353,91.6,NaN,,13.99,,0 / 19,,2400,2022-01-12 10:30:33:151
1.2547,9.7816,-0.9156,1.2167,9.6831,-0.9632,-0.2409,-0.0316,0.1028,0.0398,1.0238,0.0329,-5.48,-36.15,22.2,45.13,-80.88,-132.83,48.84386,2.353353,91.6,NaN,,13.99,,0 / 19,,2406,2022-01-12 10:30:33:157
1.2547,9.7816,-0.9156,1.2167,9.6831,-0.9632,-0.2409,-0.0316,0.1028,0.0398,1.0238,0.0329,-5.48,-36.15,22.2,45.13,-80.88,-132.83,48.84386,2.353353,91.6,NaN,,13.99,,0 / 19,,2410,2022-01-12 10:30:33:161
1.2547,9.7816,-0.9156,1.2167,9.6831,-0.9632,-0.2409,-0.0316,0.1028,0.0398,1.0238,0.0329,-5.48,-36.15,22.2,45.13,-80.88,-132.83,48.84386,2.353353,91.6,NaN,,13.99,,0 / 19,,2415,2022-01-12 10:30:33:166
1.2547,9.7816,-0.9156,1.2167,9.6831,-0.9632,-0.2409,-0.0316,0.1028,0.0398,1.0238,0.0329,-5.48,-36.15,22.2,45.13,-80.88,-132.83,48.84386,2.353353,91.6,NaN,,13.99,,0 / 19,,2420,2022-01-12 10:30:33:171
1.2547,9.7816,-0.9156,1.2167,9.6831,-0.9632,-0.2409,-0.0316,0.1028,0.0398,1.0238,0.0329,-5.48,-36.15,22.2,45.13,-80.88,-132.83,48.84386,2.353353,91.6,NaN,,13.99,,0 / 19,,2426,2022-01-12 10:30:33:177
1.2547,9.7816,-0.9156,1.2167,9.6831,-0.9632,-0.2409,-0.0316,0.1028,0.0398,1.0238,0.0329,-5.48,-36.15,22.2,45.13,-80.88,-132.83,48.84386,2.353353,91.6,NaN,,13.99,,0 / 19,,2432,2022-01-12 10:30:33:183
1.2547,9.7816,-0.9156,1.2167,9.6831,-0.9632,-0.2409,-0.0316,0.1028,0.0398,1.0238,0.0329,-5.48,-36.15,22.2,45.13,-80.88,-132.83,48.84386,2.353353,91.6,NaN,,13.99,,0 / 19,,2435,2022-01-12 10:30:33:186
1.2547,9.7816,-0.9156,1.2167,9.6831,-0.9632,-0.2409,-0.0316,0.1028,0.0398,1.0238,0.0329,-5.48,-36.15,22.2,45.13,-80.88,-132.83,48.84386,2.353353,91.6,NaN,,13.99,,0 / 19,,2440,2022-01-12 10:30:33:191
1.2547,9.7816,-0.9156,1.2167,9.6831,-0.9632,-0.2409,-0.0316,0.1028,0.0398,1.0238,0.0329,-5.48,-36.15,22.2,45.13,-80.88,-132.83,48.84386,2.353353,91.6,NaN,,13.99,,0 / 19,,2445,2022-01-12 10:30:33:196
1.2547,9.7816,-0.9156,1.2167,9.6831,-0.9632,-0.2409,-0.0316,0.1028,0.0398,1.0238,0.0329,-5.48,-36.15,22.2,45.13,-80.88,-132.83,48.84386,2.353353,91.6,NaN,,13.99,,0 / 19,,2451,2022-01-12 10:30:33:202
1.2547,9.7816,-0.9156,1.2167,9.6831,-0.9632,-0.2409,-0.0316,0.1028,0.0398,1.0238,0.0329,-5.48,-36.15,22.2,45.13,-80.88,-132.83,48.84386,2.353353,91.6,NaN,,13.99,,0 / 19,,2455,2022-01-12 10:30:33:206
0.9266,9.7729,-0.5656,1.2167,9.6831,-0.9632,-0.2409,-0.0316,0.1028,0.0398,1.0238,0.0329,-5.48,-36.15,22.2,45.13,-80.88,-132.83,48.84386,2.353353,91.6,NaN,,13.99,,0 / 19,,2460,2022-01-12 10:30:33:211
0.9266,9.7729,-0.5656,1.2167,9.6831,-0.9632,-0.2409,-0.0316,0.1028,0.0398,1.0238,0.0329,-5.48,-36.15,22.2,45.13,-80.88,-132.83,48.84386,2.353353,91.6,NaN,,13.99,,0 / 19,,2465,2022-01-12 10:30:33:216
0.9266,9.7729,-0.5656,1.2167,9.6831,-0.9632,-0.2409,-0.0316,0.1028,0.0398,1.0238,0.0329,-5.48,-36.15,22.2,45.13,-80.88,-132.83,48.84386,2.353353,91.6,NaN,,13.99,,0 / 19,,2470,2022-01-12 10:30:33:221
0.9266,9.7729,-0.5656,1.2167,9.6831,-0.9632,-0.2409,-0.0316,0.1028,0.0398,1.0238,0.0329,-5.48,-36.15,22.2,45.13,-80.88,-132.83,48.84386,2.353353,91.6,NaN,,13.99,,0 / 19,,2475,2022-01-12 10:30:33:226
0.9266,9.7729,-0.5656,1.2167,9.6831,-0.9632,-0.2409,-0.0316,0.1028,0.0398,1.0238,0.0329,-5.48,-36.15,22.2,45.13,-80.88,-132.83,48.84386,2.353353,91.6,NaN,,13.99,,0 / 19,,2482,2022-01-12 10:30:33:233
0.9266,9.7729,-0.5656,1.2167,9.6831,-0.9632,-0.2409,-0.0316,0.1028,0.0398,1.0238,0.0329,-5.48,-36.15,22.2,45.13,-80.88,-132.83,48.84386,2.353353,91.6,NaN,,13.99,,0 / 19,,2485,2022-01-12 10:30:33:236
0.9266,9.7729,-0.5656,1.2167,9.6831,-0.9632,-0.2409,-0.0316,0.1028,0.0398,1.0238,0.0329,-5.48,-36.15,22.2,45.13,-80.88,-132.83,48.84386,2.353353,91.6,NaN,,13.99,,0 / 19,,2490,2022-01-12 10:30:33:241
0.9266,9.7729,-0.5656,1.2167,9.6831,-0.9632,-0.2409,-0.0316,0.1028,0.0398,1.0238,0.0329,-7.8,-36.37,21.23,40.7,-80.9,-128.37,48.84386,2.353353,91.6,NaN,,13.99,,0 / 19,,2495,2022-01-12 10:30:33:246
0.9266,9.7729,-0.5656,1.2167,9.6831,-0.9632,-0.2409,-0.0316,0.1028,0.0398,1.0238,0.0329,-7.8,-36.37,21.23,40.7,-80.9,-128.37,48.84386,2.353353,91.6,NaN,,13.99,,0 / 19,,2500,2022-01-12 10:30:33:251
0.9266,9.7729,-0.5656,1.2167,9.6831,-0.9632,-0.2409,-0.0316,0.1028,0.0398,1.0238,0.0329,-7.8,-36.37,21.23,40.7,-80.9,-128.37,48.84386,2.353353,91.6,NaN,,13.99,,0 / 19,,2505,2022-01-12 10:30:33:256
0.9266,9.7729,-0.5656,1.2167,9.6831,-0.9632,-0.2409,-0.0316,0.1028,0.0398,1.0238,0.0329,-7.8,-36.37,21.23,40.7,-80.9,-128.37,48.84386,2.353353,91.6,NaN,,13.99,,0 / 19,,2510,2022-01-12 10:30:33:261
0.9266,9.7729,-0.5656,1.2167,9.6831,-0.9632,-0.2409,-0.0316,0.1028,0.0398,1.0238,0.0329,-7.8,-36.37,21.23,40.7,-80.9,-128.37,48.84386,2.353353,91.6,NaN,,13.99,,0 / 19,,2515,2022-01-12 10:30:33:266
0.9266,9.7729,-0.5656,1.2167,9.6831,-0.9632,-0.2409,-0.0316,0.1028,0.0398,1.0238,0.0329,-7.8,-36.37,21.23,40.7,-80.9,-128.37,48.84386,2.353353,91.6,NaN,,13.99,,0 / 19,,2521,2022-01-12 10:30:33:272
0.9266,9.7729,-0.5656,1.2167,9.6831,-0.9632,-0.2409,-0.0316,0.1028,0.0398,1.0238,0.0329,-7.8,-36.37,21.23,40.7,-80.9,-128.37,48.84386,2.353353,91.6,NaN,,13.99,,0 / 19,,2525,2022-01-12 10:30:33:276
1.6322,9.6855,-0.6257,1.3617,9.6787,-0.7988,-0.3945,0.0717,-0.181,0.0398,1.0238,0.0329,-7.8,-36.37,21.23,40.7,-80.9,-128.37,48.84386,2.353353,91.6,NaN,,13.99,,0 / 19,,2530,2022-01-12 10:30:33:281
1.6322,9.6855,-0.6257,1.3617,9.6787,-0.7988,-0.3945,0.0717,-0.181,0.0145,1.2462,0.1005,-7.8,-36.37,21.23,40.7,-80.9,-128.37,48.84386,2.353353,91.6,NaN,,13.99,,0 / 19,,2535,2022-01-12 10:30:33:286
1.6322,9.6855,-0.6257,1.3617,9.6787,-0.7988,-0.3945,0.0717,-0.181,0.0145,1.2462,0.1005,-7.8,-36.37,21.23,40.7,-80.9,-128.37,48.84386,2.353353,91.6,NaN,,13.99,,0 / 19,,2540,2022-01-12 10:30:33:291
1.6322,9.6855,-0.6257,1.3617,9.6787,-0.7988,-0.3945,0.0717,-0.181,0.0145,1.2462,0.1005,-7.8,-36.37,21.23,40.7,-80.9,-128.37,48.84386,2.353353,91.6,NaN,,13.99,,0 / 19,,2545,2022-01-12 10:30:33:296
1.6322,9.6855,-0.6257,1.3617,9.6787,-0.7988,-0.3945,0.0717,-0.181,0.0145,1.2462,0.1005,-7.8,-36.37,21.23,40.7,-80.9,-128.37,48.84386,2.353353,91.6,NaN,,13.99,,0 / 19,,2550,2022-01-12 10:30:33:301
1.6322,9.6855,-0.6257,1.3617,9.6787,-0.7988,-0.3945,0.0717,-0.181,0.0145,1.2462,0.1005,-7.8,-36.37,21.23,40.7,-80.9,-128.37,48.84386,2.353353,91.6,NaN,,13.99,,0 / 19,,2555,2022-01-12 10:30:33:306
1.6322,9.6855,-0.6257,1.3617,9.6787,-0.7988,-0.3945,0.0717,-0.181,0.0145,1.2462,0.1005,-7.8,-36.37,21.23,40.7,-80.9,-128.37,48.84386,2.353353,91.6,NaN,,13.99,,0 / 19,,2560,2022-01-12 10:30:33:311
1.6322,9.6855,-0.6257,1.3617,9.6787,-0.7988,-0.3945,0.0717,-0.181,0.0145,1.2462,0.1005,-7.8,-36.37,21.23,40.7,-80.9,-128.37,48.84386,2.353353,91.6,NaN,,13.99,,0 / 19,,2565,2022-01-12 10:30:33:316
1.6322,9.6855,-0.6257,1.3617,9.6787,-0.7988,-0.3945,0.0717,-0.181,0.0145,1.2462,0.1005,-7.8,-36.37,21.23,40.7,-80.9,-128.37,48.84386,2.353353,91.6,NaN,,13.99,,0 / 19,,2571,2022-01-12 10:30:33:322
1.6322,9.6855,-0.6257,1.3617,9.6787,-0.7988,-0.3945,0.0717,-0.181,0.0145,1.2462,0.1005,-7.8,-36.37,21.23,40.7,-80.9,-128.37,48.84386,2.353353,91.6,NaN,,13.99,,0 / 19,,2575,2022-01-12 10:30:33:326
1.6322,9.6855,-0.6257,1.3617,9.6787,-0.7988,-0.3945,0.0717,-0.181,0.0145,1.2462,0.1005,-7.8,-36.37,21.23,40.7,-80.9,-128.37,48.84386,2.353353,91.6,NaN,,13.99,,0 / 19,,2580,2022-01-12 10:30:33:331
1.6322,9.6855,-0.6257,1.3617,9.6787,-0.7988,-0.3945,0.0717,-0.181,0.0145,1.2462,0.1005,-7.8,-36.37,21.23,40.7,-80.9,-128.37,48.84386,2.353353,91.6,NaN,,13.99,,0 / 19,,2585,2022-01-12 10:30:33:336
1.6322,9.6855,-0.6257,1.3617,9.6787,-0.7988,-0.3945,0.0717,-0.181,0.0145,1.2462,0.1005,-7.8,-36.37,21.23,40.7,-80.9,-128.37,48.84386,2.353353,91.6,NaN,,13.99,,0 / 19,,2590,2022-01-12 10:30:33:341
1.3974,9.6951,-0.6604,1.4356,9.6757,-0.6999,0.027,-0.0024,0.2349,0.0145,1.2462,0.1005,-8.85,-36.45,20.33,52.51,-80.63,-115.99,48.84386,2.353353,91.6,NaN,,13.99,,0 / 19,,2596,2022-01-12 10:30:33:347
1.3974,9.6951,-0.6604,1.4356,9.6757,-0.6999,0.027,-0.0024,0.2349,0.0145,1.2462,0.1005,-8.85,-36.45,20.33,52.51,-80.63,-115.99,48.84386,2.353353,91.6,NaN,,13.99,,0 / 19,,2603,2022-01-12 10:30:33:354
1.3974,9.6951,-0.6604,1.4356,9.6757,-0.6999,0.027,-0.0024,0.2349,0.0145,1.2462,0.1005,-8.85,-36.45,20.33,52.51,-80.63,-115.99,48.84386,2.353353,91.6,NaN,,13.99,,0 / 19,,2605,2022-01-12 10:30:33:356
1.3974,9.6951,-0.6604,1.4356,9.6757,-0.6999,0.027,-0.0024,0.2349,0.0145,1.2462,0.1005,-8.85,-36.45,20.33,52.51,-80.63,-115.99,48.84386,2.353353,91.6,NaN,,13.99,,0 / 19,,2610,2022-01-12 10:30:33:361
1.3974,9.6951,-0.6604,1.4356,9.6757,-0.6999,0.027,-0.0024,0.2349,0.0145,1.2462,0.1005,-8.85,-36.45,20.33,52.51,-80.63,-115.99,48.84386,2.353353,91.6,NaN,,13.99,,0 / 19,,2615,2022-01-12 10:30:33:366
1.3974,9.6951,-0.6604,1.4356,9.6757,-0.6999,0.027,-0.0024,0.2349,0.0145,1.2462,0.1005,-8.85,-36.45,20.33,52.51,-80.63,-115.99,48.84386,2.353353,91.6,NaN,,13.99,,0 / 19,,2620,2022-01-12 10:30:33:371
1.3974,9.6951,-0.6604,1.4356,9.6757,-0.6999,0.027,-0.0024,0.2349,0.0145,1.2462,0.1005,-8.85,-36.45,20.33,52.51,-80.63,-115.99,48.84386,2.353353,91.6,NaN,,13.99,,0 / 19,,2625,2022-01-12 10:30:33:376
1.3974,9.6951,-0.6604,1.4356,9.6757,-0.6999,0.027,-0.0024,0.2349,0.0145,1.2462,0.1005,-8.85,-36.45,20.33,52.51,-80.63,-115.99,48.84386,2.353353,91.6,NaN,,13.99,,0 / 19,,2630,2022-01-12 10:30:33:381
1.3974,9.6951,-0.6604,1.4356,9.6757,-0.6999,0.027,-0.0024,0.2349,0.0145,1.2462,0.1005,-8.85,-36.45,20.33,52.51,-80.63,-115.99,48.84386,2.353353,91.6,NaN,,13.99,,0 / 19,,2635,2022-01-12 10:30:33:386
1.3974,9.6951,-0.6604,1.4356,9.6757,-0.6999,0.027,-0.0024,0.2349,0.0145,1.2462,0.1005,-8.85,-36.45,20.33,52.51,-80.63,-115.99,48.84386,2.353353,91.6,NaN,,13.99,,0 / 19,,2640,2022-01-12 10:30:33:391
1.3974,9.6951,-0.6604,1.4356,9.6757,-0.6999,0.027,-0.0024,0.2349,0.0145,1.2462,0.1005,-8.85,-36.45,20.33,52.51,-80.63,-115.99,48.84386,2.353353,91.6,NaN,,13.99,,0 / 19,,2646,2022-01-12 10:30:33:397
1.3974,9.6951,-0.6604,1.4356,9.6757,-0.6999,0.027,-0.0024,0.2349,0.0145,1.2462,0.1005,-8.85,-36.45,20.33,52.51,-80.63,-115.99,48.84386,2.353353,91.6,NaN,,13.99,,0 / 19,,2650,2022-01-12 10:30:33:401
1.686,9.6389,-0.4615,1.468,9.6778,-0.5961,-0.0913,0.0116,-0.0645,0.0145,1.2462,0.1005,-8.85,-36.45,20.33,52.51,-80.63,-115.99,48.84386,2.353353,91.6,NaN,,13.99,,0 / 19,,2655,2022-01-12 10:30:33:406
1.686,9.6389,-0.4615,1.468,9.6778,-0.5961,-0.0913,0.0116,-0.0645,0.0145,1.2462,0.1005,-8.85,-36.45,20.33,52.51,-80.63,-115.99,48.84386,2.353353,91.6,NaN,,13.99,,0 / 19,,2660,2022-01-12 10:30:33:411
1.686,9.6389,-0.4615,1.468,9.6778,-0.5961,-0.0913,0.0116,-0.0645,0.0145,1.2462,0.1005,-8.85,-36.45,20.33,52.51,-80.63,-115.99,48.84386,2.353353,91.6,NaN,,13.99,,0 / 19,,2665,2022-01-12 10:30:33:416
1.686,9.6389,-0.4615,1.468,9.6778,-0.5961,-0.0913,0.0116,-0.0645,-0.0441,1.3229,-0.096,-8.85,-36.45,20.33,52.51,-80.63,-115.99,48.84386,2.353353,91.6,NaN,,13.99,,0 / 19,,2670,2022-01-12 10:30:33:421
1.686,9.6389,-0.4615,1.468,9.6778,-0.5961,-0.0913,0.0116,-0.0645,-0.0441,1.3229,-0.096,-8.85,-36.45,20.33,52.51,-80.63,-115.99,48.84386,2.353353,91.6,NaN,,13.99,,0 / 19,,2675,2022-01-12 10:30:33:426
1.686,9.6389,-0.4615,1.468,9.6778,-0.5961,-0.0913,0.0116,-0.0645,-0.0441,1.3229,-0.096,-8.85,-36.45,20.33,52.51,-80.63,-115.99,48.84386,2.353353,91.6,NaN,,13.99,,0 / 19,,2681,2022-01-12 10:30:33:432
1.686,9.6389,-0.4615,1.468,9.6778,-0.5961,-0.0913,0.0116,-0.0645,-0.0441,1.3229,-0.096,-8.85,-36.45,20.33,52.51,-80.63,-115.99,48.84386,2.353353,91.6,NaN,,13.99,,0 / 19,,2686,2022-01-12 10:30:33:437
1.686,9.6389,-0.4615,1.468,9.6778,-0.5961,-0.0913,0.0116,-0.0645,-0.0441,1.3229,-0.096,-8.85,-36.45,20.33,52.51,-80.63,-115.99,48.84386,2.353353,91.6,NaN,,13.99,,0 / 19,,2690,2022-01-12 10:30:33:441
1.686,9.6389,-0.4615,1.468,9.6778,-0.5961,-0.0913,0.0116,-0.0645,-0.0441,1.3229,-0.096,-11.4,-36.45,18.6,50.01,-80.7,-112.1,48.84386,2.353353,91.6,NaN,,13.99,,0 / 19,,2696,2022-01-12 10:30:33:447
1.686,9.6389,-0.4615,1.468,9.6778,-0.5961,-0.0913,0.0116,-0.0645,-0.0441,1.3229,-0.096,-11.4,-36.45,18.6,50.01,-80.7,-112.1,48.84386,2.353353,91.6,NaN,,13.99,,0 / 19,,2700,2022-01-12 10:30:33:451
1.686,9.6389,-0.4615,1.468,9.6778,-0.5961,-0.0913,0.0116,-0.0645,-0.0441,1.3229,-0.096,-11.4,-36.45,18.6,50.01,-80.7,-112.1,48.84386,2.353353,91.6,NaN,,13.99,,0 / 19,,2706,2022-01-12 10:30:33:457
1.686,9.6389,-0.4615,1.468,9.6778,-0.5961,-0.0913,0.0116,-0.0645,-0.0441,1.3229,-0.096,-11.4,-36.45,18.6,50.01,-80.7,-112.1,48.84386,2.353353,91.6,NaN,,13.99,,0 / 19,,2710,2022-01-12 10:30:33:461
1.0561,9.839,-0.3514,1.4481,9.6879,-0.4673,0.1534,-0.0744,-0.1421,-0.0441,1.3229,-0.096,-11.4,-36.45,18.6,50.01,-80.7,-112.1,48.84386,2.353353,91.6,NaN,,13.99,,0 / 19,,2715,2022-01-12 10:30:33:466
1.0561,9.839,-0.3514,1.4481,9.6879,-0.4673,0.1534,-0.0744,-0.1421,-0.0441,1.3229,-0.096,-11.4,-36.45,18.6,50.01,-80.7,-112.1,48.84386,2.353353,91.6,NaN,,13.99,,0 / 19,,2720,2022-01-12 10:30:33:471
1.0561,9.839,-0.3514,1.4481,9.6879,-0.4673,0.1534,-0.0744,-0.1421,-0.0441,1.3229,-0.096,-11.4,-36.45,18.6,50.01,-80.7,-112.1,48.84386,2.353353,91.6,NaN,,13.99,,0 / 19,,2725,2022-01-12 10:30:33:476
1.0561,9.839,-0.3514,1.4481,9.6879,-0.4673,0.1534,-0.0744,-0.1421,-0.0441,1.3229,-0.096,-11.4,-36.45,18.6,50.01,-80.7,-112.1,48.84386,2.353353,91.6,NaN,,13.99,,0 / 19,,2730,2022-01-12 10:30:33:481
1.0561,9.839,-0.3514,1.4481,9.6879,-0.4673,0.1534,-0.0744,-0.1421,-0.0441,1.3229,-0.096,-11.4,-36.45,18.6,50.01,-80.7,-112.1,48.84386,2.353353,91.6,NaN,,13.99,,0 / 19,,2735,2022-01-12 10:30:33:486
1.0561,9.839,-0.3514,1.4481,9.6879,-0.4673,0.1534,-0.0744,-0.1421,-0.0441,1.3229,-0.096,-11.4,-36.45,18.6,50.01,-80.7,-112.1,48.84386,2.353353,91.6,NaN,,13.99,,0 / 19,,2740,2022-01-12 10:30:33:491
1.0561,9.839,-0.3514,1.4481,9.6879,-0.4673,0.1534,-0.0744,-0.1421,-0.0441,1.3229,-0.096,-11.4,-36.45,18.6,50.01,-80.7,-112.1,48.84386,2.353353,91.6,NaN,,13.99,,0 / 19,,2745,2022-01-12 10:30:33:496
1.0561,9.839,-0.3514,1.4481,9.6879,-0.4673,0.1534,-0.0744,-0.1421,-0.0441,1.3229,-0.096,-11.4,-36.45,18.6,50.01,-80.7,-112.1,48.84386,2.353353,91.6,NaN,,13.99,,0 / 19,,2750,2022-01-12 10:30:33:501
1.0561,9.839,-0.3514,1.4481,9.6879,-0.4673,0.1534,-0.0744,-0.1421,-0.0441,1.3229,-0.096,-11.4,-36.45,18.6,50.01,-80.7,-112.1,48.84386,2.353353,91.6,NaN,,13.99,,0 / 19,,2755,2022-01-12 10:30:33:506
1.0561,9.839,-0.3514,1.4481,9.6879,-0.4673,0.1534,-0.0744,-0.1421,-0.0441,1.3229,-0.096,-11.4,-36.45,18.6,50.01,-80.7,-112.1,48.84386,2.353353,91.6,NaN,,13.99,,0 / 19,,2760,2022-01-12 10:30:33:511
1.0561,9.839,-0.3514,1.4481,9.6879,-0.4673,0.1534,-0.0744,-0.1421,-0.0441,1.3229,-0.096,-11.4,-36.45,18.6,50.01,-80.7,-112.1,48.84386,2.353353,91.6,NaN,,13.99,,0 / 19,,2765,2022-01-12 10:30:33:516
1.0561,9.839,-0.3514,1.4481,9.6879,-0.4673,0.1534,-0.0744,-0.1421,-0.0441,1.3229,-0.096,-11.4,-36.45,18.6,50.01,-80.7,-112.1,48.84386,2.353353,91.6,NaN,,13.99,,0 / 19,,2770,2022-01-12 10:30:33:521
1.0561,9.839,-0.3514,1.4481,9.6879,-0.4673,0.1534,-0.0744,-0.1421,-0.0441,1.3229,-0.096,-11.4,-36.45,18.6,50.01,-80.7,-112.1,48.84386,2.353353,91.6,NaN,,13.99,,0 / 19,,2775,2022-01-12 10:30:33:526
1.0032,9.6485,-0.2889,1.3603,9.7092,-0.2255,-0.1366,0.0415,-0.367,-0.0441,1.3229,-0.096,-11.4,-36.45,18.6,50.01,-80.7,-112.1,48.84386,2.353353,91.6,NaN,,13.99,,0 / 19,,2780,2022-01-12 10:30:33:531
1.0032,9.6485,-0.2889,1.3603,9.7092,-0.2255,-0.1366,0.0415,-0.367,-0.0441,1.3229,-0.096,-11.4,-36.45,18.6,50.01,-80.7,-112.1,48.84386,2.353353,91.6,NaN,,13.99,,0 / 19,,2785,2022-01-12 10:30:33:536
1.0032,9.6485,-0.2889,1.3603,9.7092,-0.2255,-0.1366,0.0415,-0.367,-0.0441,1.3229,-0.096,-11.4,-36.45,18.6,50.01,-80.7,-112.1,48.84386,2.353353,91.6,NaN,,13.99,,0 / 19,,2790,2022-01-12 10:30:33:541
1.0032,9.6485,-0.2889,1.3603,9.7092,-0.2255,-0.1366,0.0415,-0.367,-0.0842,2.6257,-0.2332,-12.67,-36.53,17.1,55.02,-81.92,-99.41,48.84386,2.353353,91.6,NaN,,13.99,,0 / 19,,2795,2022-01-12 10:30:33:546
1.0032,9.6485,-0.2889,1.3603,9.7092,-0.2255,-0.1366,0.0415,-0.367,-0.0842,2.6257,-0.2332,-12.67,-36.53,17.1,55.02,-81.92,-99.41,48.84386,2.353353,91.6,NaN,,13.99,,0 / 19,,2802,2022-01-12 10:30:33:553
1.0032,9.6485,-0.2889,1.3603,9.7092,-0.2255,-0.1366,0.0415,-0.367,-0.0842,2.6257,-0.2332,-12.67,-36.53,17.1,55.02,-81.92,-99.41,48.84386,2.353353,91.6,NaN,,13.99,,0 / 19,,2805,2022-01-12 10:30:33:556
1.0032,9.6485,-0.2889,1.3603,9.7092,-0.2255,-0.1366,0.0415,-0.367,-0.0842,2.6257,-0.2332,-12.67,-36.53,17.1,55.02,-81.92,-99.41,48.84386,2.353353,91.6,NaN,,13.99,,0 / 19,,2810,2022-01-12 10:30:33:561
1.0032,9.6485,-0.2889,1.3603,9.7092,-0.2255,-0.1366,0.0415,-0.367,-0.0842,2.6257,-0.2332,-12.67,-36.53,17.1,55.02,-81.92,-99.41,48.84386,2.353353,91.6,NaN,,13.99,,0 / 19,,2816,2022-01-12 10:30:33:567
1.0032,9.6485,-0.2889,1.3603,9.7092,-0.2255,-0.1366,0.0415,-0.367,-0.0842,2.6257,-0.2332,-12.67,-36.53,17.1,55.02,-81.92,-99.41,48.84386,2.353353,91.6,NaN,,13.99,,0 / 19,,2820,2022-01-12 10:30:33:571
1.0032,9.6485,-0.2889,1.3603,9.7092,-0.2255,-0.1366,0.0415,-0.367,-0.0842,2.6257,-0.2332,-12.67,-36.53,17.1,55.02,-81.92,-99.41,48.84386,2.353353,91.6,NaN,,13.99,,0 / 19,,2826,2022-01-12 10:30:33:577
1.0032,9.6485,-0.2889,1.3603,9.7092,-0.2255,-0.1366,0.0415,-0.367,-0.0842,2.6257,-0.2332,-12.67,-36.53,17.1,55.02,-81.92,-99.41,48.84386,2.353353,91.6,NaN,,13.99,,0 / 19,,2831,2022-01-12 10:30:33:582
1.0032,9.6485,-0.2889,1.3603,9.7092,-0.2255,-0.1366,0.0415,-0.367,-0.0842,2.6257,-0.2332,-12.67,-36.53,17.1,55.02,-81.92,-99.41,48.84386,2.353353,91.6,NaN,,13.99,,0 / 19,,2836,2022-01-12 10:30:33:587
1.0032,9.6485,-0.2889,1.3603,9.7092,-0.2255,-0.1366,0.0415,-0.367,-0.0842,2.6257,-0.2332,-12.67,-36.53,17.1,55.02,-81.92,-99.41,48.84386,2.353353,91.6,NaN,,13.99,,0 / 19,,2841,2022-01-12 10:30:33:592
1.0032,9.6485,-0.2889,1.3603,9.7092,-0.2255,-0.1366,0.0415,-0.367,-0.0842,2.6257,-0.2332,-12.67,-36.53,17.1,55.02,-81.92,-99.41,48.84386,2.353353,91.6,NaN,,13.99,,0 / 19,,2846,2022-01-12 10:30:33:597
1.0032,9.6485,-0.2889,1.3603,9.7092,-0.2255,-0.1366,0.0415,-0.367,-0.0842,2.6257,-0.2332,-12.67,-36.53,17.1,55.02,-81.92,-99.41,48.84386,2.353353,91.6,NaN,,13.99,,0 / 19,,2851,2022-01-12 10:30:33:602
1.0032,9.6485,-0.2889,1.3603,9.7092,-0.2255,-0.1366,0.0415,-0.367,-0.0842,2.6257,-0.2332,-12.67,-36.53,17.1,55.02,-81.92,-99.41,48.84386,2.353353,91.6,NaN,,13.99,,0 / 19,,2856,2022-01-12 10:30:33:607
1.0032,9.6485,-0.2889,1.3603,9.7092,-0.2255,-0.1366,0.0415,-0.367,-0.0842,2.6257,-0.2332,-12.67,-36.53,17.1,55.02,-81.92,-99.41,48.84386,2.353353,91.6,NaN,,13.99,,0 / 19,,2861,2022-01-12 10:30:33:612
1.0032,9.6485,-0.2889,1.3603,9.7092,-0.2255,-0.1366,0.0415,-0.367,-0.0842,2.6257,-0.2332,-12.67,-36.53,17.1,55.02,-81.92,-99.41,48.84386,2.353353,91.6,NaN,,13.99,,0 / 19,,2866,2022-01-12 10:30:33:617
1.025,9.6233,0.5483,1.3603,9.7092,-0.2255,-0.1366,0.0415,-0.367,0.0208,0.9951,-0.2891,-12.67,-36.53,17.1,55.02,-81.92,-99.41,48.84386,2.353353,91.6,NaN,,13.99,,0 / 19,,2870,2022-01-12 10:30:33:621
1.025,9.6233,0.5483,1.3603,9.7092,-0.2255,-0.1366,0.0415,-0.367,0.0208,0.9951,-0.2891,-12.67,-36.53,17.1,55.02,-81.92,-99.41,48.84386,2.353353,91.6,NaN,,13.99,,0 / 19,,2875,2022-01-12 10:30:33:626
1.025,9.6233,0.5483,1.3603,9.7092,-0.2255,-0.1366,0.0415,-0.367,0.0208,0.9951,-0.2891,-12.67,-36.53,17.1,55.02,-81.92,-99.41,48.84386,2.353353,91.6,NaN,,13.99,,0 / 19,,2881,2022-01-12 10:30:33:632
1.025,9.6233,0.5483,1.0442,9.7508,0.0466,0.0681,-0.0454,0.5575,0.0208,0.9951,-0.2891,-12.67,-36.53,17.1,55.02,-81.92,-99.41,48.84386,2.353353,91.6,NaN,,13.99,,0 / 19,,2885,2022-01-12 10:30:33:636
1.025,9.6233,0.5483,1.0442,9.7508,0.0466,0.0681,-0.0454,0.5575,0.0208,0.9951,-0.2891,-12.67,-36.53,17.1,55.02,-81.92,-99.41,48.84386,2.353353,91.6,NaN,,13.99,,0 / 19,,2890,2022-01-12 10:30:33:641
1.025,9.6233,0.5483,1.0442,9.7508,0.0466,0.0681,-0.0454,0.5575,0.0208,0.9951,-0.2891,-14.63,-36.9,13.28,52.76,-83.88,-87.44,48.84386,2.353353,91.6,NaN,,13.99,,0 / 19,,2896,2022-01-12 10:30:33:647
1.025,9.6233,0.5483,1.0442,9.7508,0.0466,0.0681,-0.0454,0.5575,0.0208,0.9951,-0.2891,-14.63,-36.9,13.28,52.76,-83.88,-87.44,48.84386,2.353353,91.6,NaN,,13.99,,0 / 19,,2901,2022-01-12 10:30:33:652
1.025,9.6233,0.5483,1.0442,9.7508,0.0466,0.0681,-0.0454,0.5575,0.0208,0.9951,-0.2891,-14.63,-36.9,13.28,52.76,-83.88,-87.44,48.84386,2.353353,91.6,NaN,,13.99,,0 / 19,,2906,2022-01-12 10:30:33:657
1.025,9.6233,0.5483,1.0442,9.7508,0.0466,0.0681,-0.0454,0.5575,0.0208,0.9951,-0.2891,-14.63,-36.9,13.28,52.76,-83.88,-87.44,48.84386,2.353353,91.6,NaN,,13.99,,0 / 19,,2910,2022-01-12 10:30:33:661
1.025,9.6233,0.5483,1.0442,9.7508,0.0466,0.0681,-0.0454,0.5575,0.0208,0.9951,-0.2891,-14.63,-36.9,13.28,52.76,-83.88,-87.44,48.84386,2.353353,91.6,NaN,,13.99,,0 / 19,,2915,2022-01-12 10:30:33:666
1.025,9.6233,0.5483,1.0442,9.7508,0.0466,0.0681,-0.0454,0.5575,0.0208,0.9951,-0.2891,-14.63,-36.9,13.28,52.76,-83.88,-87.44,48.84386,2.353353,91.6,NaN,,13.99,,0 / 19,,2920,2022-01-12 10:30:33:671
0.4642,9.8222,0.4845,1.0442,9.7508,0.0466,0.0681,-0.0454,0.5575,0.0208,0.9951,-0.2891,-14.63,-36.9,13.28,52.76,-83.88,-87.44,48.84386,2.353353,91.6,NaN,,13.99,,0 / 19,,2925,2022-01-12 10:30:33:676
0.4642,9.8222,0.4845,1.0442,9.7508,0.0466,0.0681,-0.0454,0.5575,0.0208,0.9951,-0.2891,-14.63,-36.9,13.28,52.76,-83.88,-87.44,48.84386,2.353353,91.6,NaN,,13.99,,0 / 19,,2930,2022-01-12 10:30:33:681
0.4642,9.8222,0.4845,1.0442,9.7508,0.0466,0.0681,-0.0454,0.5575,0.0208,0.9951,-0.2891,-14.63,-36.9,13.28,52.76,-83.88,-87.44,48.84386,2.353353,91.6,NaN,,13.99,,0 / 19,,2936,2022-01-12 10:30:33:687
0.4642,9.8222,0.4845,1.0442,9.7508,0.0466,0.0681,-0.0454,0.5575,0.0208,0.9951,-0.2891,-14.63,-36.9,13.28,52.76,-83.88,-87.44,48.84386,2.353353,91.6,NaN,,13.99,,0 / 19,,2940,2022-01-12 10:30:33:691
0.4642,9.8222,0.4845,1.0442,9.7508,0.0466,0.0681,-0.0454,0.5575,0.0208,0.9951,-0.2891,-14.63,-36.9,13.28,52.76,-83.88,-87.44,48.84386,2.353353,91.6,NaN,,13.99,,0 / 19,,2946,2022-01-12 10:30:33:697
0.4642,9.8222,0.4845,1.0442,9.7508,0.0466,0.0681,-0.0454,0.5575,0.0208,0.9951,-0.2891,-14.63,-36.9,13.28,52.76,-83.88,-87.44,48.84386,2.353353,91.6,NaN,,13.99,,0 / 19,,2950,2022-01-12 10:30:33:701
0.4642,9.8222,0.4845,1.0442,9.7508,0.0466,0.0681,-0.0454,0.5575,0.0208,0.9951,-0.2891,-14.63,-36.9,13.28,52.76,-83.88,-87.44,48.84386,2.353353,91.6,NaN,,13.99,,0 / 19,,2955,2022-01-12 10:30:33:706
0.4642,9.8222,0.4845,0.8985,9.7651,0.0735,-0.2828,-0.0069,0.2196,0.0208,0.9951,-0.2891,-14.63,-36.9,13.28,52.76,-83.88,-87.44,48.84386,2.353353,91.6,NaN,,13.99,,0 / 19,,2960,2022-01-12 10:30:33:711
0.4642,9.8222,0.4845,0.8985,9.7651,0.0735,-0.2828,-0.0069,0.2196,0.0208,0.9951,-0.2891,-14.63,-36.9,13.28,52.76,-83.88,-87.44,48.84386,2.353353,91.6,NaN,,13.99,,0 / 19,,2965,2022-01-12 10:30:33:716
0.4642,9.8222,0.4845,0.8985,9.7651,0.0735,-0.2828,-0.0069,0.2196,0.0208,0.9951,-0.2891,-14.63,-36.9,13.28,52.76,-83.88,-87.44,48.84386,2.353353,91.6,NaN,,13.99,,0 / 19,,2971,2022-01-12 10:30:33:722
0.4642,9.8222,0.4845,0.8985,9.7651,0.0735,-0.2828,-0.0069,0.2196,0.0208,0.9951,-0.2891,-14.63,-36.9,13.28,52.76,-83.88,-87.44,48.84386,2.353353,91.6,NaN,,13.99,,0 / 19,,2975,2022-01-12 10:30:33:726
0.4642,9.8222,0.4845,0.8985,9.7651,0.0735,-0.2828,-0.0069,0.2196,0.0208,0.9951,-0.2891,-14.63,-36.9,13.28,52.76,-83.88,-87.44,48.84386,2.353353,91.6,NaN,,13.99,,0 / 19,,2981,2022-01-12 10:30:33:732
0.4642,9.8222,0.4845,0.8985,9.7651,0.0735,-0.2828,-0.0069,0.2196,0.0208,0.9951,-0.2891,-14.63,-36.9,13.28,52.76,-83.88,-87.44,48.84386,2.353353,91.6,NaN,,13.99,,0 / 19,,2986,2022-01-12 10:30:33:737
0.3577,9.6544,0.2465,0.8985,9.7651,0.0735,-0.2828,-0.0069,0.2196,0.0208,0.9951,-0.2891,-15.38,-37.2,11.48,49.0,-84.73,-85.33,48.84386,2.353353,91.6,NaN,,13.99,,0 / 19,,2990,2022-01-12 10:30:33:741
0.3577,9.6544,0.2465,0.8985,9.7651,0.0735,-0.2828,-0.0069,0.2196,0.0977,1.3957,-0.1381,-15.38,-37.2,11.48,49.0,-84.73,-85.33,48.84386,2.353353,91.6,NaN,,13.99,,0 / 19,,2995,2022-01-12 10:30:33:746
0.3577,9.6544,0.2465,0.8985,9.7651,0.0735,-0.2828,-0.0069,0.2196,0.0977,1.3957,-0.1381,-15.38,-37.2,11.48,49.0,-84.73,-85.33,48.84386,2.353353,91.6,NaN,,13.99,,0 / 19,,3000,2022-01-12 10:30:33:751
0.3577,9.6544,0.2465,0.8985,9.7651,0.0735,-0.2828,-0.0069,0.2196,0.0977,1.3957,-0.1381,-15.38,-37.2,11.48,49.0,-84.73,-85.33,48.84386,2.353353,91.6,NaN,,13.99,,0 / 19,,3008,2022-01-12 10:30:33:759
0.3577,9.6544,0.2465,0.8985,9.7651,0.0735,-0.2828,-0.0069,0.2196,0.0977,1.3957,-0.1381,-15.38,-37.2,11.48,49.0,-84.73,-85.33,48.84386,2.353353,91.6,NaN,,13.99,,0 / 19,,3010,2022-01-12 10:30:33:761
0.3577,9.6544,0.2465,0.8985,9.7651,0.0735,-0.2828,-0.0069,0.2196,0.0977,1.3957,-0.1381,-15.38,-37.2,11.48,49.0,-84.73,-85.33,48.84386,2.353353,91.6,NaN,,13.99,,0 / 19,,3016,2022-01-12 10:30:33:767
0.3577,9.6544,0.2465,0.8985,9.7651,0.0735,-0.2828,-0.0069,0.2196,0.0977,1.3957,-0.1381,-15.38,-37.2,11.48,49.0,-84.73,-85.33,48.84386,2.353353,91.6,NaN,,13.99,,0 / 19,,3020,2022-01-12 10:30:33:771
