ACCELEROMETER X (m/s²),ACCELEROMETER Y (m/s²),ACCELEROMETER Z (m/s²),GRAVITY X (m/s²),GRAVITY Y (m/s²),GRAVITY Z (m/s²),LINEAR ACCELERATION X (m/s²),LINEAR ACCELERATION Y (m/s²),LINEAR ACCELERATION Z (m/s²),GYROSCOPE X (rad/s),GYROSCOPE Y (rad/s),GYROSCOPE Z (rad/s),MAGNETIC FIELD X (μT),MAGNETIC FIELD Y (μT),MAGNETIC FIELD Z (μT),ORIENTATION Z (azimuth °),ORIENTATION X (pitch °),ORIENTATION Y (roll °),LOCATION Latitude : ,LOCATION Longitude : ,LOCATION Altitude ( m),LOCATION Altitude-google ( m),LOCATION Speed ( Kmh),LOCATION Accuracy ( m),LOCATION ORIENTATION (°),Satellites in range,GPS NMEA,Time since start in ms ,YYYY-MO-DD HH-MI-SS_SSS
0.0823,0.7229,9.4307,-0.0727,0.7436,9.7781,0.0594,-0.0717,-0.0322,0.0209,-0.0044,0.014,12.6,-0.75,-39.53,279.18,-4.35,0.49,48.8439,2.353333,95.7,NaN,,12.497,,0 / 19,,22,2022-01-10 19:18:43:785
0.1277,0.7493,9.3562,-0.0727,0.7436,9.7781,0.1949,-0.0026,-0.2963,0.0209,-0.0044,0.014,12.6,-0.75,-39.53,279.18,-4.35,0.49,48.8439,2.353333,95.7,NaN,,12.497,,0 / 19,,25,2022-01-10 19:18:43:788
0.1277,0.7493,9.3562,-0.0671,0.7429,9.7782,0.1949,-0.0026,-0.2963,0.0209,-0.0044,0.014,13.05,-0.53,-39.45,279.18,-4.35,0.49,48.8439,2.353333,95.7,NaN,,12.497,,0 / 19,,31,2022-01-10 19:18:43:794
0.1277,0.7493,9.3562,-0.0671,0.7429,9.7782,0.1949,-0.0026,-0.2963,-0.0696,0.019,-0.0084,13.05,-0.53,-39.45,279.18,-4.35,0.49,48.8439,2.353333,95.7,NaN,,12.497,,0 / 19,,36,2022-01-10 19:18:43:799
0.1277,0.7493,9.3562,-0.0671,0.7429,9.7782,0.1949,-0.0026,-0.2963,-0.0696,0.019,-0.0084,13.05,-0.53,-39.45,279.18,-4.35,0.49,48.8439,2.353333,95.7,NaN,,12.497,,0 / 19,,40,2022-01-10 19:18:43:803
0.1277,0.7493,9.3562,-0.0671,0.7429,9.7782,0.1949,-0.0026,-0.2963,-0.0696,0.019,-0.0084,13.05,-0.53,-39.45,279.18,-4.35,0.49,48.8439,2.353333,95.7,NaN,,12.497,,0 / 19,,45,2022-01-10 19:18:43:808
-0.0541,0.6344,9.7517,-0.0671,0.7429,9.7782,0.103,-0.0295,-0.023,-0.0696,0.019,-0.0084,13.05,-0.53,-39.45,279.18,-4.35,0.49,48.8439,2.353333,95.7,NaN,,12.497,,0 / 19,,51,2022-01-10 19:18:43:814
-0.0541,0.6344,9.7517,-0.0671,0.7429,9.7782,0.103,-0.0295,-0.023,-0.0696,0.019,-0.0084,13.05,-0.53,-39.45,279.18,-4.35,0.49,48.8439,2.353333,95.7,NaN,,12.497,,0 / 19,,56,2022-01-10 19:18:43:819
-0.0541,0.6344,9.7517,-0.0671,0.7429,9.7782,0.103,-0.0295,-0.023,-0.0696,0.019,-0.0084,13.13,-0.53,-39.53,279.11,-4.34,0.39,48.8439,2.353333,95.7,NaN,,12.497,,0 / 19,,60,2022-01-10 19:18:43:823
-0.0541,0.6344,9.7517,-0.0631,0.717,9.7802,0.103,-0.0295,-0.023,-0.0696,0.019,-0.0084,13.13,-0.53,-39.53,279.11,-4.34,0.39,48.8439,2.353333,95.7,NaN,,12.497,,0 / 19,,65,2022-01-10 19:18:43:828
-0.0541,0.6344,9.7517,-0.0631,0.717,9.7802,0.103,-0.0295,-0.023,-0.0782,-0.0491,-0.0254,13.13,-0.53,-39.53,279.11,-4.34,0.39,48.8439,2.353333,95.7,NaN,,12.497,,0 / 19,,71,2022-01-10 19:18:43:834
-0.0541,0.6344,9.7517,-0.0631,0.717,9.7802,0.103,-0.0295,-0.023,-0.0782,-0.0491,-0.0254,13.13,-0.53,-39.53,279.11,-4.34,0.39,48.8439,2.353333,95.7,NaN,,12.497,,0 / 19,,76,2022-01-10 19:18:43:839
-0.1717,0.5671,9.833,-0.0631,0.717,9.7802,0.103,-0.0295,-0.023,-0.0782,-0.0491,-0.0254,13.13,-0.53,-39.53,279.11,-4.34,0.39,48.8439,2.353333,95.7,NaN,,12.497,,0 / 19,,80,2022-01-10 19:18:43:843
-0.1717,0.5671,9.833,-0.0631,0.717,9.7802,-0.08,-0.1274,0.1919,-0.0782,-0.0491,-0.0254,13.13,-0.53,-39.53,279.11,-4.34,0.39,48.8439,2.353333,95.7,NaN,,12.497,,0 / 19,,87,2022-01-10 19:18:43:850
-0.1717,0.5671,9.833,-0.0543,0.6943,9.7819,-0.08,-0.1274,0.1919,-0.0782,-0.0491,-0.0254,13.2,-0.45,-39.37,279.11,-4.34,0.39,48.8439,2.353333,95.7,NaN,,12.497,,0 / 19,,92,2022-01-10 19:18:43:855
-0.1717,0.5671,9.833,-0.0543,0.6943,9.7819,-0.08,-0.1274,0.1919,-0.0483,-0.0246,-0.0095,13.2,-0.45,-39.37,279.11,-4.34,0.39,48.8439,2.353333,95.7,NaN,,12.497,,0 / 19,,97,2022-01-10 19:18:43:860
-0.1717,0.5671,9.833,-0.0543,0.6943,9.7819,-0.08,-0.1274,0.1919,-0.0483,-0.0246,-0.0095,13.2,-0.45,-39.37,279.11,-4.34,0.39,48.8439,2.353333,95.7,NaN,,12.497,,0 / 19,,100,2022-01-10 19:18:43:863
-0.2985,0.6368,9.9215,-0.0543,0.6943,9.7819,-0.08,-0.1274,0.1919,-0.0483,-0.0246,-0.0095,13.2,-0.45,-39.37,279.11,-4.34,0.39,48.8439,2.353333,95.7,NaN,,12.497,,0 / 19,,108,2022-01-10 19:18:43:871
-0.2985,0.6368,9.9215,-0.0543,0.6943,9.7819,-0.08,-0.1274,0.1919,-0.0483,-0.0246,-0.0095,13.2,-0.45,-39.37,279.11,-4.34,0.39,48.8439,2.353333,95.7,NaN,,12.497,,0 / 19,,111,2022-01-10 19:18:43:874
-0.2985,0.6368,9.9215,-0.0543,0.6943,9.7819,-0.2423,-0.0068,0.2306,-0.0483,-0.0246,-0.0095,13.2,-0.45,-39.37,279.11,-4.34,0.39,48.8439,2.353333,95.7,NaN,,12.497,,0 / 19,,117,2022-01-10 19:18:43:880
-0.2985,0.6368,9.9215,-0.0608,0.681,9.7828,-0.2423,-0.0068,0.2306,-0.0483,-0.0246,-0.0095,13.2,-0.45,-39.37,279.11,-4.34,0.39,48.8439,2.353333,95.7,NaN,,12.497,,0 / 19,,120,2022-01-10 19:18:43:883
-0.2985,0.6368,9.9215,-0.0608,0.681,9.7828,-0.2423,-0.0068,0.2306,-0.0483,-0.0246,-0.0095,13.2,-0.45,-39.37,279.11,-4.34,0.39,48.8439,2.353333,95.7,NaN,,12.497,,0 / 19,,125,2022-01-10 19:18:43:888
-0.2985,0.6368,9.9215,-0.0608,0.681,9.7828,-0.2423,-0.0068,0.2306,0.0145,0.0329,0.0289,12.6,-0.3,-39.15,282.01,-3.98,0.36,48.8439,2.353333,95.7,NaN,,12.497,,0 / 19,,131,2022-01-10 19:18:43:894
-0.2411,0.6703,9.8282,-0.0608,0.681,9.7828,-0.2423,-0.0068,0.2306,0.0145,0.0329,0.0289,12.6,-0.3,-39.15,282.01,-3.98,0.36,48.8439,2.353333,95.7,NaN,,12.497,,0 / 19,,135,2022-01-10 19:18:43:898
-0.2411,0.6703,9.8282,-0.0608,0.681,9.7828,-0.2423,-0.0068,0.2306,0.0145,0.0329,0.0289,12.6,-0.3,-39.15,282.01,-3.98,0.36,48.8439,2.353333,95.7,NaN,,12.497,,0 / 19,,142,2022-01-10 19:18:43:905
-0.2411,0.6703,9.8282,-0.0608,0.681,9.7828,-0.1712,0.0141,0.1451,0.0145,0.0329,0.0289,12.6,-0.3,-39.15,282.01,-3.98,0.36,48.8439,2.353333,95.7,NaN,,12.497,,0 / 19,,145,2022-01-10 19:18:43:908
-0.2411,0.6703,9.8282,-0.0779,0.6866,9.7823,-0.1712,0.0141,0.1451,0.0145,0.0329,0.0289,12.6,-0.3,-39.15,282.01,-3.98,0.36,48.8439,2.353333,95.7,NaN,,12.497,,0 / 19,,150,2022-01-10 19:18:43:913
-0.2411,0.6703,9.8282,-0.0779,0.6866,9.7823,-0.1712,0.0141,0.1451,0.0188,-0.0097,0.0438,12.53,-0.22,-38.93,282.01,-3.98,0.36,48.8439,2.353333,95.7,NaN,,12.497,,0 / 19,,156,2022-01-10 19:18:43:919
-0.3129,0.821,9.7014,-0.0779,0.6866,9.7823,-0.1712,0.0141,0.1451,0.0188,-0.0097,0.0438,12.53,-0.22,-38.93,282.01,-3.98,0.36,48.8439,2.353333,95.7,NaN,,12.497,,0 / 19,,161,2022-01-10 19:18:43:924
-0.3129,0.821,9.7014,-0.0779,0.6866,9.7823,-0.1712,0.0141,0.1451,0.0188,-0.0097,0.0438,12.53,-0.22,-38.93,282.01,-3.98,0.36,48.8439,2.353333,95.7,NaN,,12.497,,0 / 19,,166,2022-01-10 19:18:43:929
-0.3129,0.821,9.7014,-0.0779,0.6866,9.7823,-0.1712,0.0141,0.1451,0.0188,-0.0097,0.0438,12.53,-0.22,-38.93,282.01,-3.98,0.36,48.8439,2.353333,95.7,NaN,,12.497,,0 / 19,,170,2022-01-10 19:18:43:933
-0.3129,0.821,9.7014,-0.0844,0.6947,9.7816,-0.2187,0.1396,0.0214,0.0188,-0.0097,0.0438,12.53,-0.22,-38.93,282.01,-3.98,0.36,48.8439,2.353333,95.7,NaN,,12.497,,0 / 19,,176,2022-01-10 19:18:43:939
-0.3129,0.821,9.7014,-0.0844,0.6947,9.7816,-0.2187,0.1396,0.0214,0.0188,-0.0097,0.0438,12.53,-0.22,-38.93,282.01,-3.98,0.36,48.8439,2.353333,95.7,NaN,,12.497,,0 / 19,,181,2022-01-10 19:18:43:944
-0.3129,0.821,9.7014,-0.0844,0.6947,9.7816,-0.2187,0.1396,0.0214,0.0188,-0.0097,0.0438,12.53,-0.22,-38.93,282.01,-3.98,0.36,48.8439,2.353333,95.7,NaN,,12.497,,0 / 19,,186,2022-01-10 19:18:43:949
-0.1047,0.7971,9.7636,-0.0844,0.6947,9.7816,-0.2187,0.1396,0.0214,-0.0015,-0.0278,0.0715,12.83,-0.15,-39.3,282.34,-4.06,0.49,48.8439,2.353333,95.7,NaN,,12.497,,0 / 19,,191,2022-01-10 19:18:43:954
-0.1047,0.7971,9.7636,-0.0844,0.6947,9.7816,-0.2187,0.1396,0.0214,-0.0015,-0.0278,0.0715,12.83,-0.15,-39.3,282.34,-4.06,0.49,48.8439,2.353333,95.7,NaN,,12.497,,0 / 19,,196,2022-01-10 19:18:43:959
-0.1047,0.7971,9.7636,-0.0844,0.6947,9.7816,-0.2187,0.1396,0.0214,-0.0015,-0.0278,0.0715,12.83,-0.15,-39.3,282.34,-4.06,0.49,48.8439,2.353333,95.7,NaN,,12.497,,0 / 19,,201,2022-01-10 19:18:43:964
-0.1047,0.7971,9.7636,-0.0844,0.6947,9.7816,-0.2187,0.1396,0.0214,-0.0015,-0.0278,0.0715,12.83,-0.15,-39.3,282.34,-4.06,0.49,48.8439,2.353333,95.7,NaN,,12.497,,0 / 19,,206,2022-01-10 19:18:43:969
-0.1047,0.7971,9.7636,-0.0781,0.7014,9.7812,0.0326,0.1196,-0.0045,-0.0015,-0.0278,0.0715,12.83,-0.15,-39.3,282.34,-4.06,0.49,48.8439,2.353333,95.7,NaN,,12.497,,0 / 19,,211,2022-01-10 19:18:43:974
9.0E-4,0.778,9.469,-0.0781,0.7014,9.7812,0.0326,0.1196,-0.0045,-0.0015,-0.0278,0.0715,12.83,-0.15,-39.3,282.34,-4.06,0.49,48.8439,2.353333,95.7,NaN,,12.497,,0 / 19,,216,2022-01-10 19:18:43:979
9.0E-4,0.778,9.469,-0.0781,0.7014,9.7812,0.0326,0.1196,-0.0045,-0.01,-0.0374,0.0832,12.75,-0.3,-39.15,282.34,-4.06,0.49,48.8439,2.353333,95.7,NaN,,12.497,,0 / 19,,221,2022-01-10 19:18:43:984
9.0E-4,0.778,9.469,-0.0781,0.7014,9.7812,0.0326,0.1196,-0.0045,-0.01,-0.0374,0.0832,12.75,-0.3,-39.15,282.34,-4.06,0.49,48.8439,2.353333,95.7,NaN,,12.497,,0 / 19,,225,2022-01-10 19:18:43:988
9.0E-4,0.778,9.469,-0.0781,0.7014,9.7812,0.0326,0.1196,-0.0045,-0.01,-0.0374,0.0832,12.75,-0.3,-39.15,282.34,-4.06,0.49,48.8439,2.353333,95.7,NaN,,12.497,,0 / 19,,231,2022-01-10 19:18:43:994
9.0E-4,0.778,9.469,-0.0629,0.7054,9.781,0.0667,0.0769,-0.2935,-0.01,-0.0374,0.0832,12.75,-0.3,-39.15,282.34,-4.06,0.49,48.8439,2.353333,95.7,NaN,,12.497,,0 / 19,,236,2022-01-10 19:18:43:999
9.0E-4,0.778,9.469,-0.0629,0.7054,9.781,0.0667,0.0769,-0.2935,-0.01,-0.0374,0.0832,12.75,-0.3,-39.15,282.34,-4.06,0.49,48.8439,2.353333,95.7,NaN,,12.497,,0 / 19,,241,2022-01-10 19:18:44:004
0.0607,0.7277,9.3778,-0.0629,0.7054,9.781,0.0667,0.0769,-0.2935,-0.01,-0.0374,0.0832,12.75,-0.3,-39.15,282.34,-4.06,0.49,48.8439,2.353333,95.7,NaN,,12.497,,0 / 19,,246,2022-01-10 19:18:44:009
0.0607,0.7277,9.3778,-0.0629,0.7054,9.781,0.0667,0.0769,-0.2935,-0.0846,-0.0917,0.0587,12.75,-0.3,-39.15,282.34,-4.06,0.49,48.8439,2.353333,95.7,NaN,,12.497,,0 / 19,,251,2022-01-10 19:18:44:014
0.0607,0.7277,9.3778,-0.0629,0.7054,9.781,0.0667,0.0769,-0.2935,-0.0846,-0.0917,0.0587,12.75,-0.3,-39.15,282.34,-4.06,0.49,48.8439,2.353333,95.7,NaN,,12.497,,0 / 19,,255,2022-01-10 19:18:44:018
0.0607,0.7277,9.3778,-0.0629,0.7054,9.781,0.0667,0.0769,-0.2935,-0.0846,-0.0917,0.0587,12.23,-0.83,-39.37,278.77,-4.12,0.37,48.8439,2.353333,95.7,NaN,,12.497,,0 / 19,,261,2022-01-10 19:18:44:024
0.0607,0.7277,9.3778,-0.0269,0.6831,9.7828,0.1448,-0.0473,-0.3968,-0.0846,-0.0917,0.0587,12.23,-0.83,-39.37,278.77,-4.12,0.37,48.8439,2.353333,95.7,NaN,,12.497,,0 / 19,,265,2022-01-10 19:18:44:028
0.1229,0.5791,9.4379,-0.0269,0.6831,9.7828,0.1448,-0.0473,-0.3968,-0.0846,-0.0917,0.0587,12.23,-0.83,-39.37,278.77,-4.12,0.37,48.8439,2.353333,95.7,NaN,,12.497,,0 / 19,,271,2022-01-10 19:18:44:034
0.1229,0.5791,9.4379,-0.0269,0.6831,9.7828,0.1448,-0.0473,-0.3968,-0.0846,-0.0917,0.0587,12.23,-0.83,-39.37,278.77,-4.12,0.37,48.8439,2.353333,95.7,NaN,,12.497,,0 / 19,,275,2022-01-10 19:18:44:038
0.1229,0.5791,9.4379,-0.0269,0.6831,9.7828,0.1448,-0.0473,-0.3968,-0.1687,-0.1397,0.031,12.23,-0.83,-39.37,278.77,-4.12,0.37,48.8439,2.353333,95.7,NaN,,12.497,,0 / 19,,280,2022-01-10 19:18:44:043
0.1229,0.5791,9.4379,-0.0269,0.6831,9.7828,0.1448,-0.0473,-0.3968,-0.1687,-0.1397,0.031,12.23,-0.83,-39.37,278.77,-4.12,0.37,48.8439,2.353333,95.7,NaN,,12.497,,0 / 19,,285,2022-01-10 19:18:44:048
0.1229,0.5791,9.4379,-0.0269,0.6831,9.7828,0.1448,-0.0473,-0.3968,-0.1687,-0.1397,0.031,12.15,-0.83,-39.68,278.77,-4.12,0.37,48.8439,2.353333,95.7,NaN,,12.497,,0 / 19,,291,2022-01-10 19:18:44:054
0.1804,0.5408,9.6054,0.0233,0.6343,9.7861,0.1743,-0.0225,-0.0354,-0.1687,-0.1397,0.031,12.15,-0.83,-39.68,278.77,-4.12,0.37,48.8439,2.353333,95.7,NaN,,12.497,,0 / 19,,296,2022-01-10 19:18:44:059
0.1804,0.5408,9.6054,0.0233,0.6343,9.7861,0.1743,-0.0225,-0.0354,-0.1687,-0.1397,0.031,12.15,-0.83,-39.68,278.77,-4.12,0.37,48.8439,2.353333,95.7,NaN,,12.497,,0 / 19,,300,2022-01-10 19:18:44:063
0.1804,0.5408,9.6054,0.0233,0.6343,9.7861,0.1743,-0.0225,-0.0354,-0.1687,-0.1397,0.031,12.15,-0.83,-39.68,278.77,-4.12,0.37,48.8439,2.353333,95.7,NaN,,12.497,,0 / 19,,306,2022-01-10 19:18:44:069
0.1804,0.5408,9.6054,0.0233,0.6343,9.7861,0.1743,-0.0225,-0.0354,-0.0771,0.0137,0.0374,12.15,-0.83,-39.68,278.77,-4.12,0.37,48.8439,2.353333,95.7,NaN,,12.497,,0 / 19,,311,2022-01-10 19:18:44:074
0.1804,0.5408,9.6054,0.0233,0.6343,9.7861,0.1743,-0.0225,-0.0354,-0.0771,0.0137,0.0374,12.15,-0.83,-39.68,278.77,-4.12,0.37,48.8439,2.353333,95.7,NaN,,12.497,,0 / 19,,315,2022-01-10 19:18:44:078
0.1804,0.5408,9.6054,0.0233,0.6343,9.7861,0.1743,-0.0225,-0.0354,-0.0771,0.0137,0.0374,12.15,-0.83,-39.68,278.77,-4.12,0.37,48.8439,2.353333,95.7,NaN,,12.497,,0 / 19,,321,2022-01-10 19:18:44:084
0.1301,0.536,9.6751,0.0314,0.6074,9.7878,0.0935,-0.05,-0.0051,-0.0771,0.0137,0.0374,12.15,-0.83,-39.68,278.77,-4.12,0.37,48.8439,2.353333,95.7,NaN,,12.497,,0 / 19,,326,2022-01-10 19:18:44:089
0.1301,0.536,9.6751,0.0314,0.6074,9.7878,0.0935,-0.05,-0.0051,-0.0771,0.0137,0.0374,12.45,-0.75,-39.45,276.66,-3.55,-0.18,48.8439,2.353333,95.7,NaN,,12.497,,0 / 19,,330,2022-01-10 19:18:44:093
0.1301,0.536,9.6751,0.0314,0.6074,9.7878,0.0935,-0.05,-0.0051,-0.0771,0.0137,0.0374,12.45,-0.75,-39.45,276.66,-3.55,-0.18,48.8439,2.353333,95.7,NaN,,12.497,,0 / 19,,336,2022-01-10 19:18:44:099
0.1301,0.536,9.6751,0.0314,0.6074,9.7878,0.0935,-0.05,-0.0051,-0.0569,0.0585,0.047,12.45,-0.75,-39.45,276.66,-3.55,-0.18,48.8439,2.353333,95.7,NaN,,12.497,,0 / 19,,342,2022-01-10 19:18:44:105
0.1301,0.536,9.6751,0.0314,0.6074,9.7878,0.0935,-0.05,-0.0051,-0.0569,0.0585,0.047,12.45,-0.75,-39.45,276.66,-3.55,-0.18,48.8439,2.353333,95.7,NaN,,12.497,,0 / 19,,346,2022-01-10 19:18:44:109
0.1612,0.4331,9.6727,0.0224,0.5855,9.7891,0.0935,-0.05,-0.0051,-0.0569,0.0585,0.047,12.45,-0.75,-39.45,276.66,-3.55,-0.18,48.8439,2.353333,95.7,NaN,,12.497,,0 / 19,,350,2022-01-10 19:18:44:113
0.1612,0.4331,9.6727,0.0224,0.5855,9.7891,0.0935,-0.05,-0.0051,-0.0569,0.0585,0.047,12.45,-0.75,-39.45,276.66,-3.55,-0.18,48.8439,2.353333,95.7,NaN,,12.497,,0 / 19,,356,2022-01-10 19:18:44:119
0.1612,0.4331,9.6727,0.0224,0.5855,9.7891,0.1461,-0.1143,0.0672,-0.0569,0.0585,0.047,12.38,-0.37,-39.15,276.66,-3.55,-0.18,48.8439,2.353333,95.7,NaN,,12.497,,0 / 19,,361,2022-01-10 19:18:44:124
0.1612,0.4331,9.6727,0.0224,0.5855,9.7891,0.1461,-0.1143,0.0672,-0.0569,0.0585,0.047,12.38,-0.37,-39.15,276.66,-3.55,-0.18,48.8439,2.353333,95.7,NaN,,12.497,,0 / 19,,365,2022-01-10 19:18:44:128
0.1612,0.4331,9.6727,0.0224,0.5855,9.7891,0.1461,-0.1143,0.0672,-0.0569,0.0585,0.047,12.38,-0.37,-39.15,276.66,-3.55,-0.18,48.8439,2.353333,95.7,NaN,,12.497,,0 / 19,,371,2022-01-10 19:18:44:134
-0.0135,0.4857,9.8139,0.012,0.5679,9.7902,0.1461,-0.1143,0.0672,-0.0537,0.0606,0.0172,12.38,-0.37,-39.15,276.66,-3.55,-0.18,48.8439,2.353333,95.7,NaN,,12.497,,0 / 19,,377,2022-01-10 19:18:44:140
-0.0135,0.4857,9.8139,0.012,0.5679,9.7902,0.1461,-0.1143,0.0672,-0.0537,0.0606,0.0172,12.38,-0.37,-39.15,276.66,-3.55,-0.18,48.8439,2.353333,95.7,NaN,,12.497,,0 / 19,,380,2022-01-10 19:18:44:143
-0.0135,0.4857,9.8139,0.012,0.5679,9.7902,0.1461,-0.1143,0.0672,-0.0537,0.0606,0.0172,12.38,-0.37,-39.15,276.66,-3.55,-0.18,48.8439,2.353333,95.7,NaN,,12.497,,0 / 19,,385,2022-01-10 19:18:44:148
-0.0135,0.4857,9.8139,0.012,0.5679,9.7902,-0.0415,-0.0581,0.1593,-0.0537,0.0606,0.0172,12.45,-0.08,-39.07,280.61,-3.32,-0.07,48.8439,2.353333,95.7,NaN,,12.497,,0 / 19,,391,2022-01-10 19:18:44:154
-0.0135,0.4857,9.8139,0.012,0.5679,9.7902,-0.0415,-0.0581,0.1593,-0.0537,0.0606,0.0172,12.45,-0.08,-39.07,280.61,-3.32,-0.07,48.8439,2.353333,95.7,NaN,,12.497,,0 / 19,,396,2022-01-10 19:18:44:159
-0.0135,0.4857,9.8139,0.012,0.5679,9.7902,-0.0415,-0.0581,0.1593,-0.0537,0.0606,0.0172,12.45,-0.08,-39.07,280.61,-3.32,-0.07,48.8439,2.353333,95.7,NaN,,12.497,,0 / 19,,401,2022-01-10 19:18:44:164
-0.0135,0.4857,9.8139,0.012,0.5679,9.7902,-0.0415,-0.0581,0.1593,-0.0537,0.0606,0.0172,12.45,-0.08,-39.07,280.61,-3.32,-0.07,48.8439,2.353333,95.7,NaN,,12.497,,0 / 19,,406,2022-01-10 19:18:44:169
-0.2076,0.5958,9.8545,-0.0085,0.5499,9.7912,-0.0415,-0.0581,0.1593,-0.0356,0.0638,0.0342,12.45,-0.08,-39.07,280.61,-3.32,-0.07,48.8439,2.353333,95.7,NaN,,12.497,,0 / 19,,411,2022-01-10 19:18:44:174
-0.2076,0.5958,9.8545,-0.0085,0.5499,9.7912,-0.0415,-0.0581,0.1593,-0.0356,0.0638,0.0342,12.45,-0.08,-39.07,280.61,-3.32,-0.07,48.8439,2.353333,95.7,NaN,,12.497,,0 / 19,,415,2022-01-10 19:18:44:178
-0.2076,0.5958,9.8545,-0.0085,0.5499,9.7912,-0.0415,-0.0581,0.1593,-0.0356,0.0638,0.0342,12.45,-0.08,-39.07,280.61,-3.32,-0.07,48.8439,2.353333,95.7,NaN,,12.497,,0 / 19,,422,2022-01-10 19:18:44:185
-0.2076,0.5958,9.8545,-0.0085,0.5499,9.7912,-0.1643,0.0383,0.082,-0.0356,0.0638,0.0342,12.45,-0.08,-39.07,280.61,-3.32,-0.07,48.8439,2.353333,95.7,NaN,,12.497,,0 / 19,,426,2022-01-10 19:18:44:189
-0.2076,0.5958,9.8545,-0.0085,0.5499,9.7912,-0.1643,0.0383,0.082,-0.0356,0.0638,0.0342,12.98,-0.15,-39.45,280.61,-3.32,-0.07,48.8439,2.353333,95.7,NaN,,12.497,,0 / 19,,431,2022-01-10 19:18:44:194
-0.1047,0.6272,9.7301,-0.0085,0.5499,9.7912,-0.1643,0.0383,0.082,-0.0356,0.0638,0.0342,12.98,-0.15,-39.45,280.61,-3.32,-0.07,48.8439,2.353333,95.7,NaN,,12.497,,0 / 19,,436,2022-01-10 19:18:44:199
-0.1047,0.6272,9.7301,-0.041,0.5484,9.7912,-0.1643,0.0383,0.082,0.006,0.1394,0.079,12.98,-0.15,-39.45,280.61,-3.32,-0.07,48.8439,2.353333,95.7,NaN,,12.497,,0 / 19,,441,2022-01-10 19:18:44:204
-0.1047,0.6272,9.7301,-0.041,0.5484,9.7912,-0.1643,0.0383,0.082,0.006,0.1394,0.079,12.98,-0.15,-39.45,280.61,-3.32,-0.07,48.8439,2.353333,95.7,NaN,,12.497,,0 / 19,,446,2022-01-10 19:18:44:209
-0.1047,0.6272,9.7301,-0.041,0.5484,9.7912,-0.1643,0.0383,0.082,0.006,0.1394,0.079,12.98,-0.15,-39.45,280.61,-3.32,-0.07,48.8439,2.353333,95.7,NaN,,12.497,,0 / 19,,452,2022-01-10 19:18:44:215
-0.1047,0.6272,9.7301,-0.041,0.5484,9.7912,-0.032,0.1703,0.0645,0.006,0.1394,0.079,12.98,-0.15,-39.45,280.61,-3.32,-0.07,48.8439,2.353333,95.7,NaN,,12.497,,0 / 19,,456,2022-01-10 19:18:44:219
-0.0927,0.699,9.6703,-0.041,0.5484,9.7912,-0.032,0.1703,0.0645,0.006,0.1394,0.079,12.98,-0.15,-39.45,280.61,-3.32,-0.07,48.8439,2.353333,95.7,NaN,,12.497,,0 / 19,,461,2022-01-10 19:18:44:224
-0.0927,0.699,9.6703,-0.041,0.5484,9.7912,-0.032,0.1703,0.0645,0.006,0.1394,0.079,12.98,-0.15,-39.45,280.61,-3.32,-0.07,48.8439,2.353333,95.7,NaN,,12.497,,0 / 19,,465,2022-01-10 19:18:44:228
-0.0927,0.699,9.6703,-0.041,0.5484,9.7912,-0.032,0.1703,0.0645,0.006,0.1394,0.079,12.98,-0.15,-39.45,280.61,-3.32,-0.07,48.8439,2.353333,95.7,NaN,,12.497,,0 / 19,,471,2022-01-10 19:18:44:234
-0.0927,0.699,9.6703,-0.0865,0.5627,9.7901,-0.032,0.1703,0.0645,0.0422,0.1511,0.0843,12.6,-0.22,-39.68,279.9,-3.21,0.24,48.8439,2.353333,95.7,NaN,,12.497,,0 / 19,,475,2022-01-10 19:18:44:238
-0.0927,0.699,9.6703,-0.0865,0.5627,9.7901,-0.032,0.1703,0.0645,0.0422,0.1511,0.0843,12.6,-0.22,-39.68,279.9,-3.21,0.24,48.8439,2.353333,95.7,NaN,,12.497,,0 / 19,,480,2022-01-10 19:18:44:243
0.032,0.6296,9.6894,-0.0865,0.5627,9.7901,0.0939,0.0374,0.0447,0.0422,0.1511,0.0843,12.6,-0.22,-39.68,279.9,-3.21,0.24,48.8439,2.353333,95.7,NaN,,12.497,,0 / 19,,486,2022-01-10 19:18:44:249
0.032,0.6296,9.6894,-0.0865,0.5627,9.7901,0.0939,0.0374,0.0447,0.0422,0.1511,0.0843,12.6,-0.22,-39.68,279.9,-3.21,0.24,48.8439,2.353333,95.7,NaN,,12.497,,0 / 19,,493,2022-01-10 19:18:44:256
0.032,0.6296,9.6894,-0.0865,0.5627,9.7901,0.0939,0.0374,0.0447,0.0422,0.1511,0.0843,12.6,-0.22,-39.68,279.9,-3.21,0.24,48.8439,2.353333,95.7,NaN,,12.497,,0 / 19,,495,2022-01-10 19:18:44:258
0.032,0.6296,9.6894,-0.1297,0.58,9.7886,0.0939,0.0374,0.0447,0.0433,0.1628,0.014,12.6,-0.22,-39.68,279.9,-3.21,0.24,48.8439,2.353333,95.7,NaN,,12.497,,0 / 19,,501,2022-01-10 19:18:44:264
0.032,0.6296,9.6894,-0.1297,0.58,9.7886,0.0939,0.0374,0.0447,0.0433,0.1628,0.014,12.6,-0.22,-39.68,279.9,-3.21,0.24,48.8439,2.353333,95.7,NaN,,12.497,,0 / 19,,507,2022-01-10 19:18:44:270
0.032,0.6296,9.6894,-0.1297,0.58,9.7886,0.0939,0.0374,0.0447,0.0433,0.1628,0.014,12.6,-0.15,-39.68,279.9,-3.21,0.24,48.8439,2.353333,95.7,NaN,,12.497,,0 / 19,,511,2022-01-10 19:18:44:274
-0.0206,0.6416,9.6703,-0.1297,0.58,9.7886,0.2298,0.0133,-0.0218,0.0433,0.1628,0.014,12.6,-0.15,-39.68,279.9,-3.21,0.24,48.8439,2.353333,95.7,NaN,,12.497,,0 / 19,,515,2022-01-10 19:18:44:278
-0.2674,0.4714,10.384,-0.157,0.5464,9.7902,-0.194,-0.1814,0.7661,0.0816,-0.162,0.0726,13.05,-0.45,-39.3,280.72,-3.42,0.94,48.8439,2.353333,95.7,NaN,,12.497,,0 / 19,,595,2022-01-10 19:18:44:358
-0.2674,0.4714,10.384,-0.157,0.5464,9.7902,-0.194,-0.1814,0.7661,0.0816,-0.162,0.0726,13.05,-0.45,-39.3,280.72,-3.42,0.94,48.8439,2.353333,95.7,NaN,,12.497,,0 / 19,,595,2022-01-10 19:18:44:358
-0.2674,0.4714,10.384,-0.157,0.5464,9.7902,-0.194,-0.1814,0.7661,0.0816,-0.162,0.0726,13.05,-0.45,-39.3,280.72,-3.42,0.94,48.8439,2.353333,95.7,NaN,,12.497,,0 / 19,,595,2022-01-10 19:18:44:358
-0.2674,0.4714,10.384,-0.157,0.5464,9.7902,-0.194,-0.1814,0.7661,0.0816,-0.162,0.0726,13.05,-0.45,-39.3,280.72,-3.42,0.94,48.8439,2.353333,95.7,NaN,,12.497,,0 / 19,,595,2022-01-10 19:18:44:358
-0.2674,0.4714,10.384,-0.157,0.5464,9.7902,-0.194,-0.1814,0.7661,0.0816,-0.162,0.0726,13.05,-0.45,-39.3,280.72,-3.42,0.94,48.8439,2.353333,95.7,NaN,,12.497,,0 / 19,,596,2022-01-10 19:18:44:359
-0.2674,0.4714,10.384,-0.157,0.5464,9.7902,-0.194,-0.1814,0.7661,0.0816,-0.162,0.0726,13.05,-0.45,-39.3,280.72,-3.42,0.94,48.8439,2.353333,95.7,NaN,,12.497,,0 / 19,,596,2022-01-10 19:18:44:359
-0.2674,0.4714,10.384,-0.157,0.5464,9.7902,-0.194,-0.1814,0.7661,0.0816,-0.162,0.0726,13.05,-0.45,-39.3,280.72,-3.42,0.94,48.8439,2.353333,95.7,NaN,,12.497,,0 / 19,,596,2022-01-10 19:18:44:359
-0.2674,0.4714,10.384,-0.157,0.5464,9.7902,-0.194,-0.1814,0.7661,0.0816,-0.162,0.0726,13.05,-0.45,-39.3,280.72,-3.42,0.94,48.8439,2.353333,95.7,NaN,,12.497,,0 / 19,,596,2022-01-10 19:18:44:359
-0.2674,0.4714,10.384,-0.157,0.5464,9.7902,-0.194,-0.1814,0.7661,0.0816,-0.162,0.0726,13.05,-0.45,-39.3,280.72,-3.42,0.94,48.8439,2.353333,95.7,NaN,,12.497,,0 / 19,,596,2022-01-10 19:18:44:359
-0.2674,0.4714,10.384,-0.157,0.5464,9.7902,-0.194,-0.1814,0.7661,0.0816,-0.162,0.0726,13.05,-0.45,-39.3,280.72,-3.42,0.94,48.8439,2.353333,95.7,NaN,,12.497,,0 / 19,,597,2022-01-10 19:18:44:360
-0.2674,0.4714,10.384,-0.157,0.5464,9.7902,-0.194,-0.1814,0.7661,0.0816,-0.162,0.0726,13.05,-0.45,-39.3,280.72,-3.42,0.94,48.8439,2.353333,95.7,NaN,,12.497,,0 / 19,,597,2022-01-10 19:18:44:360
-0.2674,0.4714,10.384,-0.157,0.5464,9.7902,-0.194,-0.1814,0.7661,0.0816,-0.162,0.0726,13.05,-0.45,-39.3,280.72,-3.42,0.94,48.8439,2.353333,95.7,NaN,,12.497,,0 / 19,,597,2022-01-10 19:18:44:360
-0.2674,0.4714,10.384,-0.157,0.5464,9.7902,-0.194,-0.1814,0.7661,0.0816,-0.162,0.0726,13.05,-0.45,-39.3,280.72,-3.42,0.94,48.8439,2.353333,95.7,NaN,,12.497,,0 / 19,,597,2022-01-10 19:18:44:360
-0.2674,0.4714,10.384,-0.157,0.5464,9.7902,-0.194,-0.1814,0.7661,0.0816,-0.162,0.0726,13.05,-0.45,-39.3,280.72,-3.42,0.94,48.8439,2.353333,95.7,NaN,,12.497,,0 / 19,,597,2022-01-10 19:18:44:360
-0.2674,0.4714,10.384,-0.157,0.5464,9.7902,-0.194,-0.1814,0.7661,0.0816,-0.162,0.0726,13.05,-0.45,-39.3,280.72,-3.42,0.94,48.8439,2.353333,95.7,NaN,,12.497,,0 / 19,,598,2022-01-10 19:18:44:361
-0.2674,0.4714,10.384,-0.157,0.5464,9.7902,-0.194,-0.1814,0.7661,0.0816,-0.162,0.0726,13.05,-0.45,-39.3,280.72,-3.42,0.94,48.8439,2.353333,95.7,NaN,,12.497,,0 / 19,,598,2022-01-10 19:18:44:361
-0.2674,0.4714,10.384,-0.157,0.5464,9.7902,-0.194,-0.1814,0.7661,0.0816,-0.162,0.0726,13.05,-0.45,-39.3,280.72,-3.42,0.94,48.8439,2.353333,95.7,NaN,,12.497,,0 / 19,,600,2022-01-10 19:18:44:363
-0.2674,0.4714,10.384,-0.157,0.5464,9.7902,-0.1215,-0.1047,0.6029,0.0816,-0.162,0.0726,13.05,-0.45,-39.3,280.72,-3.42,0.94,48.8439,2.353333,95.7,NaN,,12.497,,0 / 19,,606,2022-01-10 19:18:44:369
-0.2674,0.4714,10.384,-0.157,0.5464,9.7902,-0.1215,-0.1047,0.6029,0.0816,-0.162,0.0726,13.05,-0.45,-39.3,280.72,-3.42,0.94,48.8439,2.353333,95.7,NaN,,12.497,,0 / 19,,610,2022-01-10 19:18:44:373
-0.2674,0.4714,10.384,-0.157,0.5464,9.7902,-0.1215,-0.1047,0.6029,0.0816,-0.162,0.0726,13.05,-0.45,-39.3,280.72,-3.42,0.94,48.8439,2.353333,95.7,NaN,,12.497,,0 / 19,,615,2022-01-10 19:18:44:378
-0.2674,0.4714,10.384,-0.157,0.5464,9.7902,-0.1215,-0.1047,0.6029,0.0816,-0.162,0.0726,13.28,-0.22,-39.9,280.27,-3.19,0.92,48.8439,2.353333,95.7,NaN,,12.497,,0 / 19,,621,2022-01-10 19:18:44:384
-0.0182,0.4211,9.9625,-0.0973,0.5685,9.7897,-0.1215,-0.1047,0.6029,0.104,-0.2632,0.0619,13.28,-0.22,-39.9,280.27,-3.19,0.92,48.8439,2.353333,95.7,NaN,,12.497,,0 / 19,,626,2022-01-10 19:18:44:389
-0.0182,0.4211,9.9625,-0.0973,0.5685,9.7897,-0.1215,-0.1047,0.6029,0.104,-0.2632,0.0619,13.28,-0.22,-39.9,280.27,-3.19,0.92,48.8439,2.353333,95.7,NaN,,12.497,,0 / 19,,631,2022-01-10 19:18:44:394
-0.0182,0.4211,9.9625,-0.0973,0.5685,9.7897,0.0465,-0.1688,0.0634,0.104,-0.2632,0.0619,13.28,-0.22,-39.9,280.27,-3.19,0.92,48.8439,2.353333,95.7,NaN,,12.497,,0 / 19,,636,2022-01-10 19:18:44:399
-0.0182,0.4211,9.9625,-0.0973,0.5685,9.7897,0.0465,-0.1688,0.0634,0.104,-0.2632,0.0619,13.28,-0.22,-39.9,280.27,-3.19,0.92,48.8439,2.353333,95.7,NaN,,12.497,,0 / 19,,641,2022-01-10 19:18:44:404
-0.0182,0.4211,9.9625,-0.0973,0.5685,9.7897,0.0465,-0.1688,0.0634,0.104,-0.2632,0.0619,13.28,-0.22,-39.9,280.27,-3.19,0.92,48.8439,2.353333,95.7,NaN,,12.497,,0 / 19,,646,2022-01-10 19:18:44:409
0.1636,0.6488,9.4714,-0.0205,0.5931,9.7887,0.0465,-0.1688,0.0634,0.104,-0.2632,0.0619,13.28,-0.22,-39.9,280.27,-3.19,0.92,48.8439,2.353333,95.7,NaN,,12.497,,0 / 19,,651,2022-01-10 19:18:44:414
0.1636,0.6488,9.4714,-0.0205,0.5931,9.7887,0.0465,-0.1688,0.0634,0.072,-0.2132,0.0491,13.28,-0.22,-39.9,280.27,-3.19,0.92,48.8439,2.353333,95.7,NaN,,12.497,,0 / 19,,656,2022-01-10 19:18:44:419
0.1636,0.6488,9.4714,-0.0205,0.5931,9.7887,0.0465,-0.1688,0.0634,0.072,-0.2132,0.0491,12.9,-0.22,-40.2,280.27,-3.19,0.92,48.8439,2.353333,95.7,NaN,,12.497,,0 / 19,,660,2022-01-10 19:18:44:423
0.1636,0.6488,9.4714,-0.0205,0.5931,9.7887,0.1543,0.0548,-0.3548,0.072,-0.2132,0.0491,12.9,-0.22,-40.2,280.27,-3.19,0.92,48.8439,2.353333,95.7,NaN,,12.497,,0 / 19,,666,2022-01-10 19:18:44:429
0.1636,0.6488,9.4714,-0.0205,0.5931,9.7887,0.1543,0.0548,-0.3548,0.072,-0.2132,0.0491,12.9,-0.22,-40.2,280.27,-3.19,0.92,48.8439,2.353333,95.7,NaN,,12.497,,0 / 19,,671,2022-01-10 19:18:44:434
0.2596,0.5695,9.457,-0.0205,0.5931,9.7887,0.1543,0.0548,-0.3548,0.072,-0.2132,0.0491,12.9,-0.22,-40.2,280.27,-3.19,0.92,48.8439,2.353333,95.7,NaN,,12.497,,0 / 19,,675,2022-01-10 19:18:44:438
0.2596,0.5695,9.457,0.0369,0.6072,9.7878,0.1543,0.0548,-0.3548,0.072,-0.2132,0.0491,12.9,-0.22,-40.2,280.27,-3.19,0.92,48.8439,2.353333,95.7,NaN,,12.497,,0 / 19,,681,2022-01-10 19:18:44:444
0.2596,0.5695,9.457,0.0369,0.6072,9.7878,0.1543,0.0548,-0.3548,0.072,-0.2132,0.0491,12.9,-0.22,-40.2,280.27,-3.19,0.92,48.8439,2.353333,95.7,NaN,,12.497,,0 / 19,,685,2022-01-10 19:18:44:448
0.2596,0.5695,9.457,0.0369,0.6072,9.7878,0.1543,0.0548,-0.3548,0.0433,0.0744,0.0502,12.75,-0.53,-40.28,276.4,-3.55,-0.22,48.8439,2.353333,95.7,NaN,,12.497,,0 / 19,,691,2022-01-10 19:18:44:454
0.2596,0.5695,9.457,0.0369,0.6072,9.7878,0.2233,-0.0045,0.1146,0.0433,0.0744,0.0502,12.75,-0.53,-40.28,276.4,-3.55,-0.22,48.8439,2.353333,95.7,NaN,,12.497,,0 / 19,,696,2022-01-10 19:18:44:459
0.1588,0.5551,10.0056,0.0369,0.6072,9.7878,0.2233,-0.0045,0.1146,0.0433,0.0744,0.0502,12.75,-0.53,-40.28,276.4,-3.55,-0.22,48.8439,2.353333,95.7,NaN,,12.497,,0 / 19,,701,2022-01-10 19:18:44:464
0.1588,0.5551,10.0056,0.0369,0.6072,9.7878,0.2233,-0.0045,0.1146,0.0433,0.0744,0.0502,12.75,-0.53,-40.28,276.4,-3.55,-0.22,48.8439,2.353333,95.7,NaN,,12.497,,0 / 19,,705,2022-01-10 19:18:44:468
0.1588,0.5551,10.0056,0.0369,0.6072,9.7878,0.2233,-0.0045,0.1146,0.0433,0.0744,0.0502,12.75,-0.53,-40.28,276.4,-3.55,-0.22,48.8439,2.353333,95.7,NaN,,12.497,,0 / 19,,711,2022-01-10 19:18:44:474
0.1588,0.5551,10.0056,-0.0045,0.6348,9.7861,0.2233,-0.0045,0.1146,0.0433,0.0744,0.0502,12.75,-0.53,-40.28,276.4,-3.55,-0.22,48.8439,2.353333,95.7,NaN,,12.497,,0 / 19,,715,2022-01-10 19:18:44:478
0.1588,0.5551,10.0056,-0.0045,0.6348,9.7861,0.2233,-0.0045,0.1146,0.2308,0.2587,0.047,12.23,-0.53,-39.82,276.4,-3.55,-0.22,48.8439,2.353333,95.7,NaN,,12.497,,0 / 19,,721,2022-01-10 19:18:44:484
0.1588,0.5551,10.0056,-0.0045,0.6348,9.7861,0.2233,-0.0045,0.1146,0.2308,0.2587,0.047,12.23,-0.53,-39.82,276.4,-3.55,-0.22,48.8439,2.353333,95.7,NaN,,12.497,,0 / 19,,726,2022-01-10 19:18:44:489
0.0559,0.5551,9.4355,-0.0045,0.6348,9.7861,0.0515,-0.1025,-0.1439,0.2308,0.2587,0.047,12.23,-0.53,-39.82,276.4,-3.55,-0.22,48.8439,2.353333,95.7,NaN,,12.497,,0 / 19,,731,2022-01-10 19:18:44:494
0.0559,0.5551,9.4355,-0.0045,0.6348,9.7861,0.0515,-0.1025,-0.1439,0.2308,0.2587,0.047,12.23,-0.53,-39.82,276.4,-3.55,-0.22,48.8439,2.353333,95.7,NaN,,12.497,,0 / 19,,736,2022-01-10 19:18:44:499
0.0559,0.5551,9.4355,-0.0487,0.6831,9.7827,0.0515,-0.1025,-0.1439,0.2308,0.2587,0.047,12.23,-0.53,-39.82,276.4,-3.55,-0.22,48.8439,2.353333,95.7,NaN,,12.497,,0 / 19,,741,2022-01-10 19:18:44:504
0.0559,0.5551,9.4355,-0.0487,0.6831,9.7827,0.0515,-0.1025,-0.1439,0.2308,0.2587,0.047,12.23,-0.53,-39.82,276.4,-3.55,-0.22,48.8439,2.353333,95.7,NaN,,12.497,,0 / 19,,746,2022-01-10 19:18:44:509
0.0559,0.5551,9.4355,-0.0487,0.6831,9.7827,0.0515,-0.1025,-0.1439,0.0454,-0.0353,0.0055,12.23,-0.6,-39.68,278.64,-3.99,0.29,48.8439,2.353333,95.7,NaN,,12.497,,0 / 19,,751,2022-01-10 19:18:44:514
-0.023,0.6918,9.4905,-0.0487,0.6831,9.7827,0.0515,-0.1025,-0.1439,0.0454,-0.0353,0.0055,12.23,-0.6,-39.68,278.64,-3.99,0.29,48.8439,2.353333,95.7,NaN,,12.497,,0 / 19,,756,2022-01-10 19:18:44:519
-0.023,0.6918,9.4905,-0.0487,0.6831,9.7827,0.0116,-0.0034,-0.2454,0.0454,-0.0353,0.0055,12.23,-0.6,-39.68,278.64,-3.99,0.29,48.8439,2.353333,95.7,NaN,,12.497,,0 / 19,,761,2022-01-10 19:18:44:524
-0.023,0.6918,9.4905,-0.0487,0.6831,9.7827,0.0116,-0.0034,-0.2454,0.0454,-0.0353,0.0055,12.23,-0.6,-39.68,278.64,-3.99,0.29,48.8439,2.353333,95.7,NaN,,12.497,,0 / 19,,767,2022-01-10 19:18:44:530
-0.023,0.6918,9.4905,-0.0389,0.6971,9.7818,0.0116,-0.0034,-0.2454,0.0454,-0.0353,0.0055,12.23,-0.6,-39.68,278.64,-3.99,0.29,48.8439,2.353333,95.7,NaN,,12.497,,0 / 19,,770,2022-01-10 19:18:44:533
-0.023,0.6918,9.4905,-0.0389,0.6971,9.7818,0.0116,-0.0034,-0.2454,0.0454,-0.0353,0.0055,12.23,-0.6,-39.68,278.64,-3.99,0.29,48.8439,2.353333,95.7,NaN,,12.497,,0 / 19,,777,2022-01-10 19:18:44:540
-0.1143,0.7995,9.7493,-0.0389,0.6971,9.7818,0.0116,-0.0034,-0.2454,0.0561,0.0712,0.0214,12.3,-0.67,-39.6,278.64,-3.99,0.29,48.8439,2.353333,95.7,NaN,,12.497,,0 / 19,,780,2022-01-10 19:18:44:543
-0.1143,0.7995,9.7493,-0.0389,0.6971,9.7818,0.0116,-0.0034,-0.2454,0.0561,0.0712,0.0214,12.3,-0.67,-39.6,278.64,-3.99,0.29,48.8439,2.353333,95.7,NaN,,12.497,,0 / 19,,786,2022-01-10 19:18:44:549
-0.1143,0.7995,9.7493,-0.0389,0.6971,9.7818,-0.065,0.0897,0.0229,0.0561,0.0712,0.0214,12.3,-0.67,-39.6,278.64,-3.99,0.29,48.8439,2.353333,95.7,NaN,,12.497,,0 / 19,,790,2022-01-10 19:18:44:553
-0.1143,0.7995,9.7493,-0.0389,0.6971,9.7818,-0.065,0.0897,0.0229,0.0561,0.0712,0.0214,12.3,-0.67,-39.6,278.64,-3.99,0.29,48.8439,2.353333,95.7,NaN,,12.497,,0 / 19,,796,2022-01-10 19:18:44:559
-0.1143,0.7995,9.7493,-0.0721,0.724,9.7796,-0.065,0.0897,0.0229,0.0561,0.0712,0.0214,12.3,-0.67,-39.6,278.64,-3.99,0.29,48.8439,2.353333,95.7,NaN,,12.497,,0 / 19,,801,2022-01-10 19:18:44:564
0.0224,0.8788,9.8378,-0.0721,0.724,9.7796,-0.065,0.0897,0.0229,0.0561,0.0712,0.0214,12.3,-0.67,-39.6,278.64,-3.99,0.29,48.8439,2.353333,95.7,NaN,,12.497,,0 / 19,,806,2022-01-10 19:18:44:569
0.0224,0.8788,9.8378,-0.0721,0.724,9.7796,-0.065,0.0897,0.0229,0.1349,0.2577,0.08,12.68,-0.83,-39.45,278.45,-4.23,0.42,48.8439,2.353333,95.7,NaN,,12.497,,0 / 19,,812,2022-01-10 19:18:44:575
0.0224,0.8788,9.8378,-0.0721,0.724,9.7796,-0.065,0.0897,0.0229,0.1349,0.2577,0.08,12.68,-0.83,-39.45,278.45,-4.23,0.42,48.8439,2.353333,95.7,NaN,,12.497,,0 / 19,,816,2022-01-10 19:18:44:579
0.0224,0.8788,9.8378,-0.0721,0.724,9.7796,-0.065,0.0897,0.0229,0.1349,0.2577,0.08,12.68,-0.83,-39.45,278.45,-4.23,0.42,48.8439,2.353333,95.7,NaN,,12.497,,0 / 19,,820,2022-01-10 19:18:44:583
0.0224,0.8788,9.8378,-0.0721,0.724,9.7796,0.2251,0.1746,0.2087,0.1349,0.2577,0.08,12.68,-0.83,-39.45,278.45,-4.23,0.42,48.8439,2.353333,95.7,NaN,,12.497,,0 / 19,,826,2022-01-10 19:18:44:589
0.0224,0.8788,9.8378,-0.1298,0.7734,9.7752,0.2251,0.1746,0.2087,0.1349,0.2577,0.08,12.68,-0.83,-39.45,278.45,-4.23,0.42,48.8439,2.353333,95.7,NaN,,12.497,,0 / 19,,830,2022-01-10 19:18:44:593
-0.0135,1.0893,9.8258,-0.1298,0.7734,9.7752,0.2251,0.1746,0.2087,0.1349,0.2577,0.08,12.68,-0.83,-39.45,278.45,-4.23,0.42,48.8439,2.353333,95.7,NaN,,12.497,,0 / 19,,836,2022-01-10 19:18:44:599
-0.0135,1.0893,9.8258,-0.1298,0.7734,9.7752,0.2251,0.1746,0.2087,0.104,0.0542,-0.002,12.75,-0.67,-39.6,278.45,-4.23,0.42,48.8439,2.353333,95.7,NaN,,12.497,,0 / 19,,841,2022-01-10 19:18:44:604
-0.0135,1.0893,9.8258,-0.1298,0.7734,9.7752,0.2251,0.1746,0.2087,0.104,0.0542,-0.002,12.75,-0.67,-39.6,278.45,-4.23,0.42,48.8439,2.353333,95.7,NaN,,12.497,,0 / 19,,845,2022-01-10 19:18:44:608
-0.0135,1.0893,9.8258,-0.1298,0.7734,9.7752,0.2251,0.1746,0.2087,0.104,0.0542,-0.002,12.75,-0.67,-39.6,278.45,-4.23,0.42,48.8439,2.353333,95.7,NaN,,12.497,,0 / 19,,850,2022-01-10 19:18:44:613
-0.0135,1.0893,9.8258,-0.1298,0.7734,9.7752,0.2251,0.1746,0.2087,0.104,0.0542,-0.002,12.75,-0.67,-39.6,278.45,-4.23,0.42,48.8439,2.353333,95.7,NaN,,12.497,,0 / 19,,856,2022-01-10 19:18:44:619
-0.3344,1.4536,10.7578,-0.1329,0.8072,9.7725,-0.1591,0.4725,0.4506,0.104,0.0542,-0.002,12.75,-0.67,-39.6,278.45,-4.23,0.42,48.8439,2.353333,95.7,NaN,,12.497,,0 / 19,,860,2022-01-10 19:18:44:623
-0.3344,1.4536,10.7578,-0.1329,0.8072,9.7725,-0.1591,0.4725,0.4506,0.104,0.0542,-0.002,12.75,-0.67,-39.6,278.45,-4.23,0.42,48.8439,2.353333,95.7,NaN,,12.497,,0 / 19,,865,2022-01-10 19:18:44:628
-0.3344,1.4536,10.7578,-0.1329,0.8072,9.7725,-0.1591,0.4725,0.4506,0.0177,-0.2057,0.0577,12.75,-0.67,-39.6,278.45,-4.23,0.42,48.8439,2.353333,95.7,NaN,,12.497,,0 / 19,,871,2022-01-10 19:18:44:634
-0.3344,1.4536,10.7578,-0.1329,0.8072,9.7725,-0.1591,0.4725,0.4506,0.0177,-0.2057,0.0577,12.75,-0.67,-39.6,278.45,-4.23,0.42,48.8439,2.353333,95.7,NaN,,12.497,,0 / 19,,876,2022-01-10 19:18:44:639
-0.3344,1.4536,10.7578,-0.1329,0.8072,9.7725,-0.1591,0.4725,0.4506,0.0177,-0.2057,0.0577,12.98,-0.6,-39.07,280.13,-4.72,0.78,48.8439,2.353333,95.7,NaN,,12.497,,0 / 19,,881,2022-01-10 19:18:44:644
-0.3344,1.4536,10.7578,-0.0849,0.8437,9.7699,-0.1591,0.4725,0.4506,0.0177,-0.2057,0.0577,12.98,-0.6,-39.07,280.13,-4.72,0.78,48.8439,2.353333,95.7,NaN,,12.497,,0 / 19,,886,2022-01-10 19:18:44:649
0.166,1.7363,11.7422,-0.0849,0.8437,9.7699,0.0905,0.8741,1.7622,0.0177,-0.2057,0.0577,12.98,-0.6,-39.07,280.13,-4.72,0.78,48.8439,2.353333,95.7,NaN,,12.497,,0 / 19,,891,2022-01-10 19:18:44:654
0.166,1.7363,11.7422,-0.0849,0.8437,9.7699,0.0905,0.8741,1.7622,0.0177,-0.2057,0.0577,12.98,-0.6,-39.07,280.13,-4.72,0.78,48.8439,2.353333,95.7,NaN,,12.497,,0 / 19,,895,2022-01-10 19:18:44:658
0.166,1.7363,11.7422,-0.0849,0.8437,9.7699,0.0905,0.8741,1.7622,0.2499,-0.1865,0.0076,12.98,-0.6,-39.07,280.13,-4.72,0.78,48.8439,2.353333,95.7,NaN,,12.497,,0 / 19,,900,2022-01-10 19:18:44:663
0.166,1.7363,11.7422,-0.0849,0.8437,9.7699,0.0905,0.8741,1.7622,0.2499,-0.1865,0.0076,12.98,-0.6,-39.07,280.13,-4.72,0.78,48.8439,2.353333,95.7,NaN,,12.497,,0 / 19,,906,2022-01-10 19:18:44:669
0.166,1.7363,11.7422,-0.0849,0.8437,9.7699,0.0905,0.8741,1.7622,0.2499,-0.1865,0.0076,13.05,-0.45,-38.93,280.13,-4.72,0.78,48.8439,2.353333,95.7,NaN,,12.497,,0 / 19,,910,2022-01-10 19:18:44:673
0.166,1.7363,11.7422,-0.0111,0.952,9.7603,0.0905,0.8741,1.7622,0.2499,-0.1865,0.0076,13.05,-0.45,-38.93,280.13,-4.72,0.78,48.8439,2.353333,95.7,NaN,,12.497,,0 / 19,,916,2022-01-10 19:18:44:679
0.384,2.1434,13.0406,-0.0111,0.952,9.7603,0.0905,0.8741,1.7622,0.2499,-0.1865,0.0076,13.05,-0.45,-38.93,280.13,-4.72,0.78,48.8439,2.353333,95.7,NaN,,12.497,,0 / 19,,921,2022-01-10 19:18:44:684
0.384,2.1434,13.0406,-0.0111,0.952,9.7603,0.4484,0.996,3.0144,0.2499,-0.1865,0.0076,13.05,-0.45,-38.93,280.13,-4.72,0.78,48.8439,2.353333,95.7,NaN,,12.497,,0 / 19,,925,2022-01-10 19:18:44:688
0.384,2.1434,13.0406,-0.0111,0.952,9.7603,0.4484,0.996,3.0144,0.7699,-0.0917,-0.1374,13.05,-0.45,-38.93,280.13,-4.72,0.78,48.8439,2.353333,95.7,NaN,,12.497,,0 / 19,,930,2022-01-10 19:18:44:693
0.384,2.1434,13.0406,-0.0111,0.952,9.7603,0.4484,0.996,3.0144,0.7699,-0.0917,-0.1374,13.05,-0.45,-38.93,280.13,-4.72,0.78,48.8439,2.353333,95.7,NaN,,12.497,,0 / 19,,936,2022-01-10 19:18:44:699
0.384,2.1434,13.0406,-0.0111,0.952,9.7603,0.4484,0.996,3.0144,0.7699,-0.0917,-0.1374,12.75,-0.97,-39.75,282.57,-5.57,0.07,48.8439,2.353333,95.7,NaN,,12.497,,0 / 19,,941,2022-01-10 19:18:44:704
-0.0111,2.4957,13.5724,0.0117,1.1779,9.7356,0.4484,0.996,3.0144,0.7699,-0.0917,-0.1374,12.75,-0.97,-39.75,282.57,-5.57,0.07,48.8439,2.353333,95.7,NaN,,12.497,,0 / 19,,946,2022-01-10 19:18:44:709
-0.0111,2.4957,13.5724,0.0117,1.1779,9.7356,0.4484,0.996,3.0144,0.7699,-0.0917,-0.1374,12.75,-0.97,-39.75,282.57,-5.57,0.07,48.8439,2.353333,95.7,NaN,,12.497,,0 / 19,,950,2022-01-10 19:18:44:713
-0.0111,2.4957,13.5724,0.0117,1.1779,9.7356,-0.0771,1.2666,3.7231,0.7699,-0.0917,-0.1374,12.75,-0.97,-39.75,282.57,-5.57,0.07,48.8439,2.353333,95.7,NaN,,12.497,,0 / 19,,956,2022-01-10 19:18:44:719
-0.0111,2.4957,13.5724,0.0117,1.1779,9.7356,-0.0771,1.2666,3.7231,1.2876,-0.0225,-0.114,12.75,-0.97,-39.75,282.57,-5.57,0.07,48.8439,2.353333,95.7,NaN,,12.497,,0 / 19,,960,2022-01-10 19:18:44:723
-0.0111,2.4957,13.5724,0.0117,1.1779,9.7356,-0.0771,1.2666,3.7231,1.2876,-0.0225,-0.114,12.75,-0.97,-39.75,282.57,-5.57,0.07,48.8439,2.353333,95.7,NaN,,12.497,,0 / 19,,966,2022-01-10 19:18:44:729
-0.0111,2.4957,13.5724,0.0117,1.1779,9.7356,-0.0771,1.2666,3.7231,1.2876,-0.0225,-0.114,12.75,-0.97,-39.75,282.57,-5.57,0.07,48.8439,2.353333,95.7,NaN,,12.497,,0 / 19,,970,2022-01-10 19:18:44:733
-0.0709,2.7879,13.7952,0.0172,1.5562,9.6824,-0.0771,1.2666,3.7231,1.2876,-0.0225,-0.114,12.75,-0.97,-39.75,282.57,-5.57,0.07,48.8439,2.353333,95.7,NaN,,12.497,,0 / 19,,975,2022-01-10 19:18:44:738
-0.0709,2.7879,13.7952,0.0172,1.5562,9.6824,-0.0771,1.2666,3.7231,1.2876,-0.0225,-0.114,12.75,-1.88,-40.05,282.57,-5.57,0.07,48.8439,2.353333,95.7,NaN,,12.497,,0 / 19,,980,2022-01-10 19:18:44:743
-0.0709,2.7879,13.7952,0.0172,1.5562,9.6824,-0.0771,1.2666,3.7231,1.2876,-0.0225,-0.114,12.75,-1.88,-40.05,282.57,-5.57,0.07,48.8439,2.353333,95.7,NaN,,12.497,,0 / 19,,986,2022-01-10 19:18:44:749
-0.0709,2.7879,13.7952,0.0172,1.5562,9.6824,-0.0619,1.0933,4.2053,1.7094,-0.2313,-0.0403,12.75,-1.88,-40.05,282.57,-5.57,0.07,48.8439,2.353333,95.7,NaN,,12.497,,0 / 19,,990,2022-01-10 19:18:44:753
-0.0709,2.7879,13.7952,0.0172,1.5562,9.6824,-0.0619,1.0933,4.2053,1.7094,-0.2313,-0.0403,12.75,-1.88,-40.05,282.57,-5.57,0.07,48.8439,2.353333,95.7,NaN,,12.497,,0 / 19,,995,2022-01-10 19:18:44:758
0.3888,2.7736,14.6743,0.0172,1.5562,9.6824,-0.0619,1.0933,4.2053,1.7094,-0.2313,-0.0403,12.75,-1.88,-40.05,282.57,-5.57,0.07,48.8439,2.353333,95.7,NaN,,12.497,,0 / 19,,1000,2022-01-10 19:18:44:763
0.3888,2.7736,14.6743,0.0172,1.5562,9.6824,-0.0619,1.0933,4.2053,1.7094,-0.2313,-0.0403,12.75,-1.88,-40.05,282.57,-5.57,0.07,48.8439,2.353333,95.7,NaN,,12.497,,0 / 19,,1006,2022-01-10 19:18:44:769
0.3888,2.7736,14.6743,0.074,2.0576,9.5881,-0.0619,1.0933,4.2053,1.7094,-0.2313,-0.0403,12.9,-3.3,-39.75,292.23,-12.11,-0.44,48.8439,2.353333,95.7,NaN,,12.497,,0 / 19,,1011,2022-01-10 19:18:44:774
0.3888,2.7736,14.6743,0.074,2.0576,9.5881,-0.0619,1.0933,4.2053,1.7094,-0.2313,-0.0403,12.9,-3.3,-39.75,292.23,-12.11,-0.44,48.8439,2.353333,95.7,NaN,,12.497,,0 / 19,,1015,2022-01-10 19:18:44:778
0.3888,2.7736,14.6743,0.074,2.0576,9.5881,0.4366,0.5264,4.6158,1.7094,-0.2313,-0.0403,12.9,-3.3,-39.75,292.23,-12.11,-0.44,48.8439,2.353333,95.7,NaN,,12.497,,0 / 19,,1021,2022-01-10 19:18:44:784
0.5279,2.7855,14.0348,0.074,2.0576,9.5881,0.4366,0.5264,4.6158,2.3731,-0.2174,-0.1129,12.9,-3.3,-39.75,292.23,-12.11,-0.44,48.8439,2.353333,95.7,NaN,,12.497,,0 / 19,,1025,2022-01-10 19:18:44:788
0.5279,2.7855,14.0348,0.074,2.0576,9.5881,0.4366,0.5264,4.6158,2.3731,-0.2174,-0.1129,12.9,-3.3,-39.75,292.23,-12.11,-0.44,48.8439,2.353333,95.7,NaN,,12.497,,0 / 19,,1031,2022-01-10 19:18:44:794
0.5279,2.7855,14.0348,0.074,2.0576,9.5881,0.4366,0.5264,4.6158,2.3731,-0.2174,-0.1129,12.9,-3.3,-39.75,292.23,-12.11,-0.44,48.8439,2.353333,95.7,NaN,,12.497,,0 / 19,,1037,2022-01-10 19:18:44:800
0.5279,2.7855,14.0348,0.1286,2.7313,9.4177,0.4366,0.5264,4.6158,2.3731,-0.2174,-0.1129,13.05,-5.25,-39.6,292.23,-12.11,-0.44,48.8439,2.353333,95.7,NaN,,12.497,,0 / 19,,1040,2022-01-10 19:18:44:803
0.5279,2.7855,14.0348,0.1286,2.7313,9.4177,0.4366,0.5264,4.6158,2.3731,-0.2174,-0.1129,13.05,-5.25,-39.6,292.23,-12.11,-0.44,48.8439,2.353333,95.7,NaN,,12.497,,0 / 19,,1046,2022-01-10 19:18:44:809
0.4582,2.9435,13.867,0.1286,2.7313,9.4177,0.3266,-0.2446,4.4012,2.3731,-0.2174,-0.1129,13.05,-5.25,-39.6,292.23,-12.11,-0.44,48.8439,2.353333,95.7,NaN,,12.497,,0 / 19,,1050,2022-01-10 19:18:44:813
0.4582,2.9435,13.867,0.1286,2.7313,9.4177,0.3266,-0.2446,4.4012,3.139,0.0563,-0.1917,13.05,-5.25,-39.6,292.23,-12.11,-0.44,48.8439,2.353333,95.7,NaN,,12.497,,0 / 19,,1055,2022-01-10 19:18:44:818
0.4582,2.9435,13.867,0.1286,2.7313,9.4177,0.3266,-0.2446,4.4012,3.139,0.0563,-0.1917,13.05,-5.25,-39.6,292.23,-12.11,-0.44,48.8439,2.353333,95.7,NaN,,12.497,,0 / 19,,1060,2022-01-10 19:18:44:823
0.4582,2.9435,13.867,0.1286,2.7313,9.4177,0.3266,-0.2446,4.4012,3.139,0.0563,-0.1917,13.05,-5.25,-39.6,292.23,-12.11,-0.44,48.8439,2.353333,95.7,NaN,,12.497,,0 / 19,,1067,2022-01-10 19:18:44:830
0.4582,2.9435,13.867,0.1099,3.5781,9.1299,0.3266,-0.2446,4.4012,3.139,0.0563,-0.1917,13.05,-5.25,-39.6,292.23,-12.11,-0.44,48.8439,2.353333,95.7,NaN,,12.497,,0 / 19,,1071,2022-01-10 19:18:44:834
0.1205,3.2142,12.6335,0.1099,3.5781,9.1299,0.3266,-0.2446,4.4012,3.139,0.0563,-0.1917,13.05,-5.25,-39.6,292.23,-12.11,-0.44,48.8439,2.353333,95.7,NaN,,12.497,,0 / 19,,1077,2022-01-10 19:18:44:840
0.1205,3.2142,12.6335,0.1099,3.5781,9.1299,0.1526,-0.8376,3.5901,3.139,0.0563,-0.1917,13.58,-8.92,-38.7,291.8,-21.4,-0.69,48.8439,2.353333,95.7,NaN,,12.497,,0 / 19,,1080,2022-01-10 19:18:44:843
0.1205,3.2142,12.6335,0.1099,3.5781,9.1299,0.1526,-0.8376,3.5901,3.7802,0.2704,-0.2226,13.58,-8.92,-38.7,291.8,-21.4,-0.69,48.8439,2.353333,95.7,NaN,,12.497,,0 / 19,,1086,2022-01-10 19:18:44:849
0.1205,3.2142,12.6335,0.1099,3.5781,9.1299,0.1526,-0.8376,3.5901,3.7802,0.2704,-0.2226,13.58,-8.92,-38.7,291.8,-21.4,-0.69,48.8439,2.353333,95.7,NaN,,12.497,,0 / 19,,1091,2022-01-10 19:18:44:854
0.1205,3.2142,12.6335,0.1099,3.5781,9.1299,0.1526,-0.8376,3.5901,3.7802,0.2704,-0.2226,13.58,-8.92,-38.7,291.8,-21.4,-0.69,48.8439,2.353333,95.7,NaN,,12.497,,0 / 19,,1096,2022-01-10 19:18:44:859
0.1205,3.2142,12.6335,0.0138,4.5721,8.6756,0.1526,-0.8376,3.5901,3.7802,0.2704,-0.2226,13.58,-8.92,-38.7,291.8,-21.4,-0.69,48.8439,2.353333,95.7,NaN,,12.497,,0 / 19,,1100,2022-01-10 19:18:44:863
-0.615,3.722,11.1218,0.0138,4.5721,8.6756,0.1526,-0.8376,3.5901,3.7802,0.2704,-0.2226,13.58,-8.92,-38.7,291.8,-21.4,-0.69,48.8439,2.353333,95.7,NaN,,12.497,,0 / 19,,1106,2022-01-10 19:18:44:869
-0.615,3.722,11.1218,0.0138,4.5721,8.6756,-0.5666,-1.3456,2.4311,3.7802,0.2704,-0.2226,14.4,-12.6,-36.98,291.8,-21.4,-0.69,48.8439,2.353333,95.7,NaN,,12.497,,0 / 19,,1110,2022-01-10 19:18:44:873
-0.615,3.722,11.1218,0.0138,4.5721,8.6756,-0.5666,-1.3456,2.4311,4.0604,0.1884,-0.0597,14.4,-12.6,-36.98,291.8,-21.4,-0.69,48.8439,2.353333,95.7,NaN,,12.497,,0 / 19,,1115,2022-01-10 19:18:44:878
-0.615,3.722,11.1218,0.0138,4.5721,8.6756,-0.5666,-1.3456,2.4311,4.0604,0.1884,-0.0597,14.4,-12.6,-36.98,291.8,-21.4,-0.69,48.8439,2.353333,95.7,NaN,,12.497,,0 / 19,,1121,2022-01-10 19:18:44:884
-0.615,3.722,11.1218,-0.0424,5.418,8.174,-0.5666,-1.3456,2.4311,4.0604,0.1884,-0.0597,14.4,-12.6,-36.98,291.8,-21.4,-0.69,48.8439,2.353333,95.7,NaN,,12.497,,0 / 19,,1127,2022-01-10 19:18:44:890
-0.615,3.722,11.1218,-0.0424,5.418,8.174,-0.5666,-1.3456,2.4311,4.0604,0.1884,-0.0597,14.4,-12.6,-36.98,291.8,-21.4,-0.69,48.8439,2.353333,95.7,NaN,,12.497,,0 / 19,,1132,2022-01-10 19:18:44:895
-0.4711,3.6718,9.4953,-0.0424,5.418,8.174,-0.5666,-1.3456,2.4311,4.0604,0.1884,-0.0597,14.4,-12.6,-36.98,291.8,-21.4,-0.69,48.8439,2.353333,95.7,NaN,,12.497,,0 / 19,,1136,2022-01-10 19:18:44:899
-0.4711,3.6718,9.4953,-0.0424,5.418,8.174,-0.412,-2.4148,1.4923,4.0604,0.1884,-0.0597,14.4,-12.6,-36.98,291.8,-21.4,-0.69,48.8439,2.353333,95.7,NaN,,12.497,,0 / 19,,1140,2022-01-10 19:18:44:903
-0.4711,3.6718,9.4953,-0.0424,5.418,8.174,-0.412,-2.4148,1.4923,4.3214,0.279,0.0481,14.4,-12.6,-36.98,291.8,-21.4,-0.69,48.8439,2.353333,95.7,NaN,,12.497,,0 / 19,,1147,2022-01-10 19:18:44:910
-0.4711,3.6718,9.4953,-0.0424,5.418,8.174,-0.412,-2.4148,1.4923,4.3214,0.279,0.0481,15.83,-17.93,-33.98,283.59,-33.54,0.3,48.8439,2.353333,95.7,NaN,,12.497,,0 / 19,,1151,2022-01-10 19:18:44:914
-0.4711,3.6718,9.4953,-0.0941,6.4155,7.4164,-0.412,-2.4148,1.4923,4.3214,0.279,0.0481,15.83,-17.93,-33.98,283.59,-33.54,0.3,48.8439,2.353333,95.7,NaN,,12.497,,0 / 19,,1156,2022-01-10 19:18:44:919
-0.3129,3.9544,7.4064,-0.0941,6.4155,7.4164,-0.412,-2.4148,1.4923,4.3214,0.279,0.0481,15.83,-17.93,-33.98,283.59,-33.54,0.3,48.8439,2.353333,95.7,NaN,,12.497,,0 / 19,,1161,2022-01-10 19:18:44:924
-0.3129,3.9544,7.4064,-0.0941,6.4155,7.4164,-0.412,-2.4148,1.4923,4.3214,0.279,0.0481,15.83,-17.93,-33.98,283.59,-33.54,0.3,48.8439,2.353333,95.7,NaN,,12.497,,0 / 19,,1166,2022-01-10 19:18:44:929
-0.3129,3.9544,7.4064,-0.0941,6.4155,7.4164,-0.1846,-3.0889,-0.1013,4.3214,0.279,0.0481,15.83,-17.93,-33.98,283.59,-33.54,0.3,48.8439,2.353333,95.7,NaN,,12.497,,0 / 19,,1171,2022-01-10 19:18:44:934
-0.3129,3.9544,7.4064,-0.0941,6.4155,7.4164,-0.1846,-3.0889,-0.1013,4.3214,0.279,0.0481,15.83,-17.93,-33.98,283.59,-33.54,0.3,48.8439,2.353333,95.7,NaN,,12.497,,0 / 19,,1175,2022-01-10 19:18:44:938
-0.3129,3.9544,7.4064,-0.0941,6.4155,7.4164,-0.1846,-3.0889,-0.1013,4.0849,0.2545,0.1056,16.5,-22.05,-30.97,283.59,-33.54,0.3,48.8439,2.353333,95.7,NaN,,12.497,,0 / 19,,1182,2022-01-10 19:18:44:945
-0.3129,3.9544,7.4064,-0.1345,7.2995,6.5475,-0.1846,-3.0889,-0.1013,4.0849,0.2545,0.1056,16.5,-22.05,-30.97,283.59,-33.54,0.3,48.8439,2.353333,95.7,NaN,,12.497,,0 / 19,,1186,2022-01-10 19:18:44:949
-0.3224,4.3519,6.7262,-0.1345,7.2995,6.5475,-0.1846,-3.0889,-0.1013,4.0849,0.2545,0.1056,16.5,-22.05,-30.97,283.59,-33.54,0.3,48.8439,2.353333,95.7,NaN,,12.497,,0 / 19,,1191,2022-01-10 19:18:44:954
-0.3224,4.3519,6.7262,-0.1345,7.2995,6.5475,-0.1846,-3.0889,-0.1013,4.0849,0.2545,0.1056,16.5,-22.05,-30.97,283.59,-33.54,0.3,48.8439,2.353333,95.7,NaN,,12.497,,0 / 19,,1196,2022-01-10 19:18:44:959
-0.3224,4.3519,6.7262,-0.1345,7.2995,6.5475,-0.0505,-3.6353,0.5344,4.0849,0.2545,0.1056,16.5,-22.05,-30.97,283.59,-33.54,0.3,48.8439,2.353333,95.7,NaN,,12.497,,0 / 19,,1202,2022-01-10 19:18:44:965
-0.3224,4.3519,6.7262,-0.1345,7.2995,6.5475,-0.0505,-3.6353,0.5344,4.0849,0.2545,0.1056,16.5,-22.05,-30.97,283.59,-33.54,0.3,48.8439,2.353333,95.7,NaN,,12.497,,0 / 19,,1205,2022-01-10 19:18:44:968
-0.3224,4.3519,6.7262,-0.1345,7.2995,6.5475,-0.0505,-3.6353,0.5344,3.9635,0.296,0.162,17.03,-26.63,-27.22,278.04,-48.1,1.18,48.8439,2.353333,95.7,NaN,,12.497,,0 / 19,,1211,2022-01-10 19:18:44:974
-0.3224,4.3519,6.7262,-0.1515,8.0253,5.6339,-0.0505,-3.6353,0.5344,3.9635,0.296,0.162,17.03,-26.63,-27.22,278.04,-48.1,1.18,48.8439,2.353333,95.7,NaN,,12.497,,0 / 19,,1217,2022-01-10 19:18:44:980
0.0511,4.721,6.8842,-0.1515,8.0253,5.6339,-0.0505,-3.6353,0.5344,3.9635,0.296,0.162,17.03,-26.63,-27.22,278.04,-48.1,1.18,48.8439,2.353333,95.7,NaN,,12.497,,0 / 19,,1221,2022-01-10 19:18:44:984
0.0511,4.721,6.8842,-0.1515,8.0253,5.6339,-0.0505,-3.6353,0.5344,3.9635,0.296,0.162,17.03,-26.63,-27.22,278.04,-48.1,1.18,48.8439,2.353333,95.7,NaN,,12.497,,0 / 19,,1226,2022-01-10 19:18:44:989
0.0511,4.721,6.8842,-0.1515,8.0253,5.6339,0.116,-3.7812,0.9167,3.9635,0.296,0.162,17.03,-26.63,-27.22,278.04,-48.1,1.18,48.8439,2.353333,95.7,NaN,,12.497,,0 / 19,,1231,2022-01-10 19:18:44:994
0.0511,4.721,6.8842,-0.1515,8.0253,5.6339,0.116,-3.7812,0.9167,3.9635,0.296,0.162,17.03,-26.63,-27.22,278.04,-48.1,1.18,48.8439,2.353333,95.7,NaN,,12.497,,0 / 19,,1236,2022-01-10 19:18:44:999
0.0511,4.721,6.8842,-0.1515,8.0253,5.6339,0.116,-3.7812,0.9167,3.9773,0.4142,0.1194,17.55,-30.0,-23.47,278.04,-48.1,1.18,48.8439,2.353333,95.7,NaN,,12.497,,0 / 19,,1241,2022-01-10 19:18:45:004
-0.3754,4.8144,4.1366,-0.2009,8.6502,4.6157,0.116,-3.7812,0.9167,3.9773,0.4142,0.1194,17.55,-30.0,-23.47,278.04,-48.1,1.18,48.8439,2.353333,95.7,NaN,,12.497,,0 / 19,,1245,2022-01-10 19:18:45:008
-0.3754,4.8144,4.1366,-0.2009,8.6502,4.6157,0.116,-3.7812,0.9167,3.9773,0.4142,0.1194,17.55,-30.0,-23.47,278.04,-48.1,1.18,48.8439,2.353333,95.7,NaN,,12.497,,0 / 19,,1250,2022-01-10 19:18:45:013
-0.3754,4.8144,4.1366,-0.2009,8.6502,4.6157,0.116,-3.7812,0.9167,3.9773,0.4142,0.1194,17.55,-30.0,-23.47,278.04,-48.1,1.18,48.8439,2.353333,95.7,NaN,,12.497,,0 / 19,,1256,2022-01-10 19:18:45:019
-0.3754,4.8144,4.1366,-0.2009,8.6502,4.6157,0.116,-3.7812,0.9167,3.9773,0.4142,0.1194,17.55,-30.0,-23.47,278.04,-48.1,1.18,48.8439,2.353333,95.7,NaN,,12.497,,0 / 19,,1262,2022-01-10 19:18:45:025
-0.3754,4.8144,4.1366,-0.2009,8.6502,4.6157,-0.0013,-4.1865,-0.2368,3.9773,0.4142,0.1194,17.55,-30.0,-23.47,278.04,-48.1,1.18,48.8439,2.353333,95.7,NaN,,12.497,,0 / 19,,1265,2022-01-10 19:18:45:028
-0.3754,4.8144,4.1366,-0.2009,8.6502,4.6157,-0.0013,-4.1865,-0.2368,3.9773,0.4142,0.1194,17.55,-30.0,-23.47,278.04,-48.1,1.18,48.8439,2.353333,95.7,NaN,,12.497,,0 / 19,,1271,2022-01-10 19:18:45:034
0.4319,5.1138,4.6445,-0.1538,9.0342,3.8119,-0.0013,-4.1865,-0.2368,3.5182,-0.2707,0.0971,17.55,-30.0,-23.47,278.04,-48.1,1.18,48.8439,2.353333,95.7,NaN,,12.497,,0 / 19,,1276,2022-01-10 19:18:45:039
0.4319,5.1138,4.6445,-0.1538,9.0342,3.8119,-0.0013,-4.1865,-0.2368,3.5182,-0.2707,0.0971,18.08,-32.85,-17.78,284.3,-67.11,2.31,48.8439,2.353333,95.7,NaN,,12.497,,0 / 19,,1281,2022-01-10 19:18:45:044
0.4319,5.1138,4.6445,-0.1538,9.0342,3.8119,-0.0013,-4.1865,-0.2368,3.5182,-0.2707,0.0971,18.08,-32.85,-17.78,284.3,-67.11,2.31,48.8439,2.353333,95.7,NaN,,12.497,,0 / 19,,1286,2022-01-10 19:18:45:049
0.4319,5.1138,4.6445,-0.1538,9.0342,3.8119,-0.0013,-4.1865,-0.2368,3.5182,-0.2707,0.0971,18.08,-32.85,-17.78,284.3,-67.11,2.31,48.8439,2.353333,95.7,NaN,,12.497,,0 / 19,,1293,2022-01-10 19:18:45:056
0.4319,5.1138,4.6445,-0.1538,9.0342,3.8119,-0.0013,-4.1865,-0.2368,3.5182,-0.2707,0.0971,18.08,-32.85,-17.78,284.3,-67.11,2.31,48.8439,2.353333,95.7,NaN,,12.497,,0 / 19,,1296,2022-01-10 19:18:45:059
0.4319,5.1138,4.6445,-0.1538,9.0342,3.8119,0.3848,-3.8095,0.0912,3.5182,-0.2707,0.0971,18.08,-32.85,-17.78,284.3,-67.11,2.31,48.8439,2.353333,95.7,NaN,,12.497,,0 / 19,,1301,2022-01-10 19:18:45:064
0.0488,5.6384,1.7435,-0.1466,9.3969,2.8012,0.3848,-3.8095,0.0912,3.5182,-0.2707,0.0971,18.08,-32.85,-17.78,284.3,-67.11,2.31,48.8439,2.353333,95.7,NaN,,12.497,,0 / 19,,1306,2022-01-10 19:18:45:069
0.0488,5.6384,1.7435,-0.1466,9.3969,2.8012,0.3848,-3.8095,0.0912,3.5246,0.0925,-0.0905,18.9,-34.28,-12.52,284.3,-67.11,2.31,48.8439,2.353333,95.7,NaN,,12.497,,0 / 19,,1311,2022-01-10 19:18:45:074
0.0488,5.6384,1.7435,-0.1466,9.3969,2.8012,0.3848,-3.8095,0.0912,3.5246,0.0925,-0.0905,18.9,-34.28,-12.52,284.3,-67.11,2.31,48.8439,2.353333,95.7,NaN,,12.497,,0 / 19,,1316,2022-01-10 19:18:45:079
0.0488,5.6384,1.7435,-0.1466,9.3969,2.8012,0.3848,-3.8095,0.0912,3.5246,0.0925,-0.0905,18.9,-34.28,-12.52,284.3,-67.11,2.31,48.8439,2.353333,95.7,NaN,,12.497,,0 / 19,,1321,2022-01-10 19:18:45:084
0.0488,5.6384,1.7435,-0.1466,9.3969,2.8012,0.3848,-3.8095,0.0912,3.5246,0.0925,-0.0905,18.9,-34.28,-12.52,284.3,-67.11,2.31,48.8439,2.353333,95.7,NaN,,12.497,,0 / 19,,1325,2022-01-10 19:18:45:088
-0.047,6.1702,1.7315,-0.1466,9.3969,2.8012,0.0482,-3.6564,-0.4691,3.5246,0.0925,-0.0905,18.9,-34.28,-12.52,284.3,-67.11,2.31,48.8439,2.353333,95.7,NaN,,12.497,,0 / 19,,1332,2022-01-10 19:18:45:095
-0.047,6.1702,1.7315,-0.1766,9.6306,1.8413,0.0482,-3.6564,-0.4691,3.0644,0.0212,-0.1406,18.9,-34.28,-12.52,284.3,-67.11,2.31,48.8439,2.353333,95.7,NaN,,12.497,,0 / 19,,1336,2022-01-10 19:18:45:099
-0.047,6.1702,1.7315,-0.1766,9.6306,1.8413,0.0482,-3.6564,-0.4691,3.0644,0.0212,-0.1406,18.98,-35.03,-7.73,279.39,-79.13,5.48,48.8439,2.353333,95.7,NaN,,12.497,,0 / 19,,1341,2022-01-10 19:18:45:104
-0.047,6.1702,1.7315,-0.1766,9.6306,1.8413,0.0482,-3.6564,-0.4691,3.0644,0.0212,-0.1406,18.98,-35.03,-7.73,279.39,-79.13,5.48,48.8439,2.353333,95.7,NaN,,12.497,,0 / 19,,1345,2022-01-10 19:18:45:108
-0.047,6.1702,1.7315,-0.1766,9.6306,1.8413,0.0482,-3.6564,-0.4691,3.0644,0.0212,-0.1406,18.98,-35.03,-7.73,279.39,-79.13,5.48,48.8439,2.353333,95.7,NaN,,12.497,,0 / 19,,1351,2022-01-10 19:18:45:114
-0.3538,6.5055,-0.2351,-0.1766,9.6306,1.8413,0.0482,-3.6564,-0.4691,3.0644,0.0212,-0.1406,18.98,-35.03,-7.73,279.39,-79.13,5.48,48.8439,2.353333,95.7,NaN,,12.497,,0 / 19,,1356,2022-01-10 19:18:45:119
-0.3538,6.5055,-0.2351,-0.1766,9.6306,1.8413,-0.0457,-3.4374,-1.0929,3.0644,0.0212,-0.1406,18.98,-35.03,-7.73,279.39,-79.13,5.48,48.8439,2.353333,95.7,NaN,,12.497,,0 / 19,,1360,2022-01-10 19:18:45:123
-0.3538,6.5055,-0.2351,-0.2178,9.7554,0.9774,-0.0457,-3.4374,-1.0929,3.0644,0.0212,-0.1406,18.98,-35.03,-7.73,279.39,-79.13,5.48,48.8439,2.353333,95.7,NaN,,12.497,,0 / 19,,1366,2022-01-10 19:18:45:129
-0.3538,6.5055,-0.2351,-0.2178,9.7554,0.9774,-0.0457,-3.4374,-1.0929,2.5116,-0.2292,-0.1268,18.98,-35.03,-7.73,279.39,-79.13,5.48,48.8439,2.353333,95.7,NaN,,12.497,,0 / 19,,1371,2022-01-10 19:18:45:134
-0.3538,6.5055,-0.2351,-0.2178,9.7554,0.9774,-0.0457,-3.4374,-1.0929,2.5116,-0.2292,-0.1268,18.98,-35.03,-7.73,279.39,-79.13,5.48,48.8439,2.353333,95.7,NaN,,12.497,,0 / 19,,1375,2022-01-10 19:18:45:138
-0.3538,6.5055,-0.2351,-0.2178,9.7554,0.9774,-0.0457,-3.4374,-1.0929,2.5116,-0.2292,-0.1268,18.98,-36.45,-1.28,279.39,-79.13,5.48,48.8439,2.353333,95.7,NaN,,12.497,,0 / 19,,1381,2022-01-10 19:18:45:144
-0.6075,6.8148,-1.5168,-0.2178,9.7554,0.9774,-0.0457,-3.4374,-1.0929,2.5116,-0.2292,-0.1268,18.98,-36.45,-1.28,279.39,-79.13,5.48,48.8439,2.353333,95.7,NaN,,12.497,,0 / 19,,1385,2022-01-10 19:18:45:148
-0.6075,6.8148,-1.5168,-0.2407,9.7962,0.3841,-0.359,-3.1068,-1.9035,2.5116,-0.2292,-0.1268,18.98,-36.45,-1.28,279.39,-79.13,5.48,48.8439,2.353333,95.7,NaN,,12.497,,0 / 19,,1392,2022-01-10 19:18:45:155
-0.6075,6.8148,-1.5168,-0.2407,9.7962,0.3841,-0.359,-3.1068,-1.9035,2.5116,-0.2292,-0.1268,18.98,-36.45,-1.28,279.39,-79.13,5.48,48.8439,2.353333,95.7,NaN,,12.497,,0 / 19,,1396,2022-01-10 19:18:45:159
-0.6075,6.8148,-1.5168,-0.2407,9.7962,0.3841,-0.359,-3.1068,-1.9035,1.8863,-0.0981,-0.035,18.98,-36.45,-1.28,279.39,-79.13,5.48,48.8439,2.353333,95.7,NaN,,12.497,,0 / 19,,1400,2022-01-10 19:18:45:163
-0.6075,6.8148,-1.5168,-0.2407,9.7962,0.3841,-0.359,-3.1068,-1.9035,1.8863,-0.0981,-0.035,18.98,-36.45,-1.28,279.39,-79.13,5.48,48.8439,2.353333,95.7,NaN,,12.497,,0 / 19,,1407,2022-01-10 19:18:45:170
-0.6748,6.92,-2.2881,-0.2407,9.7962,0.3841,-0.359,-3.1068,-1.9035,1.8863,-0.0981,-0.035,18.98,-36.45,-1.28,279.39,-79.13,5.48,48.8439,2.353333,95.7,NaN,,12.497,,0 / 19,,1411,2022-01-10 19:18:45:174
-0.6748,6.92,-2.2881,-0.2407,9.7962,0.3841,-0.359,-3.1068,-1.9035,1.8863,-0.0981,-0.035,18.98,-36.45,-1.28,279.39,-79.13,5.48,48.8439,2.353333,95.7,NaN,,12.497,,0 / 19,,1415,2022-01-10 19:18:45:178
-0.6748,6.92,-2.2881,-0.2552,9.8019,-0.1703,-0.5473,-2.9388,-2.4118,1.8863,-0.0981,-0.035,19.35,-36.3,3.3,288.36,-87.35,32.07,48.8439,2.353333,95.7,NaN,,12.497,,0 / 19,,1421,2022-01-10 19:18:45:184
-0.6748,6.92,-2.2881,-0.2552,9.8019,-0.1703,-0.5473,-2.9388,-2.4118,1.8863,-0.0981,-0.035,19.35,-36.3,3.3,288.36,-87.35,32.07,48.8439,2.353333,95.7,NaN,,12.497,,0 / 19,,1426,2022-01-10 19:18:45:189
-0.6748,6.92,-2.2881,-0.2552,9.8019,-0.1703,-0.5473,-2.9388,-2.4118,1.163,-0.3602,0.0779,19.35,-36.3,3.3,288.36,-87.35,32.07,48.8439,2.353333,95.7,NaN,,12.497,,0 / 19,,1430,2022-01-10 19:18:45:193
-0.682,6.8602,-4.0104,-0.2552,9.8019,-0.1703,-0.5473,-2.9388,-2.4118,1.163,-0.3602,0.0779,19.35,-36.3,3.3,288.36,-87.35,32.07,48.8439,2.353333,95.7,NaN,,12.497,,0 / 19,,1436,2022-01-10 19:18:45:199
-0.682,6.8602,-4.0104,-0.2552,9.8019,-0.1703,-0.5473,-2.9388,-2.4118,1.163,-0.3602,0.0779,19.35,-36.3,3.3,288.36,-87.35,32.07,48.8439,2.353333,95.7,NaN,,12.497,,0 / 19,,1441,2022-01-10 19:18:45:204
-0.682,6.8602,-4.0104,-0.2552,9.8019,-0.1703,-0.5473,-2.9388,-2.4118,1.163,-0.3602,0.0779,19.35,-36.3,3.3,288.36,-87.35,32.07,48.8439,2.353333,95.7,NaN,,12.497,,0 / 19,,1446,2022-01-10 19:18:45:209
-0.682,6.8602,-4.0104,-0.2324,9.7909,-0.5049,-0.184,-3.0657,-3.5694,1.163,-0.3602,0.0779,19.35,-36.3,3.3,288.36,-87.35,32.07,48.8439,2.353333,95.7,NaN,,12.497,,0 / 19,,1451,2022-01-10 19:18:45:214
-0.682,6.8602,-4.0104,-0.2324,9.7909,-0.5049,-0.184,-3.0657,-3.5694,1.163,-0.3602,0.0779,19.35,-36.3,3.3,288.36,-87.35,32.07,48.8439,2.353333,95.7,NaN,,12.497,,0 / 19,,1455,2022-01-10 19:18:45:218
0.3649,6.5991,-3.227,-0.2324,9.7909,-0.5049,-0.184,-3.0657,-3.5694,0.2702,-0.1471,0.1652,19.58,-35.78,5.4,288.36,-87.35,32.07,48.8439,2.353333,95.7,NaN,,12.497,,0 / 19,,1461,2022-01-10 19:18:45:224
0.3649,6.5991,-3.227,-0.2324,9.7909,-0.5049,-0.184,-3.0657,-3.5694,0.2702,-0.1471,0.1652,19.58,-35.78,5.4,288.36,-87.35,32.07,48.8439,2.353333,95.7,NaN,,12.497,,0 / 19,,1466,2022-01-10 19:18:45:229
0.3649,6.5991,-3.227,-0.2324,9.7909,-0.5049,-0.184,-3.0657,-3.5694,0.2702,-0.1471,0.1652,19.58,-35.78,5.4,288.36,-87.35,32.07,48.8439,2.353333,95.7,NaN,,12.497,,0 / 19,,1470,2022-01-10 19:18:45:233
0.3649,6.5991,-3.227,-0.2324,9.7909,-0.5049,-0.184,-3.0657,-3.5694,0.2702,-0.1471,0.1652,19.58,-35.78,5.4,288.36,-87.35,32.07,48.8439,2.353333,95.7,NaN,,12.497,,0 / 19,,1476,2022-01-10 19:18:45:239
0.3649,6.5991,-3.227,-0.1895,9.7857,-0.6127,0.5437,-3.0367,-1.9614,0.2702,-0.1471,0.1652,19.58,-35.78,5.4,288.36,-87.35,32.07,48.8439,2.353333,95.7,NaN,,12.497,,0 / 19,,1481,2022-01-10 19:18:45:244
0.3649,6.5991,-3.227,-0.1895,9.7857,-0.6127,0.5437,-3.0367,-1.9614,0.2702,-0.1471,0.1652,19.58,-35.78,5.4,288.36,-87.35,32.07,48.8439,2.353333,95.7,NaN,,12.497,,0 / 19,,1486,2022-01-10 19:18:45:249
0.0631,7.5978,-2.6952,-0.1895,9.7857,-0.6127,0.5437,-3.0367,-1.9614,0.0848,0.1873,0.0257,19.28,-35.7,6.15,61.3,-86.25,162.81,48.8439,2.353333,95.7,NaN,,12.497,,0 / 19,,1493,2022-01-10 19:18:45:256
0.0631,7.5978,-2.6952,-0.1895,9.7857,-0.6127,0.5437,-3.0367,-1.9614,0.0848,0.1873,0.0257,19.28,-35.7,6.15,61.3,-86.25,162.81,48.8439,2.353333,95.7,NaN,,12.497,,0 / 19,,1496,2022-01-10 19:18:45:259
0.0631,7.5978,-2.6952,-0.1895,9.7857,-0.6127,0.5437,-3.0367,-1.9614,0.0848,0.1873,0.0257,19.28,-35.7,6.15,61.3,-86.25,162.81,48.8439,2.353333,95.7,NaN,,12.497,,0 / 19,,1500,2022-01-10 19:18:45:263
0.0631,7.5978,-2.6952,-0.1895,9.7857,-0.6127,0.5437,-3.0367,-1.9614,0.0848,0.1873,0.0257,19.28,-35.7,6.15,61.3,-86.25,162.81,48.8439,2.353333,95.7,NaN,,12.497,,0 / 19,,1507,2022-01-10 19:18:45:270
0.0631,7.5978,-2.6952,-0.1775,9.7837,-0.6463,0.2558,-2.033,-2.5274,0.0848,0.1873,0.0257,19.28,-35.7,6.15,61.3,-86.25,162.81,48.8439,2.353333,95.7,NaN,,12.497,,0 / 19,,1511,2022-01-10 19:18:45:274
0.0631,7.5978,-2.6952,-0.1775,9.7837,-0.6463,0.2558,-2.033,-2.5274,0.0848,0.1873,0.0257,19.28,-35.7,6.15,61.3,-86.25,162.81,48.8439,2.353333,95.7,NaN,,12.497,,0 / 19,,1515,2022-01-10 19:18:45:278
0.099,8.307,-2.9037,-0.1775,9.7837,-0.6463,0.2558,-2.033,-2.5274,0.0848,0.1873,0.0257,19.28,-35.7,6.15,61.3,-86.25,162.81,48.8439,2.353333,95.7,NaN,,12.497,,0 / 19,,1521,2022-01-10 19:18:45:284
0.099,8.307,-2.9037,-0.1775,9.7837,-0.6463,0.2558,-2.033,-2.5274,-0.3487,0.0095,-0.082,19.28,-35.7,6.15,61.3,-86.25,162.81,48.8439,2.353333,95.7,NaN,,12.497,,0 / 19,,1526,2022-01-10 19:18:45:289
0.099,8.307,-2.9037,-0.1775,9.7837,-0.6463,0.2558,-2.033,-2.5274,-0.3487,0.0095,-0.082,19.13,-35.93,6.9,61.3,-86.25,162.81,48.8439,2.353333,95.7,NaN,,12.497,,0 / 19,,1531,2022-01-10 19:18:45:294
0.099,8.307,-2.9037,-0.1775,9.7837,-0.6463,0.2558,-2.033,-2.5274,-0.3487,0.0095,-0.082,19.13,-35.93,6.9,61.3,-86.25,162.81,48.8439,2.353333,95.7,NaN,,12.497,,0 / 19,,1536,2022-01-10 19:18:45:299
0.099,8.307,-2.9037,-0.201,9.7885,-0.5616,-0.0454,-0.9528,-1.7328,-0.3487,0.0095,-0.082,19.13,-35.93,6.9,61.3,-86.25,162.81,48.8439,2.353333,95.7,NaN,,12.497,,0 / 19,,1540,2022-01-10 19:18:45:303
-0.495,9.2363,-1.9409,-0.201,9.7885,-0.5616,-0.0454,-0.9528,-1.7328,-0.3487,0.0095,-0.082,19.13,-35.93,6.9,61.3,-86.25,162.81,48.8439,2.353333,95.7,NaN,,12.497,,0 / 19,,1546,2022-01-10 19:18:45:309
-0.495,9.2363,-1.9409,-0.201,9.7885,-0.5616,-0.0454,-0.9528,-1.7328,-0.3487,0.0095,-0.082,19.13,-35.93,6.9,61.3,-86.25,162.81,48.8439,2.353333,95.7,NaN,,12.497,,0 / 19,,1550,2022-01-10 19:18:45:313
-0.495,9.2363,-1.9409,-0.201,9.7885,-0.5616,-0.0454,-0.9528,-1.7328,-0.549,-0.014,-0.1587,19.13,-35.93,6.9,61.3,-86.25,162.81,48.8439,2.353333,95.7,NaN,,12.497,,0 / 19,,1556,2022-01-10 19:18:45:319
-0.495,9.2363,-1.9409,-0.201,9.7885,-0.5616,-0.0454,-0.9528,-1.7328,-0.549,-0.014,-0.1587,19.13,-35.62,6.3,58.19,-86.51,160.31,48.8439,2.353333,95.7,NaN,,12.497,,0 / 19,,1561,2022-01-10 19:18:45:324
-0.495,9.2363,-1.9409,-0.201,9.7885,-0.5616,-0.0454,-0.9528,-1.7328,-0.549,-0.014,-0.1587,19.13,-35.62,6.3,58.19,-86.51,160.31,48.8439,2.353333,95.7,NaN,,12.497,,0 / 19,,1565,2022-01-10 19:18:45:328
-0.495,9.2363,-1.9409,-0.201,9.7885,-0.5616,-0.0454,-0.9528,-1.7328,-0.549,-0.014,-0.1587,19.13,-35.62,6.3,58.19,-86.51,160.31,48.8439,2.353333,95.7,NaN,,12.497,,0 / 19,,1571,2022-01-10 19:18:45:334
-0.7872,9.967,-1.0137,-0.2501,9.7949,-0.4092,-0.4608,0.0378,-0.7587,-0.549,-0.014,-0.1587,19.13,-35.62,6.3,58.19,-86.51,160.31,48.8439,2.353333,95.7,NaN,,12.497,,0 / 19,,1576,2022-01-10 19:18:45:339
-0.7872,9.967,-1.0137,-0.2501,9.7949,-0.4092,-0.4608,0.0378,-0.7587,-0.549,-0.014,-0.1587,19.13,-35.62,6.3,58.19,-86.51,160.31,48.8439,2.353333,95.7,NaN,,12.497,,0 / 19,,1581,2022-01-10 19:18:45:344
-0.7872,9.967,-1.0137,-0.2501,9.7949,-0.4092,-0.4608,0.0378,-0.7587,-0.5256,-0.0917,-0.1087,19.13,-35.62,6.3,58.19,-86.51,160.31,48.8439,2.353333,95.7,NaN,,12.497,,0 / 19,,1586,2022-01-10 19:18:45:349
-0.7872,9.967,-1.0137,-0.2501,9.7949,-0.4092,-0.4608,0.0378,-0.7587,-0.5256,-0.0917,-0.1087,18.83,-35.48,6.23,58.19,-86.51,160.31,48.8439,2.353333,95.7,NaN,,12.497,,0 / 19,,1590,2022-01-10 19:18:45:353
-0.7872,9.967,-1.0137,-0.2501,9.7949,-0.4092,-0.4608,0.0378,-0.7587,-0.5256,-0.0917,-0.1087,18.83,-35.48,6.23,58.19,-86.51,160.31,48.8439,2.353333,95.7,NaN,,12.497,,0 / 19,,1596,2022-01-10 19:18:45:359
-0.4998,10.5299,-0.6233,-0.2501,9.7949,-0.4092,-0.4608,0.0378,-0.7587,-0.5256,-0.0917,-0.1087,18.83,-35.48,6.23,58.19,-86.51,160.31,48.8439,2.353333,95.7,NaN,,12.497,,0 / 19,,1601,2022-01-10 19:18:45:364
-0.4998,10.5299,-0.6233,-0.2851,9.7992,-0.2557,-0.2603,0.6113,-0.4312,-0.5256,-0.0917,-0.1087,18.83,-35.48,6.23,58.19,-86.51,160.31,48.8439,2.353333,95.7,NaN,,12.497,,0 / 19,,1606,2022-01-10 19:18:45:369
-0.4998,10.5299,-0.6233,-0.2851,9.7992,-0.2557,-0.2603,0.6113,-0.4312,-0.5256,-0.0917,-0.1087,18.83,-35.48,6.23,58.19,-86.51,160.31,48.8439,2.353333,95.7,NaN,,12.497,,0 / 19,,1611,2022-01-10 19:18:45:374
-0.4998,10.5299,-0.6233,-0.2851,9.7992,-0.2557,-0.2603,0.6113,-0.4312,-0.5043,-0.0108,-0.066,18.83,-35.48,6.23,58.19,-86.51,160.31,48.8439,2.353333,95.7,NaN,,12.497,,0 / 19,,1616,2022-01-10 19:18:45:379
-0.4998,10.5299,-0.6233,-0.2851,9.7992,-0.2557,-0.2603,0.6113,-0.4312,-0.5043,-0.0108,-0.066,18.83,-35.48,6.23,58.19,-86.51,160.31,48.8439,2.353333,95.7,NaN,,12.497,,0 / 19,,1621,2022-01-10 19:18:45:384
-0.2889,10.5634,-0.0075,-0.2851,9.7992,-0.2557,-0.2603,0.6113,-0.4312,-0.5043,-0.0108,-0.066,18.83,-35.48,6.23,58.19,-86.51,160.31,48.8439,2.353333,95.7,NaN,,12.497,,0 / 19,,1626,2022-01-10 19:18:45:389
-0.2889,10.5634,-0.0075,-0.2851,9.7992,-0.2557,-0.2603,0.6113,-0.4312,-0.5043,-0.0108,-0.066,18.68,-35.48,5.93,26.12,-87.76,131.89,48.8439,2.353333,95.7,NaN,,12.497,,0 / 19,,1630,2022-01-10 19:18:45:393
-0.2889,10.5634,-0.0075,-0.3049,9.8013,-0.1055,0.0388,0.7169,0.1487,-0.5043,-0.0108,-0.066,18.68,-35.48,5.93,26.12,-87.76,131.89,48.8439,2.353333,95.7,NaN,,12.497,,0 / 19,,1636,2022-01-10 19:18:45:399
-0.2889,10.5634,-0.0075,-0.3049,9.8013,-0.1055,0.0388,0.7169,0.1487,-0.5043,-0.0108,-0.066,18.68,-35.48,5.93,26.12,-87.76,131.89,48.8439,2.353333,95.7,NaN,,12.497,,0 / 19,,1641,2022-01-10 19:18:45:404
-0.2889,10.5634,-0.0075,-0.3049,9.8013,-0.1055,0.0388,0.7169,0.1487,-0.4819,-0.1706,-0.0842,18.68,-35.48,5.93,26.12,-87.76,131.89,48.8439,2.353333,95.7,NaN,,12.497,,0 / 19,,1646,2022-01-10 19:18:45:409
-0.2889,10.5634,-0.0075,-0.3049,9.8013,-0.1055,0.0388,0.7169,0.1487,-0.4819,-0.1706,-0.0842,18.68,-35.48,5.93,26.12,-87.76,131.89,48.8439,2.353333,95.7,NaN,,12.497,,0 / 19,,1651,2022-01-10 19:18:45:414
-0.5166,10.4366,0.9027,-0.3049,9.8013,-0.1055,0.0388,0.7169,0.1487,-0.4819,-0.1706,-0.0842,18.68,-35.48,5.93,26.12,-87.76,131.89,48.8439,2.353333,95.7,NaN,,12.497,,0 / 19,,1656,2022-01-10 19:18:45:419
-0.5166,10.4366,0.9027,-0.324,9.8013,0.02,0.0388,0.7169,0.1487,-0.4819,-0.1706,-0.0842,18.75,-36.0,5.1,26.12,-87.76,131.89,48.8439,2.353333,95.7,NaN,,12.497,,0 / 19,,1661,2022-01-10 19:18:45:424
-0.5166,10.4366,0.9027,-0.324,9.8013,0.02,-0.1833,0.5611,0.9799,-0.4819,-0.1706,-0.0842,18.75,-36.0,5.1,26.12,-87.76,131.89,48.8439,2.353333,95.7,NaN,,12.497,,0 / 19,,1667,2022-01-10 19:18:45:430
-0.5166,10.4366,0.9027,-0.324,9.8013,0.02,-0.1833,0.5611,0.9799,-0.4819,-0.1706,-0.0842,18.75,-36.0,5.1,26.12,-87.76,131.89,48.8439,2.353333,95.7,NaN,,12.497,,0 / 19,,1671,2022-01-10 19:18:45:434
-0.5166,10.4366,0.9027,-0.324,9.8013,0.02,-0.1833,0.5611,0.9799,-0.2752,-0.2142,-0.019,18.75,-36.0,5.1,26.12,-87.76,131.89,48.8439,2.353333,95.7,NaN,,12.497,,0 / 19,,1675,2022-01-10 19:18:45:438
-0.4567,10.4246,1.1877,-0.324,9.8013,0.02,-0.1833,0.5611,0.9799,-0.2752,-0.2142,-0.019,18.75,-36.0,5.1,26.12,-87.76,131.89,48.8439,2.353333,95.7,NaN,,12.497,,0 / 19,,1680,2022-01-10 19:18:45:443
-0.4567,10.4246,1.1877,-0.324,9.8013,0.02,-0.1833,0.5611,0.9799,-0.2752,-0.2142,-0.019,18.75,-36.0,5.1,26.12,-87.76,131.89,48.8439,2.353333,95.7,NaN,,12.497,,0 / 19,,1686,2022-01-10 19:18:45:449
-0.4567,10.4246,1.1877,-0.3328,9.8003,0.1212,-0.1317,0.5272,1.0444,-0.2752,-0.2142,-0.019,19.05,-36.15,4.05,325.94,-87.93,69.99,48.8439,2.353333,95.7,NaN,,12.497,,0 / 19,,1691,2022-01-10 19:18:45:454
-0.4567,10.4246,1.1877,-0.3328,9.8003,0.1212,-0.1317,0.5272,1.0444,-0.2752,-0.2142,-0.019,19.05,-36.15,4.05,325.94,-87.93,69.99,48.8439,2.353333,95.7,NaN,,12.497,,0 / 19,,1696,2022-01-10 19:18:45:459
-0.4567,10.4246,1.1877,-0.3328,9.8003,0.1212,-0.1317,0.5272,1.0444,-0.2752,-0.2142,-0.019,19.05,-36.15,4.05,325.94,-87.93,69.99,48.8439,2.353333,95.7,NaN,,12.497,,0 / 19,,1701,2022-01-10 19:18:45:464
-0.4567,10.4246,1.1877,-0.3328,9.8003,0.1212,-0.1317,0.5272,1.0444,-0.2752,-0.2142,-0.019,19.05,-36.15,4.05,325.94,-87.93,69.99,48.8439,2.353333,95.7,NaN,,12.497,,0 / 19,,1706,2022-01-10 19:18:45:469
-0.4998,10.1324,0.644,-0.3328,9.8003,0.1212,-0.1317,0.5272,1.0444,-0.1154,-0.1727,0.0342,19.05,-36.15,4.05,325.94,-87.93,69.99,48.8439,2.353333,95.7,NaN,,12.497,,0 / 19,,1711,2022-01-10 19:18:45:474
-0.4998,10.1324,0.644,-0.3328,9.8003,0.1212,-0.1317,0.5272,1.0444,-0.1154,-0.1727,0.0342,19.05,-36.15,4.05,325.94,-87.93,69.99,48.8439,2.353333,95.7,NaN,,12.497,,0 / 19,,1715,2022-01-10 19:18:45:478
-0.4998,10.1324,0.644,-0.3252,9.7998,0.1666,-0.1441,0.3035,0.5088,-0.1154,-0.1727,0.0342,19.05,-36.15,4.05,325.94,-87.93,69.99,48.8439,2.353333,95.7,NaN,,12.497,,0 / 19,,1721,2022-01-10 19:18:45:484
-0.4998,10.1324,0.644,-0.3252,9.7998,0.1666,-0.1441,0.3035,0.5088,-0.1154,-0.1727,0.0342,19.05,-36.15,4.05,325.94,-87.93,69.99,48.8439,2.353333,95.7,NaN,,12.497,,0 / 19,,1726,2022-01-10 19:18:45:489
-0.4998,10.1324,0.644,-0.3252,9.7998,0.1666,-0.1441,0.3035,0.5088,-0.1154,-0.1727,0.0342,18.75,-35.78,3.53,325.94,-87.93,69.99,48.8439,2.353333,95.7,NaN,,12.497,,0 / 19,,1733,2022-01-10 19:18:45:496
-0.4998,10.1324,0.644,-0.3252,9.7998,0.1666,-0.1441,0.3035,0.5088,-0.1154,-0.1727,0.0342,18.75,-35.78,3.53,325.94,-87.93,69.99,48.8439,2.353333,95.7,NaN,,12.497,,0 / 19,,1735,2022-01-10 19:18:45:498
-0.2243,9.6963,0.4956,-0.3252,9.7998,0.1666,-0.1441,0.3035,0.5088,-0.0292,-0.0214,0.0832,18.75,-35.78,3.53,325.94,-87.93,69.99,48.8439,2.353333,95.7,NaN,,12.497,,0 / 19,,1741,2022-01-10 19:18:45:504
-0.2243,9.6963,0.4956,-0.3252,9.7998,0.1666,-0.1441,0.3035,0.5088,-0.0292,-0.0214,0.0832,18.75,-35.78,3.53,325.94,-87.93,69.99,48.8439,2.353333,95.7,NaN,,12.497,,0 / 19,,1745,2022-01-10 19:18:45:508
-0.2243,9.6963,0.4956,-0.3009,9.8004,0.1805,0.1214,-0.1703,0.3307,-0.0292,-0.0214,0.0832,18.75,-35.78,3.53,325.94,-87.93,69.99,48.8439,2.353333,95.7,NaN,,12.497,,0 / 19,,1751,2022-01-10 19:18:45:514
-0.2243,9.6963,0.4956,-0.3009,9.8004,0.1805,0.1214,-0.1703,0.3307,-0.0292,-0.0214,0.0832,18.9,-35.62,2.85,317.46,-87.95,59.05,48.8439,2.353333,95.7,NaN,,12.497,,0 / 19,,1756,2022-01-10 19:18:45:519
-0.3009,9.4878,0.4618,-0.3009,9.8004,0.1805,0.1214,-0.1703,0.3307,-0.0292,-0.0214,0.0832,18.9,-35.62,2.85,317.46,-87.95,59.05,48.8439,2.353333,95.7,NaN,,12.497,,0 / 19,,1761,2022-01-10 19:18:45:524
-0.3009,9.4878,0.4618,-0.3009,9.8004,0.1805,0.1214,-0.1703,0.3307,-0.0292,-0.0214,0.0832,18.9,-35.62,2.85,317.46,-87.95,59.05,48.8439,2.353333,95.7,NaN,,12.497,,0 / 19,,1766,2022-01-10 19:18:45:529
-0.3009,9.4878,0.4618,-0.3009,9.8004,0.1805,0.1214,-0.1703,0.3307,-0.0292,-0.0214,0.0832,18.9,-35.62,2.85,317.46,-87.95,59.05,48.8439,2.353333,95.7,NaN,,12.497,,0 / 19,,1771,2022-01-10 19:18:45:534
-0.3009,9.4878,0.4618,-0.3009,9.8004,0.1805,0.1214,-0.1703,0.3307,-0.0206,-0.1429,0.0204,18.9,-35.62,2.85,317.46,-87.95,59.05,48.8439,2.353333,95.7,NaN,,12.497,,0 / 19,,1776,2022-01-10 19:18:45:539
-0.3009,9.4878,0.4618,-0.2916,9.8005,0.191,-0.0653,-0.2891,0.3562,-0.0206,-0.1429,0.0204,18.9,-35.62,2.85,317.46,-87.95,59.05,48.8439,2.353333,95.7,NaN,,12.497,,0 / 19,,1781,2022-01-10 19:18:45:544
-0.3009,9.4878,0.4618,-0.2916,9.8005,0.191,-0.0653,-0.2891,0.3562,-0.0206,-0.1429,0.0204,18.9,-35.62,2.85,317.46,-87.95,59.05,48.8439,2.353333,95.7,NaN,,12.497,,0 / 19,,1786,2022-01-10 19:18:45:549
-0.3009,9.4878,0.4618,-0.2916,9.8005,0.191,-0.0653,-0.2891,0.3562,-0.0206,-0.1429,0.0204,18.9,-35.62,2.85,317.46,-87.95,59.05,48.8439,2.353333,95.7,NaN,,12.497,,0 / 19,,1791,2022-01-10 19:18:45:554
-0.3778,9.5647,0.5363,-0.2916,9.8005,0.191,-0.0653,-0.2891,0.3562,-0.0206,-0.1429,0.0204,19.28,-35.62,3.08,317.46,-87.95,59.05,48.8439,2.353333,95.7,NaN,,12.497,,0 / 19,,1796,2022-01-10 19:18:45:559
-0.3778,9.5647,0.5363,-0.2916,9.8005,0.191,-0.0653,-0.2891,0.3562,-0.0206,-0.1429,0.0204,19.28,-35.62,3.08,317.46,-87.95,59.05,48.8439,2.353333,95.7,NaN,,12.497,,0 / 19,,1801,2022-01-10 19:18:45:564
-0.3778,9.5647,0.5363,-0.2916,9.8005,0.191,-0.0653,-0.2891,0.3562,-0.0206,-0.1429,0.0204,19.28,-35.62,3.08,317.46,-87.95,59.05,48.8439,2.353333,95.7,NaN,,12.497,,0 / 19,,1806,2022-01-10 19:18:45:569
-0.3778,9.5647,0.5363,-0.2844,9.8009,0.1802,-0.0978,-0.4015,0.1766,0.0752,0.0478,0.0406,19.28,-35.62,3.08,317.46,-87.95,59.05,48.8439,2.353333,95.7,NaN,,12.497,,0 / 19,,1812,2022-01-10 19:18:45:575
-0.3778,9.5647,0.5363,-0.2844,9.8009,0.1802,-0.0978,-0.4015,0.1766,0.0752,0.0478,0.0406,19.28,-35.62,3.08,317.46,-87.95,59.05,48.8439,2.353333,95.7,NaN,,12.497,,0 / 19,,1816,2022-01-10 19:18:45:579
-0.1956,9.6652,0.2417,-0.2844,9.8009,0.1802,-0.0978,-0.4015,0.1766,0.0752,0.0478,0.0406,19.28,-35.62,3.08,317.46,-87.95,59.05,48.8439,2.353333,95.7,NaN,,12.497,,0 / 19,,1822,2022-01-10 19:18:45:585
-0.1956,9.6652,0.2417,-0.2844,9.8009,0.1802,-0.0978,-0.4015,0.1766,0.0752,0.0478,0.0406,19.13,-36.07,3.53,313.07,-88.03,57.64,48.8439,2.353333,95.7,NaN,,12.497,,0 / 19,,1827,2022-01-10 19:18:45:590
-0.1956,9.6652,0.2417,-0.2844,9.8009,0.1802,-0.0978,-0.4015,0.1766,0.0752,0.0478,0.0406,19.13,-36.07,3.53,313.07,-88.03,57.64,48.8439,2.353333,95.7,NaN,,12.497,,0 / 19,,1831,2022-01-10 19:18:45:594
-0.1956,9.6652,0.2417,-0.2791,9.8013,0.1625,-0.0978,-0.4015,0.1766,0.0752,0.0478,0.0406,19.13,-36.07,3.53,313.07,-88.03,57.64,48.8439,2.353333,95.7,NaN,,12.497,,0 / 19,,1835,2022-01-10 19:18:45:598
-0.1956,9.6652,0.2417,-0.2791,9.8013,0.1625,0.0497,-0.2869,0.0231,0.023,0.0169,-0.0169,19.13,-36.07,3.53,313.07,-88.03,57.64,48.8439,2.353333,95.7,NaN,,12.497,,0 / 19,,1841,2022-01-10 19:18:45:604
-0.2698,9.6245,0.256,-0.2791,9.8013,0.1625,0.0497,-0.2869,0.0231,0.023,0.0169,-0.0169,19.13,-36.07,3.53,313.07,-88.03,57.64,48.8439,2.353333,95.7,NaN,,12.497,,0 / 19,,1845,2022-01-10 19:18:45:608
-0.2698,9.6245,0.256,-0.2791,9.8013,0.1625,0.0497,-0.2869,0.0231,0.023,0.0169,-0.0169,19.13,-36.07,3.53,313.07,-88.03,57.64,48.8439,2.353333,95.7,NaN,,12.497,,0 / 19,,1851,2022-01-10 19:18:45:614
-0.2698,9.6245,0.256,-0.2791,9.8013,0.1625,0.0497,-0.2869,0.0231,0.023,0.0169,-0.0169,19.13,-36.07,3.53,313.07,-88.03,57.64,48.8439,2.353333,95.7,NaN,,12.497,,0 / 19,,1856,2022-01-10 19:18:45:619
-0.2698,9.6245,0.256,-0.2791,9.8013,0.1625,0.0497,-0.2869,0.0231,0.023,0.0169,-0.0169,18.98,-36.07,3.3,313.07,-88.03,57.64,48.8439,2.353333,95.7,NaN,,12.497,,0 / 19,,1861,2022-01-10 19:18:45:624
-0.2698,9.6245,0.256,-0.2875,9.8011,0.1596,0.0497,-0.2869,0.0231,0.023,0.0169,-0.0169,18.98,-36.07,3.3,313.07,-88.03,57.64,48.8439,2.353333,95.7,NaN,,12.497,,0 / 19,,1865,2022-01-10 19:18:45:628
-0.2698,9.6245,0.256,-0.2875,9.8011,0.1596,0.0497,-0.2869,0.0231,0.023,0.0169,-0.0169,18.98,-36.07,3.3,313.07,-88.03,57.64,48.8439,2.353333,95.7,NaN,,12.497,,0 / 19,,1870,2022-01-10 19:18:45:633
-0.4615,9.749,0.1504,-0.2875,9.8011,0.1596,-0.1723,-0.1391,0.16,0.0294,0.0222,-0.018,18.98,-36.07,3.3,313.07,-88.03,57.64,48.8439,2.353333,95.7,NaN,,12.497,,0 / 19,,1876,2022-01-10 19:18:45:639
-0.4615,9.749,0.1504,-0.2875,9.8011,0.1596,-0.1723,-0.1391,0.16,0.0294,0.0222,-0.018,18.98,-36.07,3.3,313.07,-88.03,57.64,48.8439,2.353333,95.7,NaN,,12.497,,0 / 19,,1881,2022-01-10 19:18:45:644
-0.4615,9.749,0.1504,-0.2875,9.8011,0.1596,-0.1723,-0.1391,0.16,0.0294,0.0222,-0.018,18.98,-36.07,3.3,313.07,-88.03,57.64,48.8439,2.353333,95.7,NaN,,12.497,,0 / 19,,1885,2022-01-10 19:18:45:648
-0.4615,9.749,0.1504,-0.2875,9.8011,0.1596,-0.1723,-0.1391,0.16,0.0294,0.0222,-0.018,18.83,-36.07,3.15,319.65,-88.08,60.96,48.8439,2.353333,95.7,NaN,,12.497,,0 / 19,,1890,2022-01-10 19:18:45:653
-0.4615,9.749,0.1504,-0.2929,9.8011,0.153,-0.1723,-0.1391,0.16,0.0294,0.0222,-0.018,18.83,-36.07,3.15,319.65,-88.08,60.96,48.8439,2.353333,95.7,NaN,,12.497,,0 / 19,,1896,2022-01-10 19:18:45:659
-0.4496,9.8833,-0.1226,-0.2929,9.8011,0.153,-0.1474,0.0208,-0.2375,0.0294,0.0222,-0.018,18.83,-36.07,3.15,319.65,-88.08,60.96,48.8439,2.353333,95.7,NaN,,12.497,,0 / 19,,1902,2022-01-10 19:18:45:665
-0.4496,9.8833,-0.1226,-0.2929,9.8011,0.153,-0.1474,0.0208,-0.2375,-0.0409,9.0E-4,-0.0041,18.83,-36.07,3.15,319.65,-88.08,60.96,48.8439,2.353333,95.7,NaN,,12.497,,0 / 19,,1905,2022-01-10 19:18:45:668
-0.4496,9.8833,-0.1226,-0.2929,9.8011,0.153,-0.1474,0.0208,-0.2375,-0.0409,9.0E-4,-0.0041,18.83,-36.07,3.15,319.65,-88.08,60.96,48.8439,2.353333,95.7,NaN,,12.497,,0 / 19,,1911,2022-01-10 19:18:45:674
-0.4496,9.8833,-0.1226,-0.2929,9.8011,0.153,-0.1474,0.0208,-0.2375,-0.0409,9.0E-4,-0.0041,18.83,-36.07,3.15,319.65,-88.08,60.96,48.8439,2.353333,95.7,NaN,,12.497,,0 / 19,,1916,2022-01-10 19:18:45:679
-0.4496,9.8833,-0.1226,-0.2929,9.8011,0.153,-0.1474,0.0208,-0.2375,-0.0409,9.0E-4,-0.0041,18.83,-36.07,3.15,319.65,-88.08,60.96,48.8439,2.353333,95.7,NaN,,12.497,,0 / 19,,1920,2022-01-10 19:18:45:683
-0.4807,9.8809,0.2728,-0.2934,9.8009,0.1639,-0.1474,0.0208,-0.2375,-0.0409,9.0E-4,-0.0041,18.83,-36.07,3.15,319.65,-88.08,60.96,48.8439,2.353333,95.7,NaN,,12.497,,0 / 19,,1926,2022-01-10 19:18:45:689
-0.4807,9.8809,0.2728,-0.2934,9.8009,0.1639,-0.1242,0.0448,0.1991,-0.0409,9.0E-4,-0.0041,18.75,-35.4,3.15,319.65,-88.08,60.96,48.8439,2.353333,95.7,NaN,,12.497,,0 / 19,,1931,2022-01-10 19:18:45:694
-0.4807,9.8809,0.2728,-0.2934,9.8009,0.1639,-0.1242,0.0448,0.1991,-0.0526,0.0095,0.0236,18.75,-35.4,3.15,319.65,-88.08,60.96,48.8439,2.353333,95.7,NaN,,12.497,,0 / 19,,1936,2022-01-10 19:18:45:699
-0.4807,9.8809,0.2728,-0.2934,9.8009,0.1639,-0.1242,0.0448,0.1991,-0.0526,0.0095,0.0236,18.75,-35.4,3.15,319.65,-88.08,60.96,48.8439,2.353333,95.7,NaN,,12.497,,0 / 19,,1941,2022-01-10 19:18:45:704
-0.4807,9.8809,0.2728,-0.2934,9.8009,0.1639,-0.1242,0.0448,0.1991,-0.0526,0.0095,0.0236,18.75,-35.4,3.15,319.65,-88.08,60.96,48.8439,2.353333,95.7,NaN,,12.497,,0 / 19,,1947,2022-01-10 19:18:45:710
-0.3153,9.8761,0.347,-0.2934,9.8009,0.1639,-0.1242,0.0448,0.1991,-0.0526,0.0095,0.0236,18.75,-35.4,3.15,319.65,-88.08,60.96,48.8439,2.353333,95.7,NaN,,12.497,,0 / 19,,1951,2022-01-10 19:18:45:714
-0.3153,9.8761,0.347,-0.2864,9.8008,0.1814,-0.1242,0.0448,0.1991,-0.0526,0.0095,0.0236,18.75,-35.4,3.15,319.65,-88.08,60.96,48.8439,2.353333,95.7,NaN,,12.497,,0 / 19,,1956,2022-01-10 19:18:45:719
-0.3153,9.8761,0.347,-0.2864,9.8008,0.1814,-0.0412,0.0172,0.15,-0.0526,0.0095,0.0236,18.6,-35.55,3.9,313.06,-88.02,57.65,48.8439,2.353333,95.7,NaN,,12.497,,0 / 19,,1960,2022-01-10 19:18:45:723
-0.3153,9.8761,0.347,-0.2864,9.8008,0.1814,-0.0412,0.0172,0.15,-0.0526,0.0095,0.0236,18.6,-35.55,3.9,313.06,-88.02,57.65,48.8439,2.353333,95.7,NaN,,12.497,,0 / 19,,1965,2022-01-10 19:18:45:728
-0.3153,9.8761,0.347,-0.2864,9.8008,0.1814,-0.0412,0.0172,0.15,-0.0419,0.0393,0.0321,18.6,-35.55,3.9,313.06,-88.02,57.65,48.8439,2.353333,95.7,NaN,,12.497,,0 / 19,,1971,2022-01-10 19:18:45:734
-0.2865,9.9287,0.1576,-0.2864,9.8008,0.1814,-0.0412,0.0172,0.15,-0.0419,0.0393,0.0321,18.6,-35.55,3.9,313.06,-88.02,57.65,48.8439,2.353333,95.7,NaN,,12.497,,0 / 19,,1975,2022-01-10 19:18:45:738
-0.2865,9.9287,0.1576,-0.2805,9.8008,0.1901,-0.0412,0.0172,0.15,-0.0419,0.0393,0.0321,18.6,-35.55,3.9,313.06,-88.02,57.65,48.8439,2.353333,95.7,NaN,,12.497,,0 / 19,,1981,2022-01-10 19:18:45:744
-0.2865,9.9287,0.1576,-0.2805,9.8008,0.1901,-0.0412,0.0172,0.15,-0.0419,0.0393,0.0321,18.6,-35.55,3.9,313.06,-88.02,57.65,48.8439,2.353333,95.7,NaN,,12.497,,0 / 19,,1986,2022-01-10 19:18:45:749
-0.2865,9.9287,0.1576,-0.2805,9.8008,0.1901,-0.0412,0.0172,0.15,-0.0419,0.0393,0.0321,18.6,-35.93,3.53,313.06,-88.02,57.65,48.8439,2.353333,95.7,NaN,,12.497,,0 / 19,,1990,2022-01-10 19:18:45:753
-0.2865,9.9287,0.1576,-0.2805,9.8008,0.1901,0.092,0.1068,-0.0104,-0.0419,0.0393,0.0321,19.13,-35.93,3.53,313.06,-88.02,57.65,48.8439,2.353333,95.7,NaN,,12.497,,0 / 19,,1996,2022-01-10 19:18:45:759
-0.2865,9.9287,0.1576,-0.2805,9.8008,0.1901,0.092,0.1068,-0.0104,-0.059,0.0734,0.0332,19.13,-35.93,3.53,313.06,-88.02,57.65,48.8439,2.353333,95.7,NaN,,12.497,,0 / 19,,2001,2022-01-10 19:18:45:764
-0.1525,9.845,0.3398,-0.2805,9.8008,0.1901,0.092,0.1068,-0.0104,-0.059,0.0734,0.0332,19.13,-35.93,3.53,313.06,-88.02,57.65,48.8439,2.353333,95.7,NaN,,12.497,,0 / 19,,2006,2022-01-10 19:18:45:769
-0.1525,9.845,0.3398,-0.2696,9.8008,0.2071,0.092,0.1068,-0.0104,-0.059,0.0734,0.0332,19.13,-35.93,3.53,313.06,-88.02,57.65,48.8439,2.353333,95.7,NaN,,12.497,,0 / 19,,2012,2022-01-10 19:18:45:775
-0.1525,9.845,0.3398,-0.2696,9.8008,0.2071,0.092,0.1068,-0.0104,-0.059,0.0734,0.0332,19.13,-35.93,3.53,313.06,-88.02,57.65,48.8439,2.353333,95.7,NaN,,12.497,,0 / 19,,2016,2022-01-10 19:18:45:779
-0.1525,9.845,0.3398,-0.2696,9.8008,0.2071,0.0883,-0.0011,0.216,-0.059,0.0734,0.0332,19.13,-35.93,3.53,313.06,-88.02,57.65,48.8439,2.353333,95.7,NaN,,12.497,,0 / 19,,2021,2022-01-10 19:18:45:784
-0.1525,9.845,0.3398,-0.2696,9.8008,0.2071,0.0883,-0.0011,0.216,-0.059,0.0734,0.0332,19.13,-35.93,3.53,313.06,-88.02,57.65,48.8439,2.353333,95.7,NaN,,12.497,,0 / 19,,2025,2022-01-10 19:18:45:788
-0.1813,9.7851,0.7014,-0.2696,9.8008,0.2071,0.0883,-0.0011,0.216,0.0081,0.0862,0.0161,18.98,-35.78,3.38,310.66,-88.01,52.47,48.8439,2.353333,95.7,NaN,,12.497,,0 / 19,,2030,2022-01-10 19:18:45:793
-0.1813,9.7851,0.7014,-0.2696,9.8008,0.2071,0.0883,-0.0011,0.216,0.0081,0.0862,0.0161,18.98,-35.78,3.38,310.66,-88.01,52.47,48.8439,2.353333,95.7,NaN,,12.497,,0 / 19,,2036,2022-01-10 19:18:45:799
-0.1813,9.7851,0.7014,-0.2636,9.8008,0.2118,0.0883,-0.0011,0.216,0.0081,0.0862,0.0161,18.98,-35.78,3.38,310.66,-88.01,52.47,48.8439,2.353333,95.7,NaN,,12.497,,0 / 19,,2041,2022-01-10 19:18:45:804
-0.1813,9.7851,0.7014,-0.2636,9.8008,0.2118,0.0883,-0.0011,0.216,0.0081,0.0862,0.0161,18.98,-35.78,3.38,310.66,-88.01,52.47,48.8439,2.353333,95.7,NaN,,12.497,,0 / 19,,2046,2022-01-10 19:18:45:809
-0.1813,9.7851,0.7014,-0.2636,9.8008,0.2118,0.1537,0.0191,0.5586,0.0081,0.0862,0.0161,18.98,-35.78,3.38,310.66,-88.01,52.47,48.8439,2.353333,95.7,NaN,,12.497,,0 / 19,,2051,2022-01-10 19:18:45:814
-0.1813,9.7851,0.7014,-0.2636,9.8008,0.2118,0.1537,0.0191,0.5586,0.0081,0.0862,0.0161,18.98,-35.78,3.38,310.66,-88.01,52.47,48.8439,2.353333,95.7,NaN,,12.497,,0 / 19,,2056,2022-01-10 19:18:45:819
-0.0736,9.8091,0.5171,-0.2636,9.8008,0.2118,0.1537,0.0191,0.5586,0.1221,0.0361,-0.0201,18.98,-35.78,3.38,310.66,-88.01,52.47,48.8439,2.353333,95.7,NaN,,12.497,,0 / 19,,2061,2022-01-10 19:18:45:824
-0.0736,9.8091,0.5171,-0.2636,9.8008,0.2118,0.1537,0.0191,0.5586,0.1221,0.0361,-0.0201,18.98,-35.78,3.38,310.66,-88.01,52.47,48.8439,2.353333,95.7,NaN,,12.497,,0 / 19,,2066,2022-01-10 19:18:45:829
-0.0736,9.8091,0.5171,-0.2584,9.8012,0.1985,0.1537,0.0191,0.5586,0.1221,0.0361,-0.0201,18.6,-35.7,3.08,310.66,-88.01,52.47,48.8439,2.353333,95.7,NaN,,12.497,,0 / 19,,2071,2022-01-10 19:18:45:834
-0.0736,9.8091,0.5171,-0.2584,9.8012,0.1985,0.1537,0.0191,0.5586,0.1221,0.0361,-0.0201,18.6,-35.7,3.08,310.66,-88.01,52.47,48.8439,2.353333,95.7,NaN,,12.497,,0 / 19,,2076,2022-01-10 19:18:45:839
-0.143,9.9168,0.0811,-0.2584,9.8012,0.1985,0.1504,-0.0212,-0.0097,0.1221,0.0361,-0.0201,18.6,-35.7,3.08,310.66,-88.01,52.47,48.8439,2.353333,95.7,NaN,,12.497,,0 / 19,,2081,2022-01-10 19:18:45:844
-0.143,9.9168,0.0811,-0.2584,9.8012,0.1985,0.1504,-0.0212,-0.0097,0.1221,0.0361,-0.0201,18.6,-35.7,3.08,310.66,-88.01,52.47,48.8439,2.353333,95.7,NaN,,12.497,,0 / 19,,2086,2022-01-10 19:18:45:849
-0.143,9.9168,0.0811,-0.2584,9.8012,0.1985,0.1504,-0.0212,-0.0097,0.1221,0.0361,-0.0201,18.6,-35.7,3.08,310.66,-88.01,52.47,48.8439,2.353333,95.7,NaN,,12.497,,0 / 19,,2091,2022-01-10 19:18:45:854
-0.143,9.9168,0.0811,-0.2584,9.8012,0.1985,0.1504,-0.0212,-0.0097,0.0806,0.0041,-0.0297,18.6,-35.7,3.08,310.66,-88.01,52.47,48.8439,2.353333,95.7,NaN,,12.497,,0 / 19,,2097,2022-01-10 19:18:45:860
-0.143,9.9168,0.0811,-0.2617,9.8017,0.1688,0.1504,-0.0212,-0.0097,0.0806,0.0041,-0.0297,18.6,-35.7,3.08,310.66,-88.01,52.47,48.8439,2.353333,95.7,NaN,,12.497,,0 / 19,,2100,2022-01-10 19:18:45:863
-0.143,9.9168,0.0811,-0.2617,9.8017,0.1688,0.1504,-0.0212,-0.0097,0.0806,0.0041,-0.0297,18.6,-35.7,3.08,310.66,-88.01,52.47,48.8439,2.353333,95.7,NaN,,12.497,,0 / 19,,2106,2022-01-10 19:18:45:869
-0.2865,9.8689,0.2007,-0.2617,9.8017,0.1688,-0.0238,0.0681,0.0454,0.0806,0.0041,-0.0297,18.3,-36.0,2.85,315.17,-88.18,57.18,48.8439,2.353333,95.7,NaN,,12.497,,0 / 19,,2111,2022-01-10 19:18:45:874
-0.2865,9.8689,0.2007,-0.2617,9.8017,0.1688,-0.0238,0.0681,0.0454,0.0806,0.0041,-0.0297,18.3,-36.0,2.85,315.17,-88.18,57.18,48.8439,2.353333,95.7,NaN,,12.497,,0 / 19,,2116,2022-01-10 19:18:45:879
-0.2865,9.8689,0.2007,-0.2617,9.8017,0.1688,-0.0238,0.0681,0.0454,0.0806,0.0041,-0.0297,18.3,-36.0,2.85,315.17,-88.18,57.18,48.8439,2.353333,95.7,NaN,,12.497,,0 / 19,,2121,2022-01-10 19:18:45:884
-0.2865,9.8689,0.2007,-0.2617,9.8017,0.1688,-0.0238,0.0681,0.0454,0.0656,0.0393,0.0023,18.3,-36.0,2.85,315.17,-88.18,57.18,48.8439,2.353333,95.7,NaN,,12.497,,0 / 19,,2126,2022-01-10 19:18:45:889
-0.2865,9.8689,0.2007,-0.265,9.802,0.1477,-0.0238,0.0681,0.0454,0.0656,0.0393,0.0023,18.3,-36.0,2.85,315.17,-88.18,57.18,48.8439,2.353333,95.7,NaN,,12.497,,0 / 19,,2131,2022-01-10 19:18:45:894
-0.2865,9.8689,0.2007,-0.265,9.802,0.1477,-0.0167,-0.0224,-0.0728,0.0656,0.0393,0.0023,18.3,-36.0,2.85,315.17,-88.18,57.18,48.8439,2.353333,95.7,NaN,,12.497,,0 / 19,,2136,2022-01-10 19:18:45:899
-0.2626,9.7875,0.0763,-0.265,9.802,0.1477,-0.0167,-0.0224,-0.0728,0.0656,0.0393,0.0023,18.38,-35.7,3.38,315.17,-88.18,57.18,48.8439,2.353333,95.7,NaN,,12.497,,0 / 19,,2141,2022-01-10 19:18:45:904
-0.2626,9.7875,0.0763,-0.265,9.802,0.1477,-0.0167,-0.0224,-0.0728,0.0656,0.0393,0.0023,18.38,-35.7,3.38,315.17,-88.18,57.18,48.8439,2.353333,95.7,NaN,,12.497,,0 / 19,,2146,2022-01-10 19:18:45:909
-0.2626,9.7875,0.0763,-0.265,9.802,0.1477,-0.0167,-0.0224,-0.0728,0.0656,0.0393,0.0023,18.38,-35.7,3.38,315.17,-88.18,57.18,48.8439,2.353333,95.7,NaN,,12.497,,0 / 19,,2150,2022-01-10 19:18:45:913
-0.2626,9.7875,0.0763,-0.265,9.802,0.1477,-0.0167,-0.0224,-0.0728,0.0337,-0.0534,-0.0137,18.38,-35.7,3.38,315.17,-88.18,57.18,48.8439,2.353333,95.7,NaN,,12.497,,0 / 19,,2155,2022-01-10 19:18:45:918
-0.2626,9.7875,0.0763,-0.2645,9.8021,0.136,-0.0167,-0.0224,-0.0728,0.0337,-0.0534,-0.0137,18.38,-35.7,3.38,315.17,-88.18,57.18,48.8439,2.353333,95.7,NaN,,12.497,,0 / 19,,2160,2022-01-10 19:18:45:923
-0.2937,9.7514,0.2127,-0.2645,9.8021,0.136,0.0469,-0.1039,0.1288,0.0337,-0.0534,-0.0137,18.38,-35.7,3.38,315.17,-88.18,57.18,48.8439,2.353333,95.7,NaN,,12.497,,0 / 19,,2166,2022-01-10 19:18:45:929
-0.2937,9.7514,0.2127,-0.2645,9.8021,0.136,0.0469,-0.1039,0.1288,0.0337,-0.0534,-0.0137,18.6,-35.48,3.6,318.82,-88.26,62.78,48.8439,2.353333,95.7,NaN,,12.497,,0 / 19,,2170,2022-01-10 19:18:45:933
-0.2937,9.7514,0.2127,-0.2645,9.8021,0.136,0.0469,-0.1039,0.1288,0.0337,-0.0534,-0.0137,18.6,-35.48,3.6,318.82,-88.26,62.78,48.8439,2.353333,95.7,NaN,,12.497,,0 / 19,,2176,2022-01-10 19:18:45:939
-0.2937,9.7514,0.2127,-0.2645,9.8021,0.136,0.0469,-0.1039,0.1288,0.0337,-0.0534,-0.0137,18.6,-35.48,3.6,318.82,-88.26,62.78,48.8439,2.353333,95.7,NaN,,12.497,,0 / 19,,2181,2022-01-10 19:18:45:944
-0.2937,9.7514,0.2127,-0.2645,9.8021,0.136,0.0469,-0.1039,0.1288,0.0806,0.0403,-0.0095,18.6,-35.48,3.6,318.82,-88.26,62.78,48.8439,2.353333,95.7,NaN,,12.497,,0 / 19,,2185,2022-01-10 19:18:45:948
-0.2937,9.7514,0.2127,-0.2733,9.8021,0.1202,0.0469,-0.1039,0.1288,0.0806,0.0403,-0.0095,18.6,-35.48,3.6,318.82,-88.26,62.78,48.8439,2.353333,95.7,NaN,,12.497,,0 / 19,,2191,2022-01-10 19:18:45:954
-0.3658,9.821,-0.0051,-0.2733,9.8021,0.1202,-0.1397,0.0045,-0.0517,0.0806,0.0403,-0.0095,18.6,-35.48,3.6,318.82,-88.26,62.78,48.8439,2.353333,95.7,NaN,,12.497,,0 / 19,,2195,2022-01-10 19:18:45:958
-0.3658,9.821,-0.0051,-0.2733,9.8021,0.1202,-0.1397,0.0045,-0.0517,0.0806,0.0403,-0.0095,18.53,-35.85,3.68,318.82,-88.26,62.78,48.8439,2.353333,95.7,NaN,,12.497,,0 / 19,,2200,2022-01-10 19:18:45:963
-0.3658,9.821,-0.0051,-0.2733,9.8021,0.1202,-0.1397,0.0045,-0.0517,0.0806,0.0403,-0.0095,18.53,-35.85,3.68,318.82,-88.26,62.78,48.8439,2.353333,95.7,NaN,,12.497,,0 / 19,,2206,2022-01-10 19:18:45:969
-0.3658,9.821,-0.0051,-0.2733,9.8021,0.1202,-0.1397,0.0045,-0.0517,0.0806,0.0403,-0.0095,18.53,-35.85,3.68,318.82,-88.26,62.78,48.8439,2.353333,95.7,NaN,,12.497,,0 / 19,,2211,2022-01-10 19:18:45:974
-0.3658,9.821,-0.0051,-0.2733,9.8021,0.1202,-0.1397,0.0045,-0.0517,0.0465,0.0712,-0.0116,18.53,-35.85,3.68,318.82,-88.26,62.78,48.8439,2.353333,95.7,NaN,,12.497,,0 / 19,,2216,2022-01-10 19:18:45:979
-0.3658,9.821,-0.0051,-0.2733,9.8021,0.1202,-0.1397,0.0045,-0.0517,0.0465,0.0712,-0.0116,18.53,-35.85,3.68,318.82,-88.26,62.78,48.8439,2.353333,95.7,NaN,,12.497,,0 / 19,,2221,2022-01-10 19:18:45:984
-0.3514,9.7298,0.0667,-0.2802,9.8022,0.0952,-0.0531,-0.0715,-0.0709,0.0465,0.0712,-0.0116,18.53,-35.85,3.68,318.82,-88.26,62.78,48.8439,2.353333,95.7,NaN,,12.497,,0 / 19,,2226,2022-01-10 19:18:45:989
-0.3514,9.7298,0.0667,-0.2802,9.8022,0.0952,-0.0531,-0.0715,-0.0709,0.0465,0.0712,-0.0116,18.53,-35.85,3.68,318.82,-88.26,62.78,48.8439,2.353333,95.7,NaN,,12.497,,0 / 19,,2231,2022-01-10 19:18:45:994
-0.3514,9.7298,0.0667,-0.2802,9.8022,0.0952,-0.0531,-0.0715,-0.0709,0.0465,0.0712,-0.0116,18.53,-35.85,3.68,318.82,-88.26,62.78,48.8439,2.353333,95.7,NaN,,12.497,,0 / 19,,2236,2022-01-10 19:18:45:999
-0.3514,9.7298,0.0667,-0.2802,9.8022,0.0952,-0.0531,-0.0715,-0.0709,0.0465,0.0712,-0.0116,18.83,-35.78,3.3,330.66,-88.27,71.23,48.8439,2.353333,95.7,NaN,,12.497,,0 / 19,,2241,2022-01-10 19:18:46:004
-0.3514,9.7298,0.0667,-0.2802,9.8022,0.0952,-0.0531,-0.0715,-0.0709,0.0209,-0.0193,-0.0297,18.83,-35.78,3.3,330.66,-88.27,71.23,48.8439,2.353333,95.7,NaN,,12.497,,0 / 19,,2246,2022-01-10 19:18:46:009
-0.3514,9.7298,0.0667,-0.2802,9.8022,0.0952,-0.0531,-0.0715,-0.0709,0.0209,-0.0193,-0.0297,18.83,-35.78,3.3,330.66,-88.27,71.23,48.8439,2.353333,95.7,NaN,,12.497,,0 / 19,,2251,2022-01-10 19:18:46:014
-0.428,9.8186,0.0069,-0.288,9.8021,0.0824,-0.0531,-0.0715,-0.0709,0.0209,-0.0193,-0.0297,18.83,-35.78,3.3,330.66,-88.27,71.23,48.8439,2.353333,95.7,NaN,,12.497,,0 / 19,,2255,2022-01-10 19:18:46:018
-0.428,9.8186,0.0069,-0.288,9.8021,0.0824,-0.122,-0.0274,-0.0652,0.0209,-0.0193,-0.0297,18.83,-35.78,3.3,330.66,-88.27,71.23,48.8439,2.353333,95.7,NaN,,12.497,,0 / 19,,2261,2022-01-10 19:18:46:024
-0.428,9.8186,0.0069,-0.288,9.8021,0.0824,-0.122,-0.0274,-0.0652,0.0209,-0.0193,-0.0297,18.83,-35.78,3.3,330.66,-88.27,71.23,48.8439,2.353333,95.7,NaN,,12.497,,0 / 19,,2266,2022-01-10 19:18:46:029
-0.428,9.8186,0.0069,-0.288,9.8021,0.0824,-0.122,-0.0274,-0.0652,0.0209,-0.0193,-0.0297,18.83,-35.78,3.3,330.66,-88.27,71.23,48.8439,2.353333,95.7,NaN,,12.497,,0 / 19,,2271,2022-01-10 19:18:46:034
-0.428,9.8186,0.0069,-0.288,9.8021,0.0824,-0.122,-0.0274,-0.0652,0.0209,-0.0193,-0.0297,18.83,-35.78,3.3,330.66,-88.27,71.23,48.8439,2.353333,95.7,NaN,,12.497,,0 / 19,,2276,2022-01-10 19:18:46:039
-0.3778,9.8163,0.0787,-0.288,9.8021,0.0824,-0.122,-0.0274,-0.0652,-0.0025,0.0414,-0.0052,19.05,-35.78,3.08,330.66,-88.27,71.23,48.8439,2.353333,95.7,NaN,,12.497,,0 / 19,,2281,2022-01-10 19:18:46:044
-0.3778,9.8163,0.0787,-0.3002,9.8017,0.0785,-0.122,-0.0274,-0.0652,-0.0025,0.0414,-0.0052,19.05,-35.78,3.08,330.66,-88.27,71.23,48.8439,2.353333,95.7,NaN,,12.497,,0 / 19,,2285,2022-01-10 19:18:46:048
-0.3778,9.8163,0.0787,-0.3002,9.8017,0.0785,-0.0352,0.0202,0.0367,-0.0025,0.0414,-0.0052,19.05,-35.78,3.08,330.66,-88.27,71.23,48.8439,2.353333,95.7,NaN,,12.497,,0 / 19,,2293,2022-01-10 19:18:46:056
-0.3778,9.8163,0.0787,-0.3002,9.8017,0.0785,-0.0352,0.0202,0.0367,-0.0025,0.0414,-0.0052,19.05,-35.78,3.08,330.66,-88.27,71.23,48.8439,2.353333,95.7,NaN,,12.497,,0 / 19,,2296,2022-01-10 19:18:46:059
-0.3778,9.8163,0.0787,-0.3002,9.8017,0.0785,-0.0352,0.0202,0.0367,-0.0025,0.0414,-0.0052,19.05,-35.78,3.08,330.66,-88.27,71.23,48.8439,2.353333,95.7,NaN,,12.497,,0 / 19,,2301,2022-01-10 19:18:46:064
-0.3778,9.8163,0.0787,-0.3002,9.8017,0.0785,-0.0352,0.0202,0.0367,-0.0025,0.0414,-0.0052,19.05,-35.78,3.08,330.66,-88.27,71.23,48.8439,2.353333,95.7,NaN,,12.497,,0 / 19,,2305,2022-01-10 19:18:46:068
-0.4902,9.8091,0.172,-0.3045,9.8016,0.081,-0.0352,0.0202,0.0367,-0.0047,0.1288,0.0097,19.2,-35.7,3.15,334.64,-88.16,75.1,48.8439,2.353333,95.7,NaN,,12.497,,0 / 19,,2310,2022-01-10 19:18:46:073
-0.4902,9.8091,0.172,-0.3045,9.8016,0.081,-0.0352,0.0202,0.0367,-0.0047,0.1288,0.0097,19.2,-35.7,3.15,334.64,-88.16,75.1,48.8439,2.353333,95.7,NaN,,12.497,,0 / 19,,2316,2022-01-10 19:18:46:079
-0.4902,9.8091,0.172,-0.3045,9.8016,0.081,-0.1508,-0.0622,0.0987,-0.0047,0.1288,0.0097,19.2,-35.7,3.15,334.64,-88.16,75.1,48.8439,2.353333,95.7,NaN,,12.497,,0 / 19,,2320,2022-01-10 19:18:46:083
-0.4902,9.8091,0.172,-0.3045,9.8016,0.081,-0.1508,-0.0622,0.0987,-0.0047,0.1288,0.0097,19.2,-35.7,3.15,334.64,-88.16,75.1,48.8439,2.353333,95.7,NaN,,12.497,,0 / 19,,2325,2022-01-10 19:18:46:088
-0.4902,9.8091,0.172,-0.3045,9.8016,0.081,-0.1508,-0.0622,0.0987,-0.0047,0.1288,0.0097,19.2,-35.7,3.15,334.64,-88.16,75.1,48.8439,2.353333,95.7,NaN,,12.497,,0 / 19,,2331,2022-01-10 19:18:46:094
-0.2459,9.8689,0.3733,-0.3045,9.8016,0.081,-0.1508,-0.0622,0.0987,-0.0047,0.1288,0.0097,19.2,-35.7,3.15,334.64,-88.16,75.1,48.8439,2.353333,95.7,NaN,,12.497,,0 / 19,,2336,2022-01-10 19:18:46:099
-0.2459,9.8689,0.3733,-0.3033,9.8015,0.0896,-0.1508,-0.0622,0.0987,-0.0142,0.0148,0.0076,19.13,-35.18,2.85,334.64,-88.16,75.1,48.8439,2.353333,95.7,NaN,,12.497,,0 / 19,,2341,2022-01-10 19:18:46:104
-0.2459,9.8689,0.3733,-0.3033,9.8015,0.0896,-0.1508,-0.0622,0.0987,-0.0142,0.0148,0.0076,19.13,-35.18,2.85,334.64,-88.16,75.1,48.8439,2.353333,95.7,NaN,,12.497,,0 / 19,,2347,2022-01-10 19:18:46:110
-0.2459,9.8689,0.3733,-0.3033,9.8015,0.0896,0.0809,0.019,0.2409,-0.0142,0.0148,0.0076,19.13,-35.18,2.85,334.64,-88.16,75.1,48.8439,2.353333,95.7,NaN,,12.497,,0 / 19,,2350,2022-01-10 19:18:46:113
-0.2459,9.8689,0.3733,-0.3033,9.8015,0.0896,0.0809,0.019,0.2409,-0.0142,0.0148,0.0076,19.13,-35.18,2.85,334.64,-88.16,75.1,48.8439,2.353333,95.7,NaN,,12.497,,0 / 19,,2356,2022-01-10 19:18:46:119
-0.2459,9.8689,0.3733,-0.3033,9.8015,0.0896,0.0809,0.019,0.2409,-0.0142,0.0148,0.0076,19.13,-35.18,2.85,334.64,-88.16,75.1,48.8439,2.353333,95.7,NaN,,12.497,,0 / 19,,2362,2022-01-10 19:18:46:125
-0.186,9.8569,0.3972,-0.3033,9.8015,0.0896,0.0809,0.019,0.2409,-0.0142,0.0148,0.0076,19.13,-35.18,2.85,334.64,-88.16,75.1,48.8439,2.353333,95.7,NaN,,12.497,,0 / 19,,2366,2022-01-10 19:18:46:129
-0.186,9.8569,0.3972,-0.3009,9.8015,0.1007,0.0809,0.019,0.2409,-0.0142,0.0148,0.0076,19.13,-35.18,2.85,334.64,-88.16,75.1,48.8439,2.353333,95.7,NaN,,12.497,,0 / 19,,2371,2022-01-10 19:18:46:134
-0.186,9.8569,0.3972,-0.3009,9.8015,0.1007,0.0809,0.019,0.2409,0.0475,0.0489,-0.0244,19.13,-35.18,2.85,334.64,-88.16,75.1,48.8439,2.353333,95.7,NaN,,12.497,,0 / 19,,2375,2022-01-10 19:18:46:138
-0.186,9.8569,0.3972,-0.3009,9.8015,0.1007,0.0547,0.0745,0.1668,0.0475,0.0489,-0.0244,19.13,-35.55,3.15,330.82,-88.15,71.5,48.8439,2.353333,95.7,NaN,,12.497,,0 / 19,,2381,2022-01-10 19:18:46:144
-0.186,9.8569,0.3972,-0.3009,9.8015,0.1007,0.0547,0.0745,0.1668,0.0475,0.0489,-0.0244,19.13,-35.55,3.15,330.82,-88.15,71.5,48.8439,2.353333,95.7,NaN,,12.497,,0 / 19,,2386,2022-01-10 19:18:46:149
-0.4496,9.8258,0.1241,-0.3009,9.8015,0.1007,0.0547,0.0745,0.1668,0.0475,0.0489,-0.0244,19.13,-35.55,3.15,330.82,-88.15,71.5,48.8439,2.353333,95.7,NaN,,12.497,,0 / 19,,2392,2022-01-10 19:18:46:155
-0.4496,9.8258,0.1241,-0.3009,9.8015,0.1007,0.0547,0.0745,0.1668,0.0475,0.0489,-0.0244,19.13,-35.55,3.15,330.82,-88.15,71.5,48.8439,2.353333,95.7,NaN,,12.497,,0 / 19,,2395,2022-01-10 19:18:46:158
-0.4496,9.8258,0.1241,-0.3115,9.8013,0.0902,0.0547,0.0745,0.1668,0.0475,0.0489,-0.0244,19.13,-35.55,3.15,330.82,-88.15,71.5,48.8439,2.353333,95.7,NaN,,12.497,,0 / 19,,2401,2022-01-10 19:18:46:164
-0.4496,9.8258,0.1241,-0.3115,9.8013,0.0902,0.0547,0.0745,0.1668,0.0475,0.0489,-0.0244,19.13,-35.55,3.15,330.82,-88.15,71.5,48.8439,2.353333,95.7,NaN,,12.497,,0 / 19,,2406,2022-01-10 19:18:46:169
-0.4496,9.8258,0.1241,-0.3115,9.8013,0.0902,-0.2626,0.0286,0.1339,0.0646,0.0531,0.0012,18.75,-35.85,3.68,330.82,-88.15,71.5,48.8439,2.353333,95.7,NaN,,12.497,,0 / 19,,2410,2022-01-10 19:18:46:173
-0.4496,9.8258,0.1241,-0.3115,9.8013,0.0902,-0.2626,0.0286,0.1339,0.0646,0.0531,0.0012,18.75,-35.85,3.68,330.82,-88.15,71.5,48.8439,2.353333,95.7,NaN,,12.497,,0 / 19,,2415,2022-01-10 19:18:46:178
-0.4807,9.8833,-0.0314,-0.3115,9.8013,0.0902,-0.2626,0.0286,0.1339,0.0646,0.0531,0.0012,18.75,-35.85,3.68,330.82,-88.15,71.5,48.8439,2.353333,95.7,NaN,,12.497,,0 / 19,,2420,2022-01-10 19:18:46:183
-0.4807,9.8833,-0.0314,-0.3115,9.8013,0.0902,-0.2626,0.0286,0.1339,0.0646,0.0531,0.0012,18.75,-35.85,3.68,330.82,-88.15,71.5,48.8439,2.353333,95.7,NaN,,12.497,,0 / 19,,2426,2022-01-10 19:18:46:189
-0.4807,9.8833,-0.0314,-0.3166,9.8013,0.0712,-0.2626,0.0286,0.1339,0.0646,0.0531,0.0012,18.75,-35.85,3.68,330.82,-88.15,71.5,48.8439,2.353333,95.7,NaN,,12.497,,0 / 19,,2430,2022-01-10 19:18:46:193
-0.4807,9.8833,-0.0314,-0.3166,9.8013,0.0712,-0.2626,0.0286,0.1339,0.0646,0.0531,0.0012,18.75,-35.85,3.68,330.82,-88.15,71.5,48.8439,2.353333,95.7,NaN,,12.497,,0 / 19,,2436,2022-01-10 19:18:46:199
-0.2339,9.9718,0.0021,-0.3166,9.8013,0.0712,0.0315,0.1156,-0.1446,0.022,-0.03,0.0289,18.83,-35.78,4.65,330.87,-88.1,77.32,48.8439,2.353333,95.7,NaN,,12.497,,0 / 19,,2441,2022-01-10 19:18:46:204
-0.2339,9.9718,0.0021,-0.3166,9.8013,0.0712,0.0315,0.1156,-0.1446,0.022,-0.03,0.0289,18.83,-35.78,4.65,330.87,-88.1,77.32,48.8439,2.353333,95.7,NaN,,12.497,,0 / 19,,2446,2022-01-10 19:18:46:209
-0.2339,9.9718,0.0021,-0.3166,9.8013,0.0712,0.0315,0.1156,-0.1446,0.022,-0.03,0.0289,18.83,-35.78,4.65,330.87,-88.1,77.32,48.8439,2.353333,95.7,NaN,,12.497,,0 / 19,,2451,2022-01-10 19:18:46:214
-0.2339,9.9718,0.0021,-0.3166,9.8013,0.0712,0.0315,0.1156,-0.1446,0.022,-0.03,0.0289,18.83,-35.78,4.65,330.87,-88.1,77.32,48.8439,2.353333,95.7,NaN,,12.497,,0 / 19,,2455,2022-01-10 19:18:46:218
-0.2339,9.9718,0.0021,-0.3068,9.8017,0.061,0.0315,0.1156,-0.1446,0.022,-0.03,0.0289,18.83,-35.78,4.65,330.87,-88.1,77.32,48.8439,2.353333,95.7,NaN,,12.497,,0 / 19,,2461,2022-01-10 19:18:46:224
-0.2339,9.9718,0.0021,-0.3068,9.8017,0.061,0.0315,0.1156,-0.1446,0.022,-0.03,0.0289,18.83,-35.78,4.65,330.87,-88.1,77.32,48.8439,2.353333,95.7,NaN,,12.497,,0 / 19,,2466,2022-01-10 19:18:46:229
-0.2339,9.9718,0.0021,-0.3068,9.8017,0.061,0.0315,0.1156,-0.1446,0.022,-0.03,0.0289,18.83,-35.78,4.65,330.87,-88.1,77.32,48.8439,2.353333,95.7,NaN,,12.497,,0 / 19,,2470,2022-01-10 19:18:46:233
-0.4065,10.0005,0.0834,-0.3068,9.8017,0.061,-0.0988,0.1312,0.125,0.0422,-0.0161,0.0257,18.68,-35.78,4.5,330.87,-88.1,77.32,48.8439,2.353333,95.7,NaN,,12.497,,0 / 19,,2477,2022-01-10 19:18:46:240
-0.4065,10.0005,0.0834,-0.3068,9.8017,0.061,-0.0988,0.1312,0.125,0.0422,-0.0161,0.0257,18.68,-35.78,4.5,330.87,-88.1,77.32,48.8439,2.353333,95.7,NaN,,12.497,,0 / 19,,2480,2022-01-10 19:18:46:243
-0.4065,10.0005,0.0834,-0.3018,9.8019,0.0551,-0.0988,0.1312,0.125,0.0422,-0.0161,0.0257,18.68,-35.78,4.5,330.87,-88.1,77.32,48.8439,2.353333,95.7,NaN,,12.497,,0 / 19,,2486,2022-01-10 19:18:46:249
-0.4065,10.0005,0.0834,-0.3018,9.8019,0.0551,-0.0988,0.1312,0.125,0.0422,-0.0161,0.0257,18.68,-35.78,4.5,330.87,-88.1,77.32,48.8439,2.353333,95.7,NaN,,12.497,,0 / 19,,2491,2022-01-10 19:18:46:254
-0.4065,10.0005,0.0834,-0.3018,9.8019,0.0551,-0.0988,0.1312,0.125,0.0422,-0.0161,0.0257,18.68,-35.78,4.5,330.87,-88.1,77.32,48.8439,2.353333,95.7,NaN,,12.497,,0 / 19,,2496,2022-01-10 19:18:46:259
-0.4065,10.0005,0.0834,-0.3018,9.8019,0.0551,-0.0988,0.1312,0.125,0.0422,-0.0161,0.0257,18.68,-35.78,4.5,330.87,-88.1,77.32,48.8439,2.353333,95.7,NaN,,12.497,,0 / 19,,2500,2022-01-10 19:18:46:263
-0.4065,10.0005,0.0834,-0.3018,9.8019,0.0551,-0.0988,0.1312,0.125,0.0422,-0.0161,0.0257,18.68,-35.78,4.5,330.87,-88.1,77.32,48.8439,2.353333,95.7,NaN,,12.497,,0 / 19,,2505,2022-01-10 19:18:46:268
-0.4065,10.0005,0.0834,-0.3018,9.8019,0.0551,-0.0988,0.1312,0.125,0.0422,-0.0161,0.0257,18.68,-35.78,4.5,330.87,-88.1,77.32,48.8439,2.353333,95.7,NaN,,12.497,,0 / 19,,2511,2022-01-10 19:18:46:274
-0.4065,10.0005,0.0834,-0.3018,9.8019,0.0551,-0.0988,0.1312,0.125,0.0422,-0.0161,0.0257,18.68,-35.78,4.5,330.87,-88.1,77.32,48.8439,2.353333,95.7,NaN,,12.497,,0 / 19,,2515,2022-01-10 19:18:46:278
-0.4065,10.0005,0.0834,-0.3018,9.8019,0.0551,-0.0988,0.1312,0.125,0.0422,-0.0161,0.0257,18.68,-35.78,4.5,330.87,-88.1,77.32,48.8439,2.353333,95.7,NaN,,12.497,,0 / 19,,2521,2022-01-10 19:18:46:284
-0.4065,10.0005,0.0834,-0.3018,9.8019,0.0551,-0.0988,0.1312,0.125,0.0422,-0.0161,0.0257,18.68,-35.78,4.5,330.87,-88.1,77.32,48.8439,2.353333,95.7,NaN,,12.497,,0 / 19,,2525,2022-01-10 19:18:46:288
-0.4065,10.0005,0.0834,-0.3018,9.8019,0.0551,-0.0988,0.1312,0.125,0.0422,-0.0161,0.0257,18.68,-35.78,4.5,330.87,-88.1,77.32,48.8439,2.353333,95.7,NaN,,12.497,,0 / 19,,2532,2022-01-10 19:18:46:295
-0.4065,10.0005,0.0834,-0.3018,9.8019,0.0551,-0.0988,0.1312,0.125,0.0422,-0.0161,0.0257,18.68,-35.78,4.5,330.87,-88.1,77.32,48.8439,2.353333,95.7,NaN,,12.497,,0 / 19,,2536,2022-01-10 19:18:46:299
-0.4065,10.0005,0.0834,-0.3018,9.8019,0.0551,-0.0988,0.1312,0.125,0.0422,-0.0161,0.0257,18.68,-35.78,4.5,330.87,-88.1,77.32,48.8439,2.353333,95.7,NaN,,12.497,,0 / 19,,2541,2022-01-10 19:18:46:304
-0.4065,10.0005,0.0834,-0.3018,9.8019,0.0551,-0.0988,0.1312,0.125,0.0422,-0.0161,0.0257,18.68,-35.78,4.5,330.87,-88.1,77.32,48.8439,2.353333,95.7,NaN,,12.497,,0 / 19,,2545,2022-01-10 19:18:46:308
-0.4065,10.0005,0.0834,-0.3018,9.8019,0.0551,-0.0988,0.1312,0.125,0.0422,-0.0161,0.0257,18.68,-35.78,4.5,330.87,-88.1,77.32,48.8439,2.353333,95.7,NaN,,12.497,,0 / 19,,2551,2022-01-10 19:18:46:314
-0.361,9.9981,0.1169,-0.299,9.802,0.0518,-0.0831,0.208,0.1451,0.071,-0.0065,0.047,18.75,-35.78,4.5,333.98,-88.23,80.16,48.8439,2.353333,95.7,NaN,,12.497,,0 / 19,,2555,2022-01-10 19:18:46:318
-0.361,9.9981,0.1169,-0.299,9.802,0.0518,-0.0831,0.208,0.1451,0.071,-0.0065,0.047,18.75,-35.78,4.5,333.98,-88.23,80.16,48.8439,2.353333,95.7,NaN,,12.497,,0 / 19,,2560,2022-01-10 19:18:46:323
-0.361,9.9981,0.1169,-0.299,9.802,0.0518,-0.0831,0.208,0.1451,0.071,-0.0065,0.047,18.75,-35.78,4.5,333.98,-88.23,80.16,48.8439,2.353333,95.7,NaN,,12.497,,0 / 19,,2566,2022-01-10 19:18:46:329
-0.361,9.9981,0.1169,-0.299,9.802,0.0518,-0.0831,0.208,0.1451,0.071,-0.0065,0.047,18.75,-35.78,4.5,333.98,-88.23,80.16,48.8439,2.353333,95.7,NaN,,12.497,,0 / 19,,2571,2022-01-10 19:18:46:334
-0.361,9.9981,0.1169,-0.299,9.802,0.0518,-0.0831,0.208,0.1451,0.071,-0.0065,0.047,18.75,-35.78,4.5,333.98,-88.23,80.16,48.8439,2.353333,95.7,NaN,,12.497,,0 / 19,,2575,2022-01-10 19:18:46:338
-0.2052,9.7346,-0.0724,-0.2566,9.8033,-0.0252,-0.0669,-0.1141,-0.0601,0.071,-0.0065,0.047,18.75,-35.78,4.5,333.98,-88.23,80.16,48.8439,2.353333,95.7,NaN,,12.497,,0 / 19,,2581,2022-01-10 19:18:46:344
-0.2052,9.7346,-0.0724,-0.2566,9.8033,-0.0252,-0.0669,-0.1141,-0.0601,0.0507,0.0702,0.0758,18.75,-35.78,4.5,333.98,-88.23,80.16,48.8439,2.353333,95.7,NaN,,12.497,,0 / 19,,2586,2022-01-10 19:18:46:349
-0.2052,9.7346,-0.0724,-0.2566,9.8033,-0.0252,-0.0669,-0.1141,-0.0601,0.0507,0.0702,0.0758,19.05,-36.15,4.58,333.98,-88.23,80.16,48.8439,2.353333,95.7,NaN,,12.497,,0 / 19,,2591,2022-01-10 19:18:46:354
-0.2052,9.7346,-0.0724,-0.2566,9.8033,-0.0252,-0.0669,-0.1141,-0.0601,0.0507,0.0702,0.0758,19.05,-36.15,4.58,333.98,-88.23,80.16,48.8439,2.353333,95.7,NaN,,12.497,,0 / 19,,2595,2022-01-10 19:18:46:358
-0.2052,9.7346,-0.0724,-0.2566,9.8033,-0.0252,-0.0669,-0.1141,-0.0601,0.0507,0.0702,0.0758,19.05,-36.15,4.58,333.98,-88.23,80.16,48.8439,2.353333,95.7,NaN,,12.497,,0 / 19,,2601,2022-01-10 19:18:46:364
-0.2052,9.7346,-0.0724,-0.2566,9.8033,-0.0252,-0.0669,-0.1141,-0.0601,0.0507,0.0702,0.0758,19.05,-36.15,4.58,333.98,-88.23,80.16,48.8439,2.353333,95.7,NaN,,12.497,,0 / 19,,2607,2022-01-10 19:18:46:370
-0.2387,9.5169,0.0356,-0.2566,9.8033,-0.0252,-0.0669,-0.1141,-0.0601,0.0507,0.0702,0.0758,19.05,-36.15,4.58,333.98,-88.23,80.16,48.8439,2.353333,95.7,NaN,,12.497,,0 / 19,,2610,2022-01-10 19:18:46:373
-0.2387,9.5169,0.0356,-0.2332,9.8038,-0.0392,0.0124,-0.301,0.0557,0.0401,0.0819,0.063,19.05,-36.15,4.58,333.98,-88.23,80.16,48.8439,2.353333,95.7,NaN,,12.497,,0 / 19,,2616,2022-01-10 19:18:46:379
-0.2387,9.5169,0.0356,-0.2332,9.8038,-0.0392,0.0124,-0.301,0.0557,0.0401,0.0819,0.063,18.75,-35.62,4.65,354.55,-88.62,99.53,48.8439,2.353333,95.7,NaN,,12.497,,0 / 19,,2621,2022-01-10 19:18:46:384
-0.2387,9.5169,0.0356,-0.2332,9.8038,-0.0392,0.0124,-0.301,0.0557,0.0401,0.0819,0.063,18.75,-35.62,4.65,354.55,-88.62,99.53,48.8439,2.353333,95.7,NaN,,12.497,,0 / 19,,2626,2022-01-10 19:18:46:389
-0.2387,9.5169,0.0356,-0.2332,9.8038,-0.0392,0.0124,-0.301,0.0557,0.0401,0.0819,0.063,18.75,-35.62,4.65,354.55,-88.62,99.53,48.8439,2.353333,95.7,NaN,,12.497,,0 / 19,,2631,2022-01-10 19:18:46:394
-0.2506,9.524,0.1098,-0.2332,9.8038,-0.0392,0.0124,-0.301,0.0557,0.0401,0.0819,0.063,18.75,-35.62,4.65,354.55,-88.62,99.53,48.8439,2.353333,95.7,NaN,,12.497,,0 / 19,,2635,2022-01-10 19:18:46:398
-0.2506,9.524,0.1098,-0.2332,9.8038,-0.0392,0.0124,-0.301,0.0557,0.0401,0.0819,0.063,18.75,-35.62,4.65,354.55,-88.62,99.53,48.8439,2.353333,95.7,NaN,,12.497,,0 / 19,,2640,2022-01-10 19:18:46:403
-0.2506,9.524,0.1098,-0.2165,9.8042,-0.044,-0.0131,-0.3135,0.142,0.0348,0.0648,0.0672,18.75,-35.62,4.65,354.55,-88.62,99.53,48.8439,2.353333,95.7,NaN,,12.497,,0 / 19,,2646,2022-01-10 19:18:46:409
-0.2506,9.524,0.1098,-0.2165,9.8042,-0.044,-0.0131,-0.3135,0.142,0.0348,0.0648,0.0672,18.83,-35.4,4.8,354.55,-88.62,99.53,48.8439,2.353333,95.7,NaN,,12.497,,0 / 19,,2650,2022-01-10 19:18:46:413
-0.2506,9.524,0.1098,-0.2165,9.8042,-0.044,-0.0131,-0.3135,0.142,0.0348,0.0648,0.0672,18.83,-35.4,4.8,354.55,-88.62,99.53,48.8439,2.353333,95.7,NaN,,12.497,,0 / 19,,2655,2022-01-10 19:18:46:418
-0.2506,9.524,0.1098,-0.2165,9.8042,-0.044,-0.0131,-0.3135,0.142,0.0348,0.0648,0.0672,18.83,-35.4,4.8,354.55,-88.62,99.53,48.8439,2.353333,95.7,NaN,,12.497,,0 / 19,,2661,2022-01-10 19:18:46:424
-0.0808,9.5408,0.1911,-0.2165,9.8042,-0.044,-0.0131,-0.3135,0.142,0.0348,0.0648,0.0672,18.83,-35.4,4.8,354.55,-88.62,99.53,48.8439,2.353333,95.7,NaN,,12.497,,0 / 19,,2666,2022-01-10 19:18:46:429
-0.0808,9.5408,0.1911,-0.2165,9.8042,-0.044,-0.0131,-0.3135,0.142,0.0348,0.0648,0.0672,18.83,-35.4,4.8,354.55,-88.62,99.53,48.8439,2.353333,95.7,NaN,,12.497,,0 / 19,,2670,2022-01-10 19:18:46:433
-0.0808,9.5408,0.1911,-0.1964,9.8046,-0.0448,0.0826,-0.2648,0.2361,0.0262,-0.0257,0.0257,18.83,-35.4,4.8,354.55,-88.62,99.53,48.8439,2.353333,95.7,NaN,,12.497,,0 / 19,,2675,2022-01-10 19:18:46:438
-0.0808,9.5408,0.1911,-0.1964,9.8046,-0.0448,0.0826,-0.2648,0.2361,0.0262,-0.0257,0.0257,18.83,-35.62,5.18,358.04,-88.82,102.85,48.8439,2.353333,95.7,NaN,,12.497,,0 / 19,,2681,2022-01-10 19:18:46:444
-0.0808,9.5408,0.1911,-0.1964,9.8046,-0.0448,0.0826,-0.2648,0.2361,0.0262,-0.0257,0.0257,18.83,-35.62,5.18,358.04,-88.82,102.85,48.8439,2.353333,95.7,NaN,,12.497,,0 / 19,,2685,2022-01-10 19:18:46:448
-0.2411,9.5145,-0.058,-0.1964,9.8046,-0.0448,0.0826,-0.2648,0.2361,0.0262,-0.0257,0.0257,18.83,-35.62,5.18,358.04,-88.82,102.85,48.8439,2.353333,95.7,NaN,,12.497,,0 / 19,,2690,2022-01-10 19:18:46:453
-0.2411,9.5145,-0.058,-0.1964,9.8046,-0.0448,0.0826,-0.2648,0.2361,0.0262,-0.0257,0.0257,18.83,-35.62,5.18,358.04,-88.82,102.85,48.8439,2.353333,95.7,NaN,,12.497,,0 / 19,,2696,2022-01-10 19:18:46:459
-0.2411,9.5145,-0.058,-0.1964,9.8046,-0.0448,0.0826,-0.2648,0.2361,0.0262,-0.0257,0.0257,18.83,-35.62,5.18,358.04,-88.82,102.85,48.8439,2.353333,95.7,NaN,,12.497,,0 / 19,,2701,2022-01-10 19:18:46:464
-0.2411,9.5145,-0.058,-0.1875,9.8048,-0.0429,-0.0811,-0.2105,-0.0054,-0.0206,-0.0119,0.063,18.83,-35.62,5.18,358.04,-88.82,102.85,48.8439,2.353333,95.7,NaN,,12.497,,0 / 19,,2705,2022-01-10 19:18:46:468
-0.2411,9.5145,-0.058,-0.1875,9.8048,-0.0429,-0.0811,-0.2105,-0.0054,-0.0206,-0.0119,0.063,18.83,-35.93,5.1,358.04,-88.82,102.85,48.8439,2.353333,95.7,NaN,,12.497,,0 / 19,,2711,2022-01-10 19:18:46:474
-0.131,9.5839,0.0356,-0.1875,9.8048,-0.0429,-0.0811,-0.2105,-0.0054,-0.0206,-0.0119,0.063,18.83,-35.93,5.1,358.04,-88.82,102.85,48.8439,2.353333,95.7,NaN,,12.497,,0 / 19,,2716,2022-01-10 19:18:46:479
-0.131,9.5839,0.0356,-0.1875,9.8048,-0.0429,-0.0811,-0.2105,-0.0054,-0.0206,-0.0119,0.063,18.83,-35.93,5.1,358.04,-88.82,102.85,48.8439,2.353333,95.7,NaN,,12.497,,0 / 19,,2720,2022-01-10 19:18:46:483
-0.131,9.5839,0.0356,-0.1875,9.8048,-0.0429,-0.0811,-0.2105,-0.0054,-0.0206,-0.0119,0.063,18.83,-35.93,5.1,358.04,-88.82,102.85,48.8439,2.353333,95.7,NaN,,12.497,,0 / 19,,2727,2022-01-10 19:18:46:490
-0.131,9.5839,0.0356,-0.1875,9.8048,-0.0429,-0.0811,-0.2105,-0.0054,-0.0206,-0.0119,0.063,18.83,-35.93,5.1,358.04,-88.82,102.85,48.8439,2.353333,95.7,NaN,,12.497,,0 / 19,,2731,2022-01-10 19:18:46:494
-0.131,9.5839,0.0356,-0.1677,9.8052,-0.0336,0.1121,-0.1583,0.2488,0.0337,0.0265,0.0374,18.83,-35.93,5.1,358.04,-88.82,102.85,48.8439,2.353333,95.7,NaN,,12.497,,0 / 19,,2736,2022-01-10 19:18:46:499
-0.1525,9.6293,0.1696,-0.1677,9.8052,-0.0336,0.1121,-0.1583,0.2488,0.0337,0.0265,0.0374,19.13,-36.07,4.88,356.46,-89.0,101.32,48.8439,2.353333,95.7,NaN,,12.497,,0 / 19,,2741,2022-01-10 19:18:46:504
-0.1525,9.6293,0.1696,-0.1677,9.8052,-0.0336,0.1121,-0.1583,0.2488,0.0337,0.0265,0.0374,19.13,-36.07,4.88,356.46,-89.0,101.32,48.8439,2.353333,95.7,NaN,,12.497,,0 / 19,,2746,2022-01-10 19:18:46:509
-0.1525,9.6293,0.1696,-0.1677,9.8052,-0.0336,0.1121,-0.1583,0.2488,0.0337,0.0265,0.0374,19.13,-36.07,4.88,356.46,-89.0,101.32,48.8439,2.353333,95.7,NaN,,12.497,,0 / 19,,2751,2022-01-10 19:18:46:514
-0.1525,9.6293,0.1696,-0.1677,9.8052,-0.0336,0.1121,-0.1583,0.2488,0.0337,0.0265,0.0374,19.13,-36.07,4.88,356.46,-89.0,101.32,48.8439,2.353333,95.7,NaN,,12.497,,0 / 19,,2756,2022-01-10 19:18:46:519
-0.1525,9.6293,0.1696,-0.1677,9.8052,-0.0336,0.1121,-0.1583,0.2488,0.0337,0.0265,0.0374,19.13,-36.07,4.88,356.46,-89.0,101.32,48.8439,2.353333,95.7,NaN,,12.497,,0 / 19,,2761,2022-01-10 19:18:46:524
-0.1525,9.6293,0.1696,-0.1557,9.8053,-0.0418,0.0712,-0.1782,-0.0988,0.0337,0.0265,0.0374,19.13,-36.07,4.88,356.46,-89.0,101.32,48.8439,2.353333,95.7,NaN,,12.497,,0 / 19,,2765,2022-01-10 19:18:46:528
-0.0182,9.7705,-0.2231,-0.1557,9.8053,-0.0418,0.0712,-0.1782,-0.0988,0.0241,-0.0619,0.0236,19.13,-36.07,4.88,356.46,-89.0,101.32,48.8439,2.353333,95.7,NaN,,12.497,,0 / 19,,2771,2022-01-10 19:18:46:534
-0.0182,9.7705,-0.2231,-0.1557,9.8053,-0.0418,0.0712,-0.1782,-0.0988,0.0241,-0.0619,0.0236,19.13,-36.07,4.88,356.46,-89.0,101.32,48.8439,2.353333,95.7,NaN,,12.497,,0 / 19,,2776,2022-01-10 19:18:46:539
-0.0182,9.7705,-0.2231,-0.1557,9.8053,-0.0418,0.0712,-0.1782,-0.0988,0.0241,-0.0619,0.0236,18.9,-35.85,5.1,356.46,-89.0,101.32,48.8439,2.353333,95.7,NaN,,12.497,,0 / 19,,2780,2022-01-10 19:18:46:543
-0.0182,9.7705,-0.2231,-0.1557,9.8053,-0.0418,0.0712,-0.1782,-0.0988,0.0241,-0.0619,0.0236,18.9,-35.85,5.1,356.46,-89.0,101.32,48.8439,2.353333,95.7,NaN,,12.497,,0 / 19,,2786,2022-01-10 19:18:46:549
-0.0182,9.7705,-0.2231,-0.1557,9.8053,-0.0418,0.0712,-0.1782,-0.0988,0.0241,-0.0619,0.0236,18.9,-35.85,5.1,356.46,-89.0,101.32,48.8439,2.353333,95.7,NaN,,12.497,,0 / 19,,2791,2022-01-10 19:18:46:554
0.0224,9.7274,-0.0748,-0.1431,9.8055,-0.0523,0.2144,-0.0671,-0.1171,0.0241,-0.0619,0.0236,18.9,-35.85,5.1,356.46,-89.0,101.32,48.8439,2.353333,95.7,NaN,,12.497,,0 / 19,,2795,2022-01-10 19:18:46:558
0.0224,9.7274,-0.0748,-0.1431,9.8055,-0.0523,0.2144,-0.0671,-0.1171,7.0E-4,-0.0204,-0.019,18.9,-35.85,5.1,356.46,-89.0,101.32,48.8439,2.353333,95.7,NaN,,12.497,,0 / 19,,2801,2022-01-10 19:18:46:564
0.0224,9.7274,-0.0748,-0.1431,9.8055,-0.0523,0.2144,-0.0671,-0.1171,7.0E-4,-0.0204,-0.019,18.9,-35.85,5.1,356.46,-89.0,101.32,48.8439,2.353333,95.7,NaN,,12.497,,0 / 19,,2806,2022-01-10 19:18:46:569
0.0224,9.7274,-0.0748,-0.1431,9.8055,-0.0523,0.2144,-0.0671,-0.1171,7.0E-4,-0.0204,-0.019,18.68,-35.4,5.25,5.47,-89.11,110.06,48.8439,2.353333,95.7,NaN,,12.497,,0 / 19,,2810,2022-01-10 19:18:46:573
0.0224,9.7274,-0.0748,-0.1431,9.8055,-0.0523,0.2144,-0.0671,-0.1171,7.0E-4,-0.0204,-0.019,18.68,-35.4,5.25,5.47,-89.11,110.06,48.8439,2.353333,95.7,NaN,,12.497,,0 / 19,,2816,2022-01-10 19:18:46:579
0.0224,9.7274,-0.0748,-0.1431,9.8055,-0.0523,0.2144,-0.0671,-0.1171,7.0E-4,-0.0204,-0.019,18.68,-35.4,5.25,5.47,-89.11,110.06,48.8439,2.353333,95.7,NaN,,12.497,,0 / 19,,2821,2022-01-10 19:18:46:584
-0.198,9.8737,-0.0532,-0.1453,9.8054,-0.0557,0.0476,0.01,0.0229,7.0E-4,-0.0204,-0.019,18.68,-35.4,5.25,5.47,-89.11,110.06,48.8439,2.353333,95.7,NaN,,12.497,,0 / 19,,2828,2022-01-10 19:18:46:591
-0.198,9.8737,-0.0532,-0.1453,9.8054,-0.0557,0.0476,0.01,0.0229,0.0273,-0.0097,-0.0382,18.68,-35.4,5.25,5.47,-89.11,110.06,48.8439,2.353333,95.7,NaN,,12.497,,0 / 19,,2839,2022-01-10 19:18:46:602
-0.198,9.8737,-0.0532,-0.1453,9.8054,-0.0557,0.0476,0.01,0.0229,0.0273,-0.0097,-0.0382,18.6,-35.48,4.8,5.47,-89.11,110.06,48.8439,2.353333,95.7,NaN,,12.497,,0 / 19,,2845,2022-01-10 19:18:46:608
-0.198,9.8737,-0.0532,-0.1453,9.8054,-0.0557,0.0476,0.01,0.0229,0.0273,-0.0097,-0.0382,18.6,-35.48,4.8,5.47,-89.11,110.06,48.8439,2.353333,95.7,NaN,,12.497,,0 / 19,,2846,2022-01-10 19:18:46:609
-0.198,9.8737,-0.0532,-0.1453,9.8054,-0.0557,0.0476,0.01,0.0229,0.0273,-0.0097,-0.0382,18.6,-35.48,4.8,5.47,-89.11,110.06,48.8439,2.353333,95.7,NaN,,12.497,,0 / 19,,2846,2022-01-10 19:18:46:609
-0.2219,9.9455,-0.2518,-0.1605,9.8051,-0.064,0.0476,0.01,0.0229,0.0273,-0.0097,-0.0382,18.6,-35.48,4.8,5.47,-89.11,110.06,48.8439,2.353333,95.7,NaN,,12.497,,0 / 19,,2850,2022-01-10 19:18:46:613
-0.2219,9.9455,-0.2518,-0.1605,9.8051,-0.064,0.0476,0.01,0.0229,0.0273,-0.0097,-0.0382,18.6,-35.48,4.8,5.47,-89.11,110.06,48.8439,2.353333,95.7,NaN,,12.497,,0 / 19,,2856,2022-01-10 19:18:46:619
-0.2219,9.9455,-0.2518,-0.1605,9.8051,-0.064,-0.0916,0.1224,-0.1844,-0.0079,-0.0481,0.0108,18.6,-35.48,4.8,5.47,-89.11,110.06,48.8439,2.353333,95.7,NaN,,12.497,,0 / 19,,2860,2022-01-10 19:18:46:623
-0.2219,9.9455,-0.2518,-0.1605,9.8051,-0.064,-0.0916,0.1224,-0.1844,-0.0079,-0.0481,0.0108,18.6,-35.48,4.8,5.47,-89.11,110.06,48.8439,2.353333,95.7,NaN,,12.497,,0 / 19,,2865,2022-01-10 19:18:46:628
-0.2219,9.9455,-0.2518,-0.1605,9.8051,-0.064,-0.0916,0.1224,-0.1844,-0.0079,-0.0481,0.0108,18.6,-35.48,4.8,5.47,-89.11,110.06,48.8439,2.353333,95.7,NaN,,12.497,,0 / 19,,2870,2022-01-10 19:18:46:633
-0.2219,9.9455,-0.2518,-0.1605,9.8051,-0.064,-0.0916,0.1224,-0.1844,-0.0079,-0.0481,0.0108,18.6,-35.48,4.8,5.47,-89.11,110.06,48.8439,2.353333,95.7,NaN,,12.497,,0 / 19,,2876,2022-01-10 19:18:46:639
-0.1454,9.9622,0.0117,-0.1605,9.8051,-0.064,-0.0916,0.1224,-0.1844,-0.0079,-0.0481,0.0108,18.9,-35.62,4.58,7.22,-88.99,111.73,48.8439,2.353333,95.7,NaN,,12.497,,0 / 19,,2880,2022-01-10 19:18:46:643
-0.1454,9.9622,0.0117,-0.1559,9.8052,-0.0665,-0.0916,0.1224,-0.1844,-0.0079,-0.0481,0.0108,18.9,-35.62,4.58,7.22,-88.99,111.73,48.8439,2.353333,95.7,NaN,,12.497,,0 / 19,,2886,2022-01-10 19:18:46:649
-0.1454,9.9622,0.0117,-0.1559,9.8052,-0.0665,0.0057,0.1874,0.0805,-0.0079,-0.0481,0.0108,18.9,-35.62,4.58,7.22,-88.99,111.73,48.8439,2.353333,95.7,NaN,,12.497,,0 / 19,,2890,2022-01-10 19:18:46:653
-0.1454,9.9622,0.0117,-0.1559,9.8052,-0.0665,0.0057,0.1874,0.0805,0.023,0.0137,1.0E-4,18.9,-35.62,4.58,7.22,-88.99,111.73,48.8439,2.353333,95.7,NaN,,12.497,,0 / 19,,2896,2022-01-10 19:18:46:659
-0.1454,9.9622,0.0117,-0.1559,9.8052,-0.0665,0.0057,0.1874,0.0805,0.023,0.0137,1.0E-4,18.9,-35.62,4.58,7.22,-88.99,111.73,48.8439,2.353333,95.7,NaN,,12.497,,0 / 19,,2901,2022-01-10 19:18:46:664
-0.2028,9.9335,-0.082,-0.1559,9.8052,-0.0665,0.0057,0.1874,0.0805,0.023,0.0137,1.0E-4,18.9,-35.62,4.58,7.22,-88.99,111.73,48.8439,2.353333,95.7,NaN,,12.497,,0 / 19,,2906,2022-01-10 19:18:46:669
-0.2028,9.9335,-0.082,-0.1559,9.8052,-0.0665,0.0057,0.1874,0.0805,0.023,0.0137,1.0E-4,19.13,-35.93,4.8,7.22,-88.99,111.73,48.8439,2.353333,95.7,NaN,,12.497,,0 / 19,,2911,2022-01-10 19:18:46:674
-0.2028,9.9335,-0.082,-0.1586,9.8051,-0.0706,0.0057,0.1874,0.0805,0.023,0.0137,1.0E-4,19.13,-35.93,4.8,7.22,-88.99,111.73,48.8439,2.353333,95.7,NaN,,12.497,,0 / 19,,2916,2022-01-10 19:18:46:679
-0.2028,9.9335,-0.082,-0.1586,9.8051,-0.0706,-0.0242,0.1601,-0.0222,0.0113,-0.0129,0.0097,19.13,-35.93,4.8,7.22,-88.99,111.73,48.8439,2.353333,95.7,NaN,,12.497,,0 / 19,,2922,2022-01-10 19:18:46:685
-0.2028,9.9335,-0.082,-0.1586,9.8051,-0.0706,-0.0242,0.1601,-0.0222,0.0113,-0.0129,0.0097,19.13,-35.93,4.8,7.22,-88.99,111.73,48.8439,2.353333,95.7,NaN,,12.497,,0 / 19,,2926,2022-01-10 19:18:46:689
-0.2028,9.9335,-0.082,-0.1586,9.8051,-0.0706,-0.0242,0.1601,-0.0222,0.0113,-0.0129,0.0097,19.13,-35.93,4.8,7.22,-88.99,111.73,48.8439,2.353333,95.7,NaN,,12.497,,0 / 19,,2931,2022-01-10 19:18:46:694
-0.2219,9.9144,-0.017,-0.1586,9.8051,-0.0706,-0.0242,0.1601,-0.0222,0.0113,-0.0129,0.0097,19.13,-35.93,4.8,7.22,-88.99,111.73,48.8439,2.353333,95.7,NaN,,12.497,,0 / 19,,2935,2022-01-10 19:18:46:698
-0.2219,9.9144,-0.017,-0.1586,9.8051,-0.0706,-0.0242,0.1601,-0.0222,0.0113,-0.0129,0.0097,18.98,-35.62,5.18,9.56,-88.99,113.99,48.8439,2.353333,95.7,NaN,,12.497,,0 / 19,,2941,2022-01-10 19:18:46:704
-0.2219,9.9144,-0.017,-0.1572,9.8051,-0.0715,-0.0242,0.1601,-0.0222,0.0113,-0.0129,0.0097,18.98,-35.62,5.18,9.56,-88.99,113.99,48.8439,2.353333,95.7,NaN,,12.497,,0 / 19,,2945,2022-01-10 19:18:46:708
-0.2219,9.9144,-0.017,-0.1572,9.8051,-0.0715,-0.0761,0.067,0.1375,0.0113,-0.0129,0.0097,18.98,-35.62,5.18,9.56,-88.99,113.99,48.8439,2.353333,95.7,NaN,,12.497,,0 / 19,,2951,2022-01-10 19:18:46:714
-0.2219,9.9144,-0.017,-0.1572,9.8051,-0.0715,-0.0761,0.067,0.1375,0.0273,-0.0214,0.0193,18.98,-35.62,5.18,9.56,-88.99,113.99,48.8439,2.353333,95.7,NaN,,12.497,,0 / 19,,2955,2022-01-10 19:18:46:718
-0.2028,9.8713,0.0858,-0.1572,9.8051,-0.0715,-0.0761,0.067,0.1375,0.0273,-0.0214,0.0193,18.98,-35.62,5.18,9.56,-88.99,113.99,48.8439,2.353333,95.7,NaN,,12.497,,0 / 19,,2962,2022-01-10 19:18:46:725
-0.2028,9.8713,0.0858,-0.1572,9.8051,-0.0715,-0.0761,0.067,0.1375,0.0273,-0.0214,0.0193,18.98,-35.62,5.18,9.56,-88.99,113.99,48.8439,2.353333,95.7,NaN,,12.497,,0 / 19,,2965,2022-01-10 19:18:46:728
-0.2028,9.8713,0.0858,-0.1539,9.8052,-0.0719,-0.0761,0.067,0.1375,0.0273,-0.0214,0.0193,18.9,-35.93,5.4,9.56,-88.99,113.99,48.8439,2.353333,95.7,NaN,,12.497,,0 / 19,,2972,2022-01-10 19:18:46:735
-0.2028,9.8713,0.0858,-0.1539,9.8052,-0.0719,-0.0761,0.067,0.1375,0.0273,-0.0214,0.0193,18.9,-35.93,5.4,9.56,-88.99,113.99,48.8439,2.353333,95.7,NaN,,12.497,,0 / 19,,2976,2022-01-10 19:18:46:739
-0.2028,9.8713,0.0858,-0.1539,9.8052,-0.0719,-0.0123,0.1048,0.1107,0.0273,-0.0214,0.0193,18.9,-35.93,5.4,9.56,-88.99,113.99,48.8439,2.353333,95.7,NaN,,12.497,,0 / 19,,2981,2022-01-10 19:18:46:744
-0.1549,9.9024,-0.0652,-0.1539,9.8052,-0.0719,-0.0123,0.1048,0.1107,0.0688,-0.0182,0.0182,18.9,-35.93,5.4,9.56,-88.99,113.99,48.8439,2.353333,95.7,NaN,,12.497,,0 / 19,,2986,2022-01-10 19:18:46:749
-0.1549,9.9024,-0.0652,-0.1539,9.8052,-0.0719,-0.0123,0.1048,0.1107,0.0688,-0.0182,0.0182,18.9,-35.93,5.4,9.56,-88.99,113.99,48.8439,2.353333,95.7,NaN,,12.497,,0 / 19,,2991,2022-01-10 19:18:46:754
-0.1549,9.9024,-0.0652,-0.1539,9.8052,-0.0719,-0.0123,0.1048,0.1107,0.0688,-0.0182,0.0182,18.9,-35.93,5.4,9.56,-88.99,113.99,48.8439,2.353333,95.7,NaN,,12.497,,0 / 19,,2996,2022-01-10 19:18:46:759
-0.1549,9.9024,-0.0652,-0.1473,9.8051,-0.0886,-0.0123,0.1048,0.1107,0.0688,-0.0182,0.0182,18.9,-35.93,5.4,9.56,-88.99,113.99,48.8439,2.353333,95.7,NaN,,12.497,,0 / 19,,3001,2022-01-10 19:18:46:764
-0.1549,9.9024,-0.0652,-0.1473,9.8051,-0.0886,-0.0123,0.1048,0.1107,0.0688,-0.0182,0.0182,18.9,-35.93,5.4,9.56,-88.99,113.99,48.8439,2.353333,95.7,NaN,,12.497,,0 / 19,,3005,2022-01-10 19:18:46:768
-0.1549,9.9024,-0.0652,-0.1473,9.8051,-0.0886,0.0904,0.0202,0.016,0.0688,-0.0182,0.0182,18.38,-36.37,5.4,16.05,-89.0,121.04,48.8439,2.353333,95.7,NaN,,12.497,,0 / 19,,3011,2022-01-10 19:18:46:774
-0.2076,9.8545,-0.216,-0.1473,9.8051,-0.0886,0.0904,0.0202,0.016,0.0784,0.0808,0.0119,18.38,-36.37,5.4,16.05,-89.0,121.04,48.8439,2.353333,95.7,NaN,,12.497,,0 / 19,,3016,2022-01-10 19:18:46:779
-0.2076,9.8545,-0.216,-0.1473,9.8051,-0.0886,0.0904,0.0202,0.016,0.0784,0.0808,0.0119,18.38,-36.37,5.4,16.05,-89.0,121.04,48.8439,2.353333,95.7,NaN,,12.497,,0 / 19,,3025,2022-01-10 19:18:46:788
-0.2076,9.8545,-0.216,-0.1473,9.8051,-0.0886,0.0904,0.0202,0.016,0.0784,0.0808,0.0119,18.38,-36.37,5.4,16.05,-89.0,121.04,48.8439,2.353333,95.7,NaN,,12.497,,0 / 19,,3026,2022-01-10 19:18:46:789
-0.2076,9.8545,-0.216,-0.1473,9.8051,-0.0886,0.0904,0.0202,0.016,0.0784,0.0808,0.0119,18.38,-36.37,5.4,16.05,-89.0,121.04,48.8439,2.353333,95.7,NaN,,12.497,,0 / 19,,3032,2022-01-10 19:18:46:795
-0.2076,9.8545,-0.216,-0.1473,9.8051,-0.0886,0.0904,0.0202,0.016,0.0784,0.0808,0.0119,18.38,-36.37,5.4,16.05,-89.0,121.04,48.8439,2.353333,95.7,NaN,,12.497,,0 / 19,,3036,2022-01-10 19:18:46:799
-0.2076,9.8545,-0.216,-0.1473,9.8051,-0.0886,0.0904,0.0202,0.016,0.0784,0.0808,0.0119,18.38,-36.37,5.4,16.05,-89.0,121.04,48.8439,2.353333,95.7,NaN,,12.497,,0 / 19,,3043,2022-01-10 19:18:46:806
-0.2076,9.8545,-0.216,-0.1473,9.8051,-0.0886,0.0904,0.0202,0.016,0.0784,0.0808,0.0119,18.38,-36.37,5.4,16.05,-89.0,121.04,48.8439,2.353333,95.7,NaN,,12.497,,0 / 19,,3046,2022-01-10 19:18:46:809
-0.2076,9.8545,-0.216,-0.1473,9.8051,-0.0886,0.0904,0.0202,0.016,0.0784,0.0808,0.0119,18.38,-36.37,5.4,16.05,-89.0,121.04,48.8439,2.353333,95.7,NaN,,12.497,,0 / 19,,3050,2022-01-10 19:18:46:813
-0.1932,9.8737,-0.216,-0.1438,9.8049,-0.1144,-0.078,0.0637,-0.0763,0.0433,0.0212,0.0172,18.15,-36.68,5.4,16.05,-89.0,121.04,48.8439,2.353333,95.7,NaN,,12.497,,0 / 19,,3057,2022-01-10 19:18:46:820
-0.1932,9.8737,-0.216,-0.1438,9.8049,-0.1144,-0.078,0.0637,-0.0763,0.0433,0.0212,0.0172,18.15,-36.68,5.4,16.05,-89.0,121.04,48.8439,2.353333,95.7,NaN,,12.497,,0 / 19,,3061,2022-01-10 19:18:46:824
