ACCELEROMETER X (m/s²),ACCELEROMETER Y (m/s²),ACCELEROMETER Z (m/s²),GRAVITY X (m/s²),GRAVITY Y (m/s²),GRAVITY Z (m/s²),LINEAR ACCELERATION X (m/s²),LINEAR ACCELERATION Y (m/s²),LINEAR ACCELERATION Z (m/s²),GYROSCOPE X (rad/s),GYROSCOPE Y (rad/s),GYROSCOPE Z (rad/s),MAGNETIC FIELD X (μT),MAGNETIC FIELD Y (μT),MAGNETIC FIELD Z (μT),ORIENTATION Z (azimuth °),ORIENTATION X (pitch °),ORIENTATION Y (roll °),LOCATION Latitude : ,LOCATION Longitude : ,LOCATION Altitude ( m),LOCATION Altitude-google ( m),LOCATION Speed ( Kmh),LOCATION Accuracy ( m),LOCATION ORIENTATION (°),Satellites in range,GPS NMEA,Time since start in ms ,YYYY-MO-DD HH-MI-SS_SSS
-0.7107,1.7411,9.6174,-0.4952,1.6313,9.6573,-0.2234,0.1051,0.0652,-0.0345,-0.0087,0.0012,17.48,-10.72,-40.43,256.35,-9.61,2.91,48.843872,2.353375,94.3,NaN,,15.06,,0 / 26,,27,2022-01-10 18:49:14:462
-0.7107,1.7411,9.6174,-0.4952,1.6313,9.6573,-0.2234,0.1051,0.0652,-0.0345,-0.0087,0.0012,17.48,-10.72,-40.43,256.35,-9.61,2.91,48.843872,2.353375,94.3,NaN,,15.06,,0 / 26,,32,2022-01-10 18:49:14:467
-0.6317,1.7363,9.7229,-0.4952,1.6313,9.6573,-0.2234,0.1051,0.0652,-0.0068,-0.0065,0.0129,17.48,-10.72,-40.43,256.35,-9.61,2.91,48.843872,2.353375,94.3,NaN,,15.06,,0 / 26,,38,2022-01-10 18:49:14:473
-0.6317,1.7363,9.7229,-0.4952,1.6313,9.6573,-0.2234,0.1051,0.0652,-0.0068,-0.0065,0.0129,17.48,-10.72,-40.43,256.35,-9.61,2.91,48.843872,2.353375,94.3,NaN,,15.06,,0 / 26,,43,2022-01-10 18:49:14:478
-0.6317,1.7363,9.7229,-0.5048,1.6325,9.6566,-0.2234,0.1051,0.0652,-0.0068,-0.0065,0.0129,17.48,-10.72,-40.43,256.35,-9.61,2.91,48.843872,2.353375,94.3,NaN,,15.06,,0 / 26,,48,2022-01-10 18:49:14:483
-0.6317,1.7363,9.7229,-0.5048,1.6325,9.6566,-0.1903,0.0473,0.0827,-0.0068,-0.0065,0.0129,17.48,-10.72,-40.5,254.79,-9.58,2.99,48.843872,2.353375,94.3,NaN,,15.06,,0 / 26,,53,2022-01-10 18:49:14:488
-0.6317,1.7363,9.7229,-0.5048,1.6325,9.6566,-0.1903,0.0473,0.0827,-0.0068,-0.0065,0.0129,17.48,-10.72,-40.5,254.79,-9.58,2.99,48.843872,2.353375,94.3,NaN,,15.06,,0 / 26,,57,2022-01-10 18:49:14:492
-0.6317,1.7363,9.7229,-0.5048,1.6325,9.6566,-0.1903,0.0473,0.0827,-0.0068,-0.0065,0.0129,17.48,-10.72,-40.5,254.79,-9.58,2.99,48.843872,2.353375,94.3,NaN,,15.06,,0 / 26,,62,2022-01-10 18:49:14:497
-0.5764,1.657,9.5121,-0.5048,1.6325,9.6566,-0.1903,0.0473,0.0827,0.0134,-0.0822,0.0033,17.48,-10.72,-40.5,254.79,-9.58,2.99,48.843872,2.353375,94.3,NaN,,15.06,,0 / 26,,68,2022-01-10 18:49:14:503
-0.5764,1.657,9.5121,-0.5048,1.6325,9.6566,-0.1903,0.0473,0.0827,0.0134,-0.0822,0.0033,17.48,-10.72,-40.5,254.79,-9.58,2.99,48.843872,2.353375,94.3,NaN,,15.06,,0 / 26,,73,2022-01-10 18:49:14:508
-0.5764,1.657,9.5121,-0.4908,1.6367,9.6566,-0.1903,0.0473,0.0827,0.0134,-0.0822,0.0033,17.48,-10.72,-40.5,254.79,-9.58,2.99,48.843872,2.353375,94.3,NaN,,15.06,,0 / 26,,77,2022-01-10 18:49:14:512
-0.5764,1.657,9.5121,-0.4908,1.6367,9.6566,-0.1903,0.0473,0.0827,0.0134,-0.0822,0.0033,17.78,-10.35,-40.57,254.79,-9.58,2.99,48.843872,2.353375,94.3,NaN,,15.06,,0 / 26,,83,2022-01-10 18:49:14:518
-0.5764,1.657,9.5121,-0.4908,1.6367,9.6566,4.0E-4,0.0372,-0.0774,0.0134,-0.0822,0.0033,17.78,-10.35,-40.57,254.79,-9.58,2.99,48.843872,2.353375,94.3,NaN,,15.06,,0 / 26,,87,2022-01-10 18:49:14:522
-0.4328,1.681,9.4953,-0.4908,1.6367,9.6566,4.0E-4,0.0372,-0.0774,0.0134,-0.0822,0.0033,17.78,-10.35,-40.57,254.79,-9.58,2.99,48.843872,2.353375,94.3,NaN,,15.06,,0 / 26,,93,2022-01-10 18:49:14:528
-0.4328,1.681,9.4953,-0.4908,1.6367,9.6566,4.0E-4,0.0372,-0.0774,0.0348,0.0137,0.0204,17.78,-10.35,-40.57,254.79,-9.58,2.99,48.843872,2.353375,94.3,NaN,,15.06,,0 / 26,,98,2022-01-10 18:49:14:533
-0.4328,1.681,9.4953,-0.4908,1.6367,9.6566,4.0E-4,0.0372,-0.0774,0.0348,0.0137,0.0204,17.78,-10.35,-40.57,254.79,-9.58,2.99,48.843872,2.353375,94.3,NaN,,15.06,,0 / 26,,102,2022-01-10 18:49:14:537
-0.4328,1.681,9.4953,-0.4853,1.6497,9.6547,4.0E-4,0.0372,-0.0774,0.0348,0.0137,0.0204,17.78,-10.35,-40.57,254.79,-9.58,2.99,48.843872,2.353375,94.3,NaN,,15.06,,0 / 26,,107,2022-01-10 18:49:14:542
-0.4328,1.681,9.4953,-0.4853,1.6497,9.6547,0.0188,0.039,-0.0494,0.0348,0.0137,0.0204,17.78,-10.35,-40.57,254.79,-9.58,2.99,48.843872,2.353375,94.3,NaN,,15.06,,0 / 26,,113,2022-01-10 18:49:14:548
-0.4328,1.681,9.4953,-0.4853,1.6497,9.6547,0.0188,0.039,-0.0494,0.0348,0.0137,0.0204,17.78,-10.35,-40.57,254.79,-9.58,2.99,48.843872,2.353375,94.3,NaN,,15.06,,0 / 26,,118,2022-01-10 18:49:14:553
-0.5142,1.6355,9.4905,-0.4853,1.6497,9.6547,0.0188,0.039,-0.0494,0.0348,0.0137,0.0204,18.3,-10.58,-41.02,256.56,-9.68,2.88,48.843872,2.353375,94.3,NaN,,15.06,,0 / 26,,124,2022-01-10 18:49:14:559
-0.5142,1.6355,9.4905,-0.4853,1.6497,9.6547,0.0188,0.039,-0.0494,-0.0036,-0.0087,0.0321,18.3,-10.58,-41.02,256.56,-9.68,2.88,48.843872,2.353375,94.3,NaN,,15.06,,0 / 26,,127,2022-01-10 18:49:14:562
-0.5142,1.6355,9.4905,-0.4853,1.6497,9.6547,0.0188,0.039,-0.0494,-0.0036,-0.0087,0.0321,18.3,-10.58,-41.02,256.56,-9.68,2.88,48.843872,2.353375,94.3,NaN,,15.06,,0 / 26,,132,2022-01-10 18:49:14:567
-0.5142,1.6355,9.4905,-0.4879,1.6531,9.654,0.0188,0.039,-0.0494,-0.0036,-0.0087,0.0321,18.3,-10.58,-41.02,256.56,-9.68,2.88,48.843872,2.353375,94.3,NaN,,15.06,,0 / 26,,139,2022-01-10 18:49:14:574
-0.5142,1.6355,9.4905,-0.4879,1.6531,9.654,0.0188,0.039,-0.0494,-0.0036,-0.0087,0.0321,18.3,-10.58,-41.02,256.56,-9.68,2.88,48.843872,2.353375,94.3,NaN,,15.06,,0 / 26,,142,2022-01-10 18:49:14:577
-0.5142,1.6355,9.4905,-0.4879,1.6531,9.654,0.0307,-0.1052,-0.1496,-0.0036,-0.0087,0.0321,18.3,-10.58,-41.02,256.56,-9.68,2.88,48.843872,2.353375,94.3,NaN,,15.06,,0 / 26,,148,2022-01-10 18:49:14:583
-0.3129,1.5517,9.3948,-0.4879,1.6531,9.654,0.0307,-0.1052,-0.1496,-0.0036,-0.0087,0.0321,18.0,-10.58,-41.32,256.56,-9.68,2.88,48.843872,2.353375,94.3,NaN,,15.06,,0 / 26,,153,2022-01-10 18:49:14:588
-0.3129,1.5517,9.3948,-0.4879,1.6531,9.654,0.0307,-0.1052,-0.1496,-0.076,-0.0033,0.0278,18.0,-10.58,-41.32,256.56,-9.68,2.88,48.843872,2.353375,94.3,NaN,,15.06,,0 / 26,,158,2022-01-10 18:49:14:593
-0.3129,1.5517,9.3948,-0.4766,1.635,9.6576,0.0307,-0.1052,-0.1496,-0.076,-0.0033,0.0278,18.0,-10.58,-41.32,256.56,-9.68,2.88,48.843872,2.353375,94.3,NaN,,15.06,,0 / 26,,163,2022-01-10 18:49:14:598
-0.3129,1.5517,9.3948,-0.4766,1.635,9.6576,0.0307,-0.1052,-0.1496,-0.076,-0.0033,0.0278,18.0,-10.58,-41.32,256.56,-9.68,2.88,48.843872,2.353375,94.3,NaN,,15.06,,0 / 26,,168,2022-01-10 18:49:14:603
-0.3129,1.5517,9.3948,-0.4766,1.635,9.6576,0.2741,-0.1484,-0.0485,-0.076,-0.0033,0.0278,18.0,-10.58,-41.32,256.56,-9.68,2.88,48.843872,2.353375,94.3,NaN,,15.06,,0 / 26,,173,2022-01-10 18:49:14:608
-0.3129,1.5517,9.3948,-0.4766,1.635,9.6576,0.2741,-0.1484,-0.0485,-0.076,-0.0033,0.0278,18.0,-10.58,-41.32,256.56,-9.68,2.88,48.843872,2.353375,94.3,NaN,,15.06,,0 / 26,,178,2022-01-10 18:49:14:613
-0.2028,1.4321,9.4881,-0.4766,1.635,9.6576,0.2741,-0.1484,-0.0485,-0.076,-0.0033,0.0278,18.0,-10.58,-41.32,256.56,-9.68,2.88,48.843872,2.353375,94.3,NaN,,15.06,,0 / 26,,182,2022-01-10 18:49:14:617
-0.2028,1.4321,9.4881,-0.4766,1.635,9.6576,0.2741,-0.1484,-0.0485,-0.076,-0.0033,0.0278,18.0,-10.58,-41.32,256.56,-9.68,2.88,48.843872,2.353375,94.3,NaN,,15.06,,0 / 26,,188,2022-01-10 18:49:14:623
-0.2028,1.4321,9.4881,-0.4736,1.6024,9.6633,0.2741,-0.1484,-0.0485,-0.0856,0.0553,-0.0297,17.33,-10.42,-41.18,259.05,-9.6,2.83,48.843872,2.353375,94.3,NaN,,15.06,,0 / 26,,193,2022-01-10 18:49:14:628
-0.2028,1.4321,9.4881,-0.4736,1.6024,9.6633,0.2741,-0.1484,-0.0485,-0.0856,0.0553,-0.0297,17.33,-10.42,-41.18,259.05,-9.6,2.83,48.843872,2.353375,94.3,NaN,,15.06,,0 / 26,,198,2022-01-10 18:49:14:633
-0.2028,1.4321,9.4881,-0.4736,1.6024,9.6633,0.166,-0.1674,0.0053,-0.0856,0.0553,-0.0297,17.33,-10.42,-41.18,259.05,-9.6,2.83,48.843872,2.353375,94.3,NaN,,15.06,,0 / 26,,203,2022-01-10 18:49:14:638
-0.3778,1.4512,9.687,-0.4736,1.6024,9.6633,0.166,-0.1674,0.0053,-0.0856,0.0553,-0.0297,17.33,-10.42,-41.18,259.05,-9.6,2.83,48.843872,2.353375,94.3,NaN,,15.06,,0 / 26,,208,2022-01-10 18:49:14:643
-0.3778,1.4512,9.687,-0.4736,1.6024,9.6633,0.166,-0.1674,0.0053,-0.0856,0.0553,-0.0297,17.33,-10.42,-41.18,259.05,-9.6,2.83,48.843872,2.353375,94.3,NaN,,15.06,,0 / 26,,212,2022-01-10 18:49:14:647
-0.3778,1.4512,9.687,-0.4736,1.6024,9.6633,0.166,-0.1674,0.0053,-0.0856,0.0553,-0.0297,17.33,-10.42,-41.18,259.05,-9.6,2.83,48.843872,2.353375,94.3,NaN,,15.06,,0 / 26,,218,2022-01-10 18:49:14:653
-0.3778,1.4512,9.687,-0.4736,1.6024,9.6633,0.166,-0.1674,0.0053,-0.0963,0.051,-0.0724,17.25,-10.42,-40.8,259.05,-9.6,2.83,48.843872,2.353375,94.3,NaN,,15.06,,0 / 26,,222,2022-01-10 18:49:14:657
-0.3778,1.4512,9.687,-0.4894,1.5676,9.6682,0.166,-0.1674,0.0053,-0.0963,0.051,-0.0724,17.25,-10.42,-40.8,259.05,-9.6,2.83,48.843872,2.353375,94.3,NaN,,15.06,,0 / 26,,228,2022-01-10 18:49:14:663
-0.3778,1.4512,9.687,-0.4894,1.5676,9.6682,0.0241,-0.0777,0.0044,-0.0963,0.051,-0.0724,17.25,-10.42,-40.8,259.05,-9.6,2.83,48.843872,2.353375,94.3,NaN,,15.06,,0 / 26,,233,2022-01-10 18:49:14:668
-0.5572,1.4608,9.5839,-0.4894,1.5676,9.6682,0.0241,-0.0777,0.0044,-0.0963,0.051,-0.0724,17.25,-10.42,-40.8,259.05,-9.6,2.83,48.843872,2.353375,94.3,NaN,,15.06,,0 / 26,,238,2022-01-10 18:49:14:673
-0.5572,1.4608,9.5839,-0.4894,1.5676,9.6682,0.0241,-0.0777,0.0044,-0.0963,0.051,-0.0724,17.25,-10.42,-40.8,259.05,-9.6,2.83,48.843872,2.353375,94.3,NaN,,15.06,,0 / 26,,243,2022-01-10 18:49:14:678
-0.5572,1.4608,9.5839,-0.4894,1.5676,9.6682,0.0241,-0.0777,0.0044,-0.0963,0.051,-0.0724,17.25,-10.42,-40.8,259.05,-9.6,2.83,48.843872,2.353375,94.3,NaN,,15.06,,0 / 26,,247,2022-01-10 18:49:14:682
-0.5572,1.4608,9.5839,-0.4954,1.5453,9.6715,0.0241,-0.0777,0.0044,-0.0664,0.0073,-0.0446,17.55,-9.9,-40.95,258.34,-9.07,2.93,48.843872,2.353375,94.3,NaN,,15.06,,0 / 26,,252,2022-01-10 18:49:14:687
-0.5572,1.4608,9.5839,-0.4954,1.5453,9.6715,0.0241,-0.0777,0.0044,-0.0664,0.0073,-0.0446,17.55,-9.9,-40.95,258.34,-9.07,2.93,48.843872,2.353375,94.3,NaN,,15.06,,0 / 26,,258,2022-01-10 18:49:14:693
-0.5477,1.5924,9.5743,-0.4954,1.5453,9.6715,-0.089,0.0195,0.026,-0.0664,0.0073,-0.0446,17.55,-9.9,-40.95,258.34,-9.07,2.93,48.843872,2.353375,94.3,NaN,,15.06,,0 / 26,,262,2022-01-10 18:49:14:697
-0.5477,1.5924,9.5743,-0.4954,1.5453,9.6715,-0.089,0.0195,0.026,-0.0664,0.0073,-0.0446,17.55,-9.9,-40.95,258.34,-9.07,2.93,48.843872,2.353375,94.3,NaN,,15.06,,0 / 26,,268,2022-01-10 18:49:14:703
-0.5477,1.5924,9.5743,-0.4954,1.5453,9.6715,-0.089,0.0195,0.026,-0.0664,0.0073,-0.0446,17.55,-9.9,-40.95,258.34,-9.07,2.93,48.843872,2.353375,94.3,NaN,,15.06,,0 / 26,,272,2022-01-10 18:49:14:707
-0.5477,1.5924,9.5743,-0.4954,1.5453,9.6715,-0.089,0.0195,0.026,-0.0664,0.0073,-0.0446,17.55,-9.9,-40.95,258.34,-9.07,2.93,48.843872,2.353375,94.3,NaN,,15.06,,0 / 26,,278,2022-01-10 18:49:14:713
-0.5477,1.5924,9.5743,-0.5078,1.5279,9.6736,-0.089,0.0195,0.026,-0.0664,0.0073,-0.0446,17.55,-9.9,-40.95,258.34,-9.07,2.93,48.843872,2.353375,94.3,NaN,,15.06,,0 / 26,,283,2022-01-10 18:49:14:718
-0.5477,1.5924,9.5743,-0.5078,1.5279,9.6736,-0.089,0.0195,0.026,-0.0611,0.0361,-0.018,17.55,-9.9,-40.95,258.34,-9.07,2.93,48.843872,2.353375,94.3,NaN,,15.06,,0 / 26,,288,2022-01-10 18:49:14:723
-0.5357,1.5039,9.6437,-0.5078,1.5279,9.6736,0.006,0.0497,0.0611,-0.0611,0.0361,-0.018,17.7,-9.53,-40.73,258.34,-9.07,2.93,48.843872,2.353375,94.3,NaN,,15.06,,0 / 26,,293,2022-01-10 18:49:14:728
-0.5357,1.5039,9.6437,-0.5078,1.5279,9.6736,0.006,0.0497,0.0611,-0.0611,0.0361,-0.018,17.7,-9.53,-40.73,258.34,-9.07,2.93,48.843872,2.353375,94.3,NaN,,15.06,,0 / 26,,297,2022-01-10 18:49:14:732
-0.5357,1.5039,9.6437,-0.5078,1.5279,9.6736,0.006,0.0497,0.0611,-0.0611,0.0361,-0.018,17.7,-9.53,-40.73,258.34,-9.07,2.93,48.843872,2.353375,94.3,NaN,,15.06,,0 / 26,,304,2022-01-10 18:49:14:739
-0.5357,1.5039,9.6437,-0.5078,1.5279,9.6736,0.006,0.0497,0.0611,-0.0611,0.0361,-0.018,17.7,-9.53,-40.73,258.34,-9.07,2.93,48.843872,2.353375,94.3,NaN,,15.06,,0 / 26,,308,2022-01-10 18:49:14:743
-0.5357,1.5039,9.6437,-0.5124,1.5125,9.6758,0.006,0.0497,0.0611,-0.0611,0.0361,-0.018,17.7,-9.53,-40.73,258.34,-9.07,2.93,48.843872,2.353375,94.3,NaN,,15.06,,0 / 26,,313,2022-01-10 18:49:14:748
-0.5357,1.5039,9.6437,-0.5124,1.5125,9.6758,0.006,0.0497,0.0611,-0.0611,0.0361,-0.018,17.7,-9.53,-40.73,258.34,-9.07,2.93,48.843872,2.353375,94.3,NaN,,15.06,,0 / 26,,317,2022-01-10 18:49:14:752
-0.4998,1.5613,9.754,-0.5124,1.5125,9.6758,-0.0021,0.0402,0.1631,-0.0558,-0.0129,-0.0574,17.55,-9.6,-40.73,257.8,-8.87,3.03,48.843872,2.353375,94.3,NaN,,15.06,,0 / 26,,322,2022-01-10 18:49:14:757
-0.4998,1.5613,9.754,-0.5124,1.5125,9.6758,-0.0021,0.0402,0.1631,-0.0558,-0.0129,-0.0574,17.55,-9.6,-40.73,257.8,-8.87,3.03,48.843872,2.353375,94.3,NaN,,15.06,,0 / 26,,327,2022-01-10 18:49:14:762
-0.4998,1.5613,9.754,-0.5124,1.5125,9.6758,-0.0021,0.0402,0.1631,-0.0558,-0.0129,-0.0574,17.55,-9.6,-40.73,257.8,-8.87,3.03,48.843872,2.353375,94.3,NaN,,15.06,,0 / 26,,332,2022-01-10 18:49:14:767
-0.4998,1.5613,9.754,-0.5124,1.5125,9.6758,-0.0021,0.0402,0.1631,-0.0558,-0.0129,-0.0574,17.55,-9.6,-40.73,257.8,-8.87,3.03,48.843872,2.353375,94.3,NaN,,15.06,,0 / 26,,338,2022-01-10 18:49:14:773
-0.4998,1.5613,9.754,-0.5057,1.4972,9.6785,-0.0021,0.0402,0.1631,-0.0558,-0.0129,-0.0574,17.55,-9.6,-40.73,257.8,-8.87,3.03,48.843872,2.353375,94.3,NaN,,15.06,,0 / 26,,342,2022-01-10 18:49:14:777
-0.5046,1.6235,9.6389,-0.5057,1.4972,9.6785,-0.0021,0.0402,0.1631,-0.0558,-0.0129,-0.0574,17.55,-9.6,-40.73,257.8,-8.87,3.03,48.843872,2.353375,94.3,NaN,,15.06,,0 / 26,,348,2022-01-10 18:49:14:783
-0.5046,1.6235,9.6389,-0.5057,1.4972,9.6785,-0.0378,0.121,0.0446,-0.0526,-0.0513,-0.035,17.55,-9.6,-40.73,257.8,-8.87,3.03,48.843872,2.353375,94.3,NaN,,15.06,,0 / 26,,352,2022-01-10 18:49:14:787
-0.5046,1.6235,9.6389,-0.5057,1.4972,9.6785,-0.0378,0.121,0.0446,-0.0526,-0.0513,-0.035,17.55,-9.6,-40.73,257.8,-8.87,3.03,48.843872,2.353375,94.3,NaN,,15.06,,0 / 26,,357,2022-01-10 18:49:14:792
-0.5046,1.6235,9.6389,-0.5057,1.4972,9.6785,-0.0378,0.121,0.0446,-0.0526,-0.0513,-0.035,17.55,-10.58,-40.35,257.8,-8.87,3.03,48.843872,2.353375,94.3,NaN,,15.06,,0 / 26,,362,2022-01-10 18:49:14:797
-0.5046,1.6235,9.6389,-0.5057,1.4972,9.6785,-0.0378,0.121,0.0446,-0.0526,-0.0513,-0.035,17.55,-10.58,-40.35,257.8,-8.87,3.03,48.843872,2.353375,94.3,NaN,,15.06,,0 / 26,,368,2022-01-10 18:49:14:803
-0.5453,1.5757,9.6269,-0.4964,1.4886,9.6803,-0.0378,0.121,0.0446,-0.0526,-0.0513,-0.035,17.55,-10.58,-40.35,257.8,-8.87,3.03,48.843872,2.353375,94.3,NaN,,15.06,,0 / 26,,373,2022-01-10 18:49:14:808
-0.5453,1.5757,9.6269,-0.4964,1.4886,9.6803,-0.0378,0.121,0.0446,-0.0526,-0.0513,-0.035,17.55,-10.58,-40.35,257.8,-8.87,3.03,48.843872,2.353375,94.3,NaN,,15.06,,0 / 26,,378,2022-01-10 18:49:14:813
-0.5453,1.5757,9.6269,-0.4964,1.4886,9.6803,-0.0378,0.121,0.0446,-0.0526,-0.0513,-0.035,17.55,-10.58,-40.35,257.8,-8.87,3.03,48.843872,2.353375,94.3,NaN,,15.06,,0 / 26,,382,2022-01-10 18:49:14:817
-0.5453,1.5757,9.6269,-0.4964,1.4886,9.6803,-0.042,0.1089,0.0014,-0.0324,0.0617,0.0044,17.55,-10.58,-40.35,257.8,-8.87,3.03,48.843872,2.353375,94.3,NaN,,15.06,,0 / 26,,388,2022-01-10 18:49:14:823
-0.5453,1.5757,9.6269,-0.4964,1.4886,9.6803,-0.042,0.1089,0.0014,-0.0324,0.0617,0.0044,17.55,-10.72,-40.35,253.66,-8.73,2.94,48.843872,2.353375,94.3,NaN,,15.06,,0 / 26,,393,2022-01-10 18:49:14:828
-0.5453,1.5757,9.6269,-0.5123,1.4835,9.6802,-0.042,0.1089,0.0014,-0.0324,0.0617,0.0044,17.55,-10.72,-40.35,253.66,-8.73,2.94,48.843872,2.353375,94.3,NaN,,15.06,,0 / 26,,398,2022-01-10 18:49:14:833
-0.615,1.5398,9.6461,-0.5123,1.4835,9.6802,-0.042,0.1089,0.0014,-0.0324,0.0617,0.0044,17.55,-10.72,-40.35,253.66,-8.73,2.94,48.843872,2.353375,94.3,NaN,,15.06,,0 / 26,,403,2022-01-10 18:49:14:838
-0.615,1.5398,9.6461,-0.5123,1.4835,9.6802,-0.042,0.1089,0.0014,-0.0324,0.0617,0.0044,17.55,-10.72,-40.35,253.66,-8.73,2.94,48.843872,2.353375,94.3,NaN,,15.06,,0 / 26,,408,2022-01-10 18:49:14:843
-0.615,1.5398,9.6461,-0.5123,1.4835,9.6802,-0.042,0.1089,0.0014,-0.0324,0.0617,0.0044,17.55,-10.72,-40.35,253.66,-8.73,2.94,48.843872,2.353375,94.3,NaN,,15.06,,0 / 26,,412,2022-01-10 18:49:14:847
-0.615,1.5398,9.6461,-0.5123,1.4835,9.6802,-0.0629,0.0415,0.0087,-0.0324,0.0617,0.0044,17.55,-10.72,-40.35,253.66,-8.73,2.94,48.843872,2.353375,94.3,NaN,,15.06,,0 / 26,,417,2022-01-10 18:49:14:852
-0.615,1.5398,9.6461,-0.5123,1.4835,9.6802,-0.0629,0.0415,0.0087,-0.0483,-0.0012,0.0129,17.55,-10.72,-40.35,253.66,-8.73,2.94,48.843872,2.353375,94.3,NaN,,15.06,,0 / 26,,422,2022-01-10 18:49:14:857
-0.615,1.5398,9.6461,-0.52,1.4749,9.6812,-0.0629,0.0415,0.0087,-0.0483,-0.0012,0.0129,17.55,-10.72,-40.35,253.66,-8.73,2.94,48.843872,2.353375,94.3,NaN,,15.06,,0 / 26,,427,2022-01-10 18:49:14:862
-0.5477,1.3959,9.6751,-0.52,1.4749,9.6812,-0.0629,0.0415,0.0087,-0.0483,-0.0012,0.0129,17.48,-9.83,-40.43,253.66,-8.73,2.94,48.843872,2.353375,94.3,NaN,,15.06,,0 / 26,,433,2022-01-10 18:49:14:868
-0.5477,1.3959,9.6751,-0.52,1.4749,9.6812,-0.0629,0.0415,0.0087,-0.0483,-0.0012,0.0129,17.48,-9.83,-40.43,253.66,-8.73,2.94,48.843872,2.353375,94.3,NaN,,15.06,,0 / 26,,437,2022-01-10 18:49:14:872
-0.5477,1.3959,9.6751,-0.52,1.4749,9.6812,-0.0629,0.0415,0.0087,-0.0483,-0.0012,0.0129,17.48,-9.83,-40.43,253.66,-8.73,2.94,48.843872,2.353375,94.3,NaN,,15.06,,0 / 26,,442,2022-01-10 18:49:14:877
-0.5477,1.3959,9.6751,-0.52,1.4749,9.6812,-0.0385,-0.0454,0.0373,-0.0483,-0.0012,0.0129,17.48,-9.83,-40.43,253.66,-8.73,2.94,48.843872,2.353375,94.3,NaN,,15.06,,0 / 26,,448,2022-01-10 18:49:14:883
-0.5477,1.3959,9.6751,-0.5144,1.4552,9.6844,-0.0385,-0.0454,0.0373,-0.0814,-0.0427,0.0204,17.48,-9.83,-40.43,253.66,-8.73,2.94,48.843872,2.353375,94.3,NaN,,15.06,,0 / 26,,452,2022-01-10 18:49:14:887
-0.4831,1.3026,9.5192,-0.5144,1.4552,9.6844,-0.0385,-0.0454,0.0373,-0.0814,-0.0427,0.0204,17.48,-9.83,-40.43,253.66,-8.73,2.94,48.843872,2.353375,94.3,NaN,,15.06,,0 / 26,,457,2022-01-10 18:49:14:892
-0.4831,1.3026,9.5192,-0.5144,1.4552,9.6844,-0.0385,-0.0454,0.0373,-0.0814,-0.0427,0.0204,17.78,-9.3,-41.02,260.36,-8.53,3.04,48.843872,2.353375,94.3,NaN,,15.06,,0 / 26,,462,2022-01-10 18:49:14:897
-0.4831,1.3026,9.5192,-0.5144,1.4552,9.6844,-0.0385,-0.0454,0.0373,-0.0814,-0.0427,0.0204,17.78,-9.3,-41.02,260.36,-8.53,3.04,48.843872,2.353375,94.3,NaN,,15.06,,0 / 26,,468,2022-01-10 18:49:14:903
-0.4831,1.3026,9.5192,-0.5144,1.4552,9.6844,-0.0385,-0.0454,0.0373,-0.0814,-0.0427,0.0204,17.78,-9.3,-41.02,260.36,-8.53,3.04,48.843872,2.353375,94.3,NaN,,15.06,,0 / 26,,473,2022-01-10 18:49:14:908
-0.4831,1.3026,9.5192,-0.5144,1.4552,9.6844,0.0512,-0.1182,-0.0985,-0.0814,-0.0427,0.0204,17.78,-9.3,-41.02,260.36,-8.53,3.04,48.843872,2.353375,94.3,NaN,,15.06,,0 / 26,,478,2022-01-10 18:49:14:913
-0.4831,1.3026,9.5192,-0.5144,1.4552,9.6844,0.0512,-0.1182,-0.0985,-0.0814,-0.0427,0.0204,17.78,-9.3,-41.02,260.36,-8.53,3.04,48.843872,2.353375,94.3,NaN,,15.06,,0 / 26,,483,2022-01-10 18:49:14:918
-0.277,1.3744,9.6365,-0.4962,1.4146,9.6914,0.0512,-0.1182,-0.0985,-0.124,-0.0832,-0.0073,17.78,-9.3,-41.02,260.36,-8.53,3.04,48.843872,2.353375,94.3,NaN,,15.06,,0 / 26,,487,2022-01-10 18:49:14:922
-0.277,1.3744,9.6365,-0.4962,1.4146,9.6914,0.0512,-0.1182,-0.0985,-0.124,-0.0832,-0.0073,17.85,-9.37,-40.95,260.36,-8.53,3.04,48.843872,2.353375,94.3,NaN,,15.06,,0 / 26,,492,2022-01-10 18:49:14:927
-0.277,1.3744,9.6365,-0.4962,1.4146,9.6914,0.0512,-0.1182,-0.0985,-0.124,-0.0832,-0.0073,17.85,-9.37,-40.95,260.36,-8.53,3.04,48.843872,2.353375,94.3,NaN,,15.06,,0 / 26,,497,2022-01-10 18:49:14:932
-0.277,1.3744,9.6365,-0.4962,1.4146,9.6914,0.0512,-0.1182,-0.0985,-0.124,-0.0832,-0.0073,17.85,-9.37,-40.95,260.36,-8.53,3.04,48.843872,2.353375,94.3,NaN,,15.06,,0 / 26,,502,2022-01-10 18:49:14:937
-0.277,1.3744,9.6365,-0.4962,1.4146,9.6914,0.205,0.0057,0.1665,-0.124,-0.0832,-0.0073,17.85,-9.37,-40.95,260.36,-8.53,3.04,48.843872,2.353375,94.3,NaN,,15.06,,0 / 26,,508,2022-01-10 18:49:14:943
-0.277,1.4177,9.9506,-0.4962,1.4146,9.6914,0.205,0.0057,0.1665,-0.124,-0.0832,-0.0073,17.85,-9.37,-40.95,260.36,-8.53,3.04,48.843872,2.353375,94.3,NaN,,15.06,,0 / 26,,513,2022-01-10 18:49:14:948
-0.277,1.4177,9.9506,-0.4681,1.3739,9.6986,0.205,0.0057,0.1665,-0.174,0.019,-0.0948,17.85,-9.37,-40.95,260.36,-8.53,3.04,48.843872,2.353375,94.3,NaN,,15.06,,0 / 26,,517,2022-01-10 18:49:14:952
-0.277,1.4177,9.9506,-0.4681,1.3739,9.6986,0.205,0.0057,0.1665,-0.174,0.019,-0.0948,18.23,-9.37,-41.1,259.2,-8.05,2.76,48.843872,2.353375,94.3,NaN,,15.06,,0 / 26,,522,2022-01-10 18:49:14:957
-0.6461,0.821,10.1085,-0.4785,0.9275,9.751,-0.4375,-0.0015,-0.2043,-0.8323,-0.0854,-0.1896,17.85,-7.8,-41.1,255.67,-6.66,2.75,48.843872,2.353375,94.3,NaN,,15.06,,0 / 26,,624,2022-01-10 18:49:15:059
-0.6461,0.821,10.1085,-0.4785,0.9275,9.751,-0.4375,-0.0015,-0.2043,-0.8323,-0.0854,-0.1896,17.85,-7.8,-41.1,255.67,-6.66,2.75,48.843872,2.353375,94.3,NaN,,15.06,,0 / 26,,625,2022-01-10 18:49:15:060
-0.6461,0.821,10.1085,-0.4785,0.9275,9.751,-0.4375,-0.0015,-0.2043,-0.8323,-0.0854,-0.1896,17.85,-7.8,-41.1,255.67,-6.66,2.75,48.843872,2.353375,94.3,NaN,,15.06,,0 / 26,,625,2022-01-10 18:49:15:060
-0.6461,0.821,10.1085,-0.4785,0.9275,9.751,-0.4375,-0.0015,-0.2043,-0.8323,-0.0854,-0.1896,17.85,-7.8,-41.1,255.67,-6.66,2.75,48.843872,2.353375,94.3,NaN,,15.06,,0 / 26,,626,2022-01-10 18:49:15:061
-0.6461,0.821,10.1085,-0.4785,0.9275,9.751,-0.4375,-0.0015,-0.2043,-0.8323,-0.0854,-0.1896,17.85,-7.8,-41.1,255.67,-6.66,2.75,48.843872,2.353375,94.3,NaN,,15.06,,0 / 26,,626,2022-01-10 18:49:15:061
-0.6461,0.821,10.1085,-0.4785,0.9275,9.751,-0.4375,-0.0015,-0.2043,-0.8323,-0.0854,-0.1896,17.85,-7.8,-41.1,255.67,-6.66,2.75,48.843872,2.353375,94.3,NaN,,15.06,,0 / 26,,626,2022-01-10 18:49:15:061
-0.6461,0.821,10.1085,-0.4785,0.9275,9.751,-0.4375,-0.0015,-0.2043,-0.8323,-0.0854,-0.1896,17.85,-7.8,-41.1,255.67,-6.66,2.75,48.843872,2.353375,94.3,NaN,,15.06,,0 / 26,,626,2022-01-10 18:49:15:061
-0.6461,0.821,10.1085,-0.4785,0.9275,9.751,-0.4375,-0.0015,-0.2043,-0.8323,-0.0854,-0.1896,17.85,-7.8,-41.1,255.67,-6.66,2.75,48.843872,2.353375,94.3,NaN,,15.06,,0 / 26,,626,2022-01-10 18:49:15:061
-0.6461,0.821,10.1085,-0.4785,0.9275,9.751,-0.4375,-0.0015,-0.2043,-0.8323,-0.0854,-0.1896,17.85,-7.8,-41.1,255.67,-6.66,2.75,48.843872,2.353375,94.3,NaN,,15.06,,0 / 26,,626,2022-01-10 18:49:15:061
-0.6461,0.821,10.1085,-0.4785,0.9275,9.751,-0.4375,-0.0015,-0.2043,-0.8323,-0.0854,-0.1896,17.85,-7.8,-41.1,255.67,-6.66,2.75,48.843872,2.353375,94.3,NaN,,15.06,,0 / 26,,627,2022-01-10 18:49:15:062
-0.6461,0.821,10.1085,-0.4785,0.9275,9.751,-0.4375,-0.0015,-0.2043,-0.8323,-0.0854,-0.1896,17.85,-7.8,-41.1,255.67,-6.66,2.75,48.843872,2.353375,94.3,NaN,,15.06,,0 / 26,,627,2022-01-10 18:49:15:062
-0.6461,0.821,10.1085,-0.4785,0.9275,9.751,-0.4375,-0.0015,-0.2043,-0.8323,-0.0854,-0.1896,17.85,-7.8,-41.1,255.67,-6.66,2.75,48.843872,2.353375,94.3,NaN,,15.06,,0 / 26,,627,2022-01-10 18:49:15:062
-0.6461,0.821,10.1085,-0.4785,0.9275,9.751,-0.4375,-0.0015,-0.2043,-0.8323,-0.0854,-0.1896,17.85,-7.8,-41.1,255.67,-6.66,2.75,48.843872,2.353375,94.3,NaN,,15.06,,0 / 26,,627,2022-01-10 18:49:15:062
-0.6461,0.821,10.1085,-0.4785,0.9275,9.751,-0.4375,-0.0015,-0.2043,-0.8323,-0.0854,-0.1896,17.85,-7.8,-41.1,255.67,-6.66,2.75,48.843872,2.353375,94.3,NaN,,15.06,,0 / 26,,628,2022-01-10 18:49:15:063
-0.6461,0.821,10.1085,-0.4785,0.9275,9.751,-0.4375,-0.0015,-0.2043,-0.8323,-0.0854,-0.1896,17.85,-7.8,-41.1,255.67,-6.66,2.75,48.843872,2.353375,94.3,NaN,,15.06,,0 / 26,,628,2022-01-10 18:49:15:063
-0.6461,0.821,10.1085,-0.4785,0.9275,9.751,-0.4375,-0.0015,-0.2043,-0.8323,-0.0854,-0.1896,17.85,-7.8,-41.1,255.67,-6.66,2.75,48.843872,2.353375,94.3,NaN,,15.06,,0 / 26,,628,2022-01-10 18:49:15:063
-0.6461,0.821,10.1085,-0.4785,0.9275,9.751,-0.4375,-0.0015,-0.2043,-0.8323,-0.0854,-0.1896,17.85,-7.8,-41.1,255.67,-6.66,2.75,48.843872,2.353375,94.3,NaN,,15.06,,0 / 26,,628,2022-01-10 18:49:15:063
-0.6461,0.821,10.1085,-0.4785,0.9275,9.751,-0.4375,-0.0015,-0.2043,-0.8323,-0.0854,-0.1896,17.85,-7.8,-41.1,255.67,-6.66,2.75,48.843872,2.353375,94.3,NaN,,15.06,,0 / 26,,628,2022-01-10 18:49:15:063
-0.6461,0.821,10.1085,-0.4785,0.9275,9.751,-0.4375,-0.0015,-0.2043,-0.8323,-0.0854,-0.1896,17.85,-7.8,-41.1,255.67,-6.66,2.75,48.843872,2.353375,94.3,NaN,,15.06,,0 / 26,,628,2022-01-10 18:49:15:063
-0.6461,0.821,10.1085,-0.4785,0.9275,9.751,-0.4375,-0.0015,-0.2043,-0.8323,-0.0854,-0.1896,17.85,-7.8,-41.1,255.67,-6.66,2.75,48.843872,2.353375,94.3,NaN,,15.06,,0 / 26,,628,2022-01-10 18:49:15:063
-0.6461,0.821,10.1085,-0.4785,0.9275,9.751,-0.4375,-0.0015,-0.2043,-0.8323,-0.0854,-0.1896,17.85,-7.8,-41.1,255.67,-6.66,2.75,48.843872,2.353375,94.3,NaN,,15.06,,0 / 26,,629,2022-01-10 18:49:15:064
-0.6461,0.821,10.1085,-0.4683,0.6995,9.7705,-0.1666,0.1349,0.5282,-0.8323,-0.0854,-0.1896,17.85,-7.8,-41.1,255.67,-6.66,2.75,48.843872,2.353375,94.3,NaN,,15.06,,0 / 26,,632,2022-01-10 18:49:15:067
-0.6461,0.821,10.1085,-0.4683,0.6995,9.7705,-0.1666,0.1349,0.5282,-0.5415,-0.1216,-0.0873,17.85,-7.8,-41.1,255.67,-6.66,2.75,48.843872,2.353375,94.3,NaN,,15.06,,0 / 26,,638,2022-01-10 18:49:15:073
-0.6461,0.821,10.1085,-0.4683,0.6995,9.7705,-0.1666,0.1349,0.5282,-0.5415,-0.1216,-0.0873,17.85,-7.8,-41.1,255.67,-6.66,2.75,48.843872,2.353375,94.3,NaN,,15.06,,0 / 26,,642,2022-01-10 18:49:15:077
-0.0879,0.5336,10.3433,-0.4683,0.6995,9.7705,-0.1666,0.1349,0.5282,-0.5415,-0.1216,-0.0873,17.85,-7.8,-41.1,255.67,-6.66,2.75,48.843872,2.353375,94.3,NaN,,15.06,,0 / 26,,648,2022-01-10 18:49:15:083
-0.0879,0.5336,10.3433,-0.4683,0.6995,9.7705,-0.1666,0.1349,0.5282,-0.5415,-0.1216,-0.0873,17.48,-6.67,-40.65,255.07,-4.09,2.74,48.843872,2.353375,94.3,NaN,,15.06,,0 / 26,,653,2022-01-10 18:49:15:088
-0.0879,0.5336,10.3433,-0.4683,0.6995,9.7705,-0.1666,0.1349,0.5282,-0.5415,-0.1216,-0.0873,17.48,-6.67,-40.65,255.07,-4.09,2.74,48.843872,2.353375,94.3,NaN,,15.06,,0 / 26,,658,2022-01-10 18:49:15:093
-0.0879,0.5336,10.3433,-0.4261,0.5481,9.782,0.3345,-0.0108,0.5064,-0.5415,-0.1216,-0.0873,17.48,-6.67,-40.65,255.07,-4.09,2.74,48.843872,2.353375,94.3,NaN,,15.06,,0 / 26,,663,2022-01-10 18:49:15:098
-0.0879,0.5336,10.3433,-0.4261,0.5481,9.782,0.3345,-0.0108,0.5064,-0.5415,-0.1216,-0.0873,17.48,-6.67,-40.65,255.07,-4.09,2.74,48.843872,2.353375,94.3,NaN,,15.06,,0 / 26,,668,2022-01-10 18:49:15:103
-0.0879,0.5336,10.3433,-0.4261,0.5481,9.782,0.3345,-0.0108,0.5064,-0.4137,-0.0939,-0.1662,17.48,-6.67,-40.65,255.07,-4.09,2.74,48.843872,2.353375,94.3,NaN,,15.06,,0 / 26,,673,2022-01-10 18:49:15:108
-0.2243,0.7828,9.9529,-0.4261,0.5481,9.782,0.3345,-0.0108,0.5064,-0.4137,-0.0939,-0.1662,17.48,-6.67,-40.65,255.07,-4.09,2.74,48.843872,2.353375,94.3,NaN,,15.06,,0 / 26,,678,2022-01-10 18:49:15:113
-0.2243,0.7828,9.9529,-0.4261,0.5481,9.782,0.3345,-0.0108,0.5064,-0.4137,-0.0939,-0.1662,17.48,-6.67,-40.65,255.07,-4.09,2.74,48.843872,2.353375,94.3,NaN,,15.06,,0 / 26,,684,2022-01-10 18:49:15:119
-0.2243,0.7828,9.9529,-0.4261,0.5481,9.782,0.3345,-0.0108,0.5064,-0.4137,-0.0939,-0.1662,17.48,-6.67,-40.65,255.07,-4.09,2.74,48.843872,2.353375,94.3,NaN,,15.06,,0 / 26,,688,2022-01-10 18:49:15:123
-0.2243,0.7828,9.9529,-0.3884,0.437,9.7892,-0.0161,0.3383,0.1794,-0.4137,-0.0939,-0.1662,17.4,-5.7,-41.02,255.07,-4.09,2.74,48.843872,2.353375,94.3,NaN,,15.06,,0 / 26,,692,2022-01-10 18:49:15:127
-0.2243,0.7828,9.9529,-0.3884,0.437,9.7892,-0.0161,0.3383,0.1794,-0.4137,-0.0939,-0.1662,17.4,-5.7,-41.02,255.07,-4.09,2.74,48.843872,2.353375,94.3,NaN,,15.06,,0 / 26,,698,2022-01-10 18:49:15:133
-0.6365,0.4857,9.5958,-0.3884,0.437,9.7892,-0.0161,0.3383,0.1794,-0.3935,-0.178,-0.1481,17.4,-5.7,-41.02,255.07,-4.09,2.74,48.843872,2.353375,94.3,NaN,,15.06,,0 / 26,,703,2022-01-10 18:49:15:138
-0.6365,0.4857,9.5958,-0.3884,0.437,9.7892,-0.0161,0.3383,0.1794,-0.3935,-0.178,-0.1481,17.4,-5.7,-41.02,255.07,-4.09,2.74,48.843872,2.353375,94.3,NaN,,15.06,,0 / 26,,708,2022-01-10 18:49:15:143
-0.6365,0.4857,9.5958,-0.3884,0.437,9.7892,-0.0161,0.3383,0.1794,-0.3935,-0.178,-0.1481,17.4,-5.7,-41.02,255.07,-4.09,2.74,48.843872,2.353375,94.3,NaN,,15.06,,0 / 26,,712,2022-01-10 18:49:15:147
-0.6365,0.4857,9.5958,-0.3437,0.3341,9.7949,-0.0161,0.3383,0.1794,-0.3935,-0.178,-0.1481,17.4,-5.7,-41.02,255.07,-4.09,2.74,48.843872,2.353375,94.3,NaN,,15.06,,0 / 26,,718,2022-01-10 18:49:15:153
-0.6365,0.4857,9.5958,-0.3437,0.3341,9.7949,-0.036,-0.389,-0.107,-0.3935,-0.178,-0.1481,17.55,-5.32,-41.47,257.8,-1.95,2.01,48.843872,2.353375,94.3,NaN,,15.06,,0 / 26,,723,2022-01-10 18:49:15:158
-0.6365,0.4857,9.5958,-0.3437,0.3341,9.7949,-0.036,-0.389,-0.107,-0.3935,-0.178,-0.1481,17.55,-5.32,-41.47,257.8,-1.95,2.01,48.843872,2.353375,94.3,NaN,,15.06,,0 / 26,,727,2022-01-10 18:49:15:162
-0.6915,0.4211,10.1611,-0.3437,0.3341,9.7949,-0.036,-0.389,-0.107,-0.3935,-0.178,-0.1481,17.55,-5.32,-41.47,257.8,-1.95,2.01,48.843872,2.353375,94.3,NaN,,15.06,,0 / 26,,733,2022-01-10 18:49:15:168
-0.6915,0.4211,10.1611,-0.3437,0.3341,9.7949,-0.036,-0.389,-0.107,-0.516,-0.1365,-0.0842,17.55,-5.32,-41.47,257.8,-1.95,2.01,48.843872,2.353375,94.3,NaN,,15.06,,0 / 26,,738,2022-01-10 18:49:15:173
-0.6915,0.4211,10.1611,-0.3437,0.3341,9.7949,-0.036,-0.389,-0.107,-0.516,-0.1365,-0.0842,17.55,-5.32,-41.47,257.8,-1.95,2.01,48.843872,2.353375,94.3,NaN,,15.06,,0 / 26,,743,2022-01-10 18:49:15:178
-0.6915,0.4211,10.1611,-0.3039,0.1888,9.8001,-0.036,-0.389,-0.107,-0.516,-0.1365,-0.0842,17.55,-5.32,-41.47,257.8,-1.95,2.01,48.843872,2.353375,94.3,NaN,,15.06,,0 / 26,,747,2022-01-10 18:49:15:182
-0.6915,0.4211,10.1611,-0.3039,0.1888,9.8001,-0.2571,0.3644,0.9943,-0.516,-0.1365,-0.0842,17.48,-4.65,-41.7,257.8,-1.95,2.01,48.843872,2.353375,94.3,NaN,,15.06,,0 / 26,,754,2022-01-10 18:49:15:189
-0.3897,0.2821,10.384,-0.3039,0.1888,9.8001,-0.2571,0.3644,0.9943,-0.516,-0.1365,-0.0842,17.48,-4.65,-41.7,257.8,-1.95,2.01,48.843872,2.353375,94.3,NaN,,15.06,,0 / 26,,758,2022-01-10 18:49:15:193
-0.3897,0.2821,10.384,-0.3039,0.1888,9.8001,-0.2571,0.3644,0.9943,-0.516,-0.1365,-0.0842,17.48,-4.65,-41.7,257.8,-1.95,2.01,48.843872,2.353375,94.3,NaN,,15.06,,0 / 26,,762,2022-01-10 18:49:15:197
-0.3897,0.2821,10.384,-0.3039,0.1888,9.8001,-0.2571,0.3644,0.9943,-0.222,-0.1652,-0.1097,17.48,-4.65,-41.7,257.8,-1.95,2.01,48.843872,2.353375,94.3,NaN,,15.06,,0 / 26,,768,2022-01-10 18:49:15:203
-0.3897,0.2821,10.384,-0.3039,0.1888,9.8001,-0.2571,0.3644,0.9943,-0.222,-0.1652,-0.1097,17.48,-4.65,-41.7,257.8,-1.95,2.01,48.843872,2.353375,94.3,NaN,,15.06,,0 / 26,,772,2022-01-10 18:49:15:207
-0.3897,0.2821,10.384,-0.2684,0.1163,9.8023,-0.2571,0.3644,0.9943,-0.222,-0.1652,-0.1097,17.48,-4.65,-41.7,257.8,-1.95,2.01,48.843872,2.353375,94.3,NaN,,15.06,,0 / 26,,778,2022-01-10 18:49:15:213
-0.3897,0.2821,10.384,-0.2684,0.1163,9.8023,-0.2571,0.3644,0.9943,-0.222,-0.1652,-0.1097,17.48,-4.65,-41.7,257.8,-1.95,2.01,48.843872,2.353375,94.3,NaN,,15.06,,0 / 26,,783,2022-01-10 18:49:15:218
-0.3392,-0.015,9.6607,-0.2684,0.1163,9.8023,-0.1114,-0.0603,0.0047,-0.222,-0.1652,-0.1097,17.48,-4.65,-41.7,257.8,-1.95,2.01,48.843872,2.353375,94.3,NaN,,15.06,,0 / 26,,788,2022-01-10 18:49:15:223
-0.3392,-0.015,9.6607,-0.2684,0.1163,9.8023,-0.1114,-0.0603,0.0047,-0.222,-0.1652,-0.1097,17.48,-4.65,-41.7,257.8,-1.95,2.01,48.843872,2.353375,94.3,NaN,,15.06,,0 / 26,,792,2022-01-10 18:49:15:227
-0.3392,-0.015,9.6607,-0.2684,0.1163,9.8023,-0.1114,-0.0603,0.0047,-0.222,-0.1652,-0.1097,17.03,-4.12,-41.85,257.56,-0.68,1.57,48.843872,2.353375,94.3,NaN,,15.06,,0 / 26,,797,2022-01-10 18:49:15:232
-0.3392,-0.015,9.6607,-0.2684,0.1163,9.8023,-0.1114,-0.0603,0.0047,-0.1282,-0.08,0.015,17.03,-4.12,-41.85,257.56,-0.68,1.57,48.843872,2.353375,94.3,NaN,,15.06,,0 / 26,,803,2022-01-10 18:49:15:238
-0.3392,-0.015,9.6607,-0.2684,0.1163,9.8023,-0.1114,-0.0603,0.0047,-0.1282,-0.08,0.015,17.03,-4.12,-41.85,257.56,-0.68,1.57,48.843872,2.353375,94.3,NaN,,15.06,,0 / 26,,808,2022-01-10 18:49:15:243
-0.3849,0.0763,9.7947,-0.2376,0.0729,9.8035,-0.1114,-0.0603,0.0047,-0.1282,-0.08,0.015,17.03,-4.12,-41.85,257.56,-0.68,1.57,48.843872,2.353375,94.3,NaN,,15.06,,0 / 26,,813,2022-01-10 18:49:15:248
-0.3849,0.0763,9.7947,-0.2376,0.0729,9.8035,-0.1415,-0.0356,0.1033,-0.1282,-0.08,0.015,17.03,-4.12,-41.85,257.56,-0.68,1.57,48.843872,2.353375,94.3,NaN,,15.06,,0 / 26,,817,2022-01-10 18:49:15:252
-0.3849,0.0763,9.7947,-0.2376,0.0729,9.8035,-0.1415,-0.0356,0.1033,-0.1282,-0.08,0.015,17.03,-4.12,-41.85,257.56,-0.68,1.57,48.843872,2.353375,94.3,NaN,,15.06,,0 / 26,,823,2022-01-10 18:49:15:258
-0.3849,0.0763,9.7947,-0.2376,0.0729,9.8035,-0.1415,-0.0356,0.1033,-0.1282,-0.08,0.015,17.03,-4.12,-41.85,257.56,-0.68,1.57,48.843872,2.353375,94.3,NaN,,15.06,,0 / 26,,827,2022-01-10 18:49:15:262
-0.3849,0.0763,9.7947,-0.2376,0.0729,9.8035,-0.1415,-0.0356,0.1033,-0.157,-0.1312,-0.0308,16.8,-3.9,-42.07,257.56,-0.68,1.57,48.843872,2.353375,94.3,NaN,,15.06,,0 / 26,,833,2022-01-10 18:49:15:268
-0.2171,0.1074,9.5695,-0.2167,0.0368,9.8042,-0.1415,-0.0356,0.1033,-0.157,-0.1312,-0.0308,16.8,-3.9,-42.07,257.56,-0.68,1.57,48.843872,2.353375,94.3,NaN,,15.06,,0 / 26,,837,2022-01-10 18:49:15:272
-0.2171,0.1074,9.5695,-0.2167,0.0368,9.8042,-0.1415,-0.0356,0.1033,-0.157,-0.1312,-0.0308,16.8,-3.9,-42.07,257.56,-0.68,1.57,48.843872,2.353375,94.3,NaN,,15.06,,0 / 26,,842,2022-01-10 18:49:15:277
-0.2171,0.1074,9.5695,-0.2167,0.0368,9.8042,-0.0224,0.0597,-0.3069,-0.157,-0.1312,-0.0308,16.8,-3.9,-42.07,257.56,-0.68,1.57,48.843872,2.353375,94.3,NaN,,15.06,,0 / 26,,848,2022-01-10 18:49:15:283
-0.2171,0.1074,9.5695,-0.2167,0.0368,9.8042,-0.0224,0.0597,-0.3069,-0.157,-0.1312,-0.0308,16.8,-3.9,-42.07,257.56,-0.68,1.57,48.843872,2.353375,94.3,NaN,,15.06,,0 / 26,,852,2022-01-10 18:49:15:287
-0.2171,0.1074,9.5695,-0.2167,0.0368,9.8042,-0.0224,0.0597,-0.3069,-0.157,-0.1312,-0.0308,16.8,-3.9,-42.07,257.56,-0.68,1.57,48.843872,2.353375,94.3,NaN,,15.06,,0 / 26,,858,2022-01-10 18:49:15:293
-0.0087,-0.0676,9.4666,-0.2167,0.0368,9.8042,-0.0224,0.0597,-0.3069,-0.206,0.0531,0.0193,16.8,-3.9,-42.07,257.56,-0.68,1.57,48.843872,2.353375,94.3,NaN,,15.06,,0 / 26,,863,2022-01-10 18:49:15:298
-0.0087,-0.0676,9.4666,-0.2069,-0.016,9.8045,-0.0224,0.0597,-0.3069,-0.206,0.0531,0.0193,16.8,-3.9,-42.07,257.56,-0.68,1.57,48.843872,2.353375,94.3,NaN,,15.06,,0 / 26,,867,2022-01-10 18:49:15:302
-0.0087,-0.0676,9.4666,-0.2069,-0.016,9.8045,-0.0224,0.0597,-0.3069,-0.206,0.0531,0.0193,16.73,-3.38,-42.07,259.21,0.09,1.21,48.843872,2.353375,94.3,NaN,,15.06,,0 / 26,,873,2022-01-10 18:49:15:308
-0.0087,-0.0676,9.4666,-0.2069,-0.016,9.8045,0.1817,0.0029,-0.1507,-0.206,0.0531,0.0193,16.73,-3.38,-42.07,259.21,0.09,1.21,48.843872,2.353375,94.3,NaN,,15.06,,0 / 26,,878,2022-01-10 18:49:15:313
-0.0087,-0.0676,9.4666,-0.2069,-0.016,9.8045,0.1817,0.0029,-0.1507,-0.206,0.0531,0.0193,16.73,-3.38,-42.07,259.21,0.09,1.21,48.843872,2.353375,94.3,NaN,,15.06,,0 / 26,,882,2022-01-10 18:49:15:317
-0.0087,-0.0676,9.4666,-0.2069,-0.016,9.8045,0.1817,0.0029,-0.1507,-0.206,0.0531,0.0193,16.73,-3.38,-42.07,259.21,0.09,1.21,48.843872,2.353375,94.3,NaN,,15.06,,0 / 26,,887,2022-01-10 18:49:15:322
-0.0685,-0.0508,9.373,-0.2069,-0.016,9.8045,0.1817,0.0029,-0.1507,-0.2859,0.1639,-0.0361,16.73,-3.38,-42.07,259.21,0.09,1.21,48.843872,2.353375,94.3,NaN,,15.06,,0 / 26,,892,2022-01-10 18:49:15:327
-0.0685,-0.0508,9.373,-0.249,-0.0935,9.803,0.1817,0.0029,-0.1507,-0.2859,0.1639,-0.0361,16.73,-3.38,-42.07,259.21,0.09,1.21,48.843872,2.353375,94.3,NaN,,15.06,,0 / 26,,897,2022-01-10 18:49:15:332
-0.0685,-0.0508,9.373,-0.249,-0.0935,9.803,0.1817,0.0029,-0.1507,-0.2859,0.1639,-0.0361,16.65,-3.3,-41.93,259.21,0.09,1.21,48.843872,2.353375,94.3,NaN,,15.06,,0 / 26,,902,2022-01-10 18:49:15:337
-0.0685,-0.0508,9.373,-0.249,-0.0935,9.803,0.0416,-0.0367,-0.3354,-0.2859,0.1639,-0.0361,16.65,-3.3,-41.93,259.21,0.09,1.21,48.843872,2.353375,94.3,NaN,,15.06,,0 / 26,,908,2022-01-10 18:49:15:343
-0.0685,-0.0508,9.373,-0.249,-0.0935,9.803,0.0416,-0.0367,-0.3354,-0.2859,0.1639,-0.0361,16.65,-3.3,-41.93,259.21,0.09,1.21,48.843872,2.353375,94.3,NaN,,15.06,,0 / 26,,913,2022-01-10 18:49:15:348
-0.6556,-0.2258,9.5336,-0.249,-0.0935,9.803,0.0416,-0.0367,-0.3354,-0.2859,0.1639,-0.0361,16.65,-3.3,-41.93,259.21,0.09,1.21,48.843872,2.353375,94.3,NaN,,15.06,,0 / 26,,918,2022-01-10 18:49:15:353
-0.6556,-0.2258,9.5336,-0.249,-0.0935,9.803,0.0416,-0.0367,-0.3354,-0.3338,0.1714,0.0289,16.65,-3.3,-41.93,259.21,0.09,1.21,48.843872,2.353375,94.3,NaN,,15.06,,0 / 26,,923,2022-01-10 18:49:15:358
-0.6556,-0.2258,9.5336,-0.3132,-0.1861,9.7999,0.0416,-0.0367,-0.3354,-0.3338,0.1714,0.0289,16.65,-3.3,-41.93,259.21,0.09,1.21,48.843872,2.353375,94.3,NaN,,15.06,,0 / 26,,927,2022-01-10 18:49:15:362
-0.6556,-0.2258,9.5336,-0.3132,-0.1861,9.7999,0.0416,-0.0367,-0.3354,-0.3338,0.1714,0.0289,16.65,-3.3,-41.93,259.21,0.09,1.21,48.843872,2.353375,94.3,NaN,,15.06,,0 / 26,,933,2022-01-10 18:49:15:368
-0.6556,-0.2258,9.5336,-0.3132,-0.1861,9.7999,-0.0555,0.009,-0.1532,-0.3338,0.1714,0.0289,16.65,-3.3,-41.93,259.21,0.09,1.21,48.843872,2.353375,94.3,NaN,,15.06,,0 / 26,,939,2022-01-10 18:49:15:374
-0.6556,-0.2258,9.5336,-0.3132,-0.1861,9.7999,-0.0555,0.009,-0.1532,-0.3338,0.1714,0.0289,17.33,-2.93,-42.07,256.33,1.09,1.83,48.843872,2.353375,94.3,NaN,,15.06,,0 / 26,,942,2022-01-10 18:49:15:377
-0.1454,-0.2833,9.5886,-0.3132,-0.1861,9.7999,-0.0555,0.009,-0.1532,-0.3338,0.1714,0.0289,17.33,-2.93,-42.07,256.33,1.09,1.83,48.843872,2.353375,94.3,NaN,,15.06,,0 / 26,,948,2022-01-10 18:49:15:383
-0.1454,-0.2833,9.5886,-0.3132,-0.1861,9.7999,-0.0555,0.009,-0.1532,-0.3019,0.2417,0.0129,17.33,-2.93,-42.07,256.33,1.09,1.83,48.843872,2.353375,94.3,NaN,,15.06,,0 / 26,,952,2022-01-10 18:49:15:387
-0.1454,-0.2833,9.5886,-0.3626,-0.2828,9.7959,-0.0555,0.009,-0.1532,-0.3019,0.2417,0.0129,17.33,-2.93,-42.07,256.33,1.09,1.83,48.843872,2.353375,94.3,NaN,,15.06,,0 / 26,,958,2022-01-10 18:49:15:393
-0.1454,-0.2833,9.5886,-0.3626,-0.2828,9.7959,-0.0555,0.009,-0.1532,-0.3019,0.2417,0.0129,17.33,-2.93,-42.07,256.33,1.09,1.83,48.843872,2.353375,94.3,NaN,,15.06,,0 / 26,,962,2022-01-10 18:49:15:397
-0.1454,-0.2833,9.5886,-0.3626,-0.2828,9.7959,0.2085,-0.1179,-0.0736,-0.3019,0.2417,0.0129,17.33,-2.93,-42.07,256.33,1.09,1.83,48.843872,2.353375,94.3,NaN,,15.06,,0 / 26,,967,2022-01-10 18:49:15:402
-0.1454,-0.2833,9.5886,-0.3626,-0.2828,9.7959,0.2085,-0.1179,-0.0736,-0.3019,0.2417,0.0129,16.8,-1.8,-42.45,256.33,1.09,1.83,48.843872,2.353375,94.3,NaN,,15.06,,0 / 26,,972,2022-01-10 18:49:15:407
-0.2937,-0.5109,9.5599,-0.3626,-0.2828,9.7959,0.2085,-0.1179,-0.0736,-0.3019,0.2417,0.0129,16.8,-1.8,-42.45,256.33,1.09,1.83,48.843872,2.353375,94.3,NaN,,15.06,,0 / 26,,977,2022-01-10 18:49:15:412
-0.2937,-0.5109,9.5599,-0.3626,-0.2828,9.7959,0.2085,-0.1179,-0.0736,-0.1762,0.2076,0.0172,16.8,-1.8,-42.45,256.33,1.09,1.83,48.843872,2.353375,94.3,NaN,,15.06,,0 / 26,,983,2022-01-10 18:49:15:418
-0.2937,-0.5109,9.5599,-0.4325,-0.3621,9.7904,0.2085,-0.1179,-0.0736,-0.1762,0.2076,0.0172,16.8,-1.8,-42.45,256.33,1.09,1.83,48.843872,2.353375,94.3,NaN,,15.06,,0 / 26,,987,2022-01-10 18:49:15:422
-0.2937,-0.5109,9.5599,-0.4325,-0.3621,9.7904,0.2085,-0.1179,-0.0736,-0.1762,0.2076,0.0172,16.8,-1.8,-42.45,256.33,1.09,1.83,48.843872,2.353375,94.3,NaN,,15.06,,0 / 26,,992,2022-01-10 18:49:15:427
-0.2937,-0.5109,9.5599,-0.4325,-0.3621,9.7904,-0.0257,-0.165,0.0938,-0.1762,0.2076,0.0172,16.8,-1.8,-42.45,256.33,1.09,1.83,48.843872,2.353375,94.3,NaN,,15.06,,0 / 26,,998,2022-01-10 18:49:15:433
-0.5501,-0.5324,9.996,-0.4325,-0.3621,9.7904,-0.0257,-0.165,0.0938,-0.1762,0.2076,0.0172,17.18,-1.57,-41.77,256.7,2.12,2.53,48.843872,2.353375,94.3,NaN,,15.06,,0 / 26,,1003,2022-01-10 18:49:15:438
-0.5501,-0.5324,9.996,-0.4325,-0.3621,9.7904,-0.0257,-0.165,0.0938,-0.1762,0.2076,0.0172,17.18,-1.57,-41.77,256.7,2.12,2.53,48.843872,2.353375,94.3,NaN,,15.06,,0 / 26,,1008,2022-01-10 18:49:15:443
-0.5501,-0.5324,9.996,-0.4598,-0.3667,9.789,-0.0257,-0.165,0.0938,0.2073,-0.0822,0.1482,17.18,-1.57,-41.77,256.7,2.12,2.53,48.843872,2.353375,94.3,NaN,,15.06,,0 / 26,,1013,2022-01-10 18:49:15:448
-0.5501,-0.5324,9.996,-0.4598,-0.3667,9.789,-0.0257,-0.165,0.0938,0.2073,-0.0822,0.1482,17.18,-1.57,-41.77,256.7,2.12,2.53,48.843872,2.353375,94.3,NaN,,15.06,,0 / 26,,1017,2022-01-10 18:49:15:452
-0.5501,-0.5324,9.996,-0.4598,-0.3667,9.789,-0.0257,-0.165,0.0938,0.2073,-0.0822,0.1482,17.18,-1.57,-41.77,256.7,2.12,2.53,48.843872,2.353375,94.3,NaN,,15.06,,0 / 26,,1022,2022-01-10 18:49:15:457
-0.5501,-0.5324,9.996,-0.4598,-0.3667,9.789,-0.0255,-0.2237,0.4653,0.2073,-0.0822,0.1482,17.18,-1.57,-41.77,256.7,2.12,2.53,48.843872,2.353375,94.3,NaN,,15.06,,0 / 26,,1028,2022-01-10 18:49:15:463
-0.2985,-0.5133,10.2284,-0.4598,-0.3667,9.789,-0.0255,-0.2237,0.4653,0.2073,-0.0822,0.1482,17.18,-1.57,-41.77,256.7,2.12,2.53,48.843872,2.353375,94.3,NaN,,15.06,,0 / 26,,1033,2022-01-10 18:49:15:468
-0.2985,-0.5133,10.2284,-0.4598,-0.3667,9.789,-0.0255,-0.2237,0.4653,0.2073,-0.0822,0.1482,17.18,-1.57,-41.77,256.7,2.12,2.53,48.843872,2.353375,94.3,NaN,,15.06,,0 / 26,,1037,2022-01-10 18:49:15:472
-0.2985,-0.5133,10.2284,-0.4219,-0.2536,9.7943,-0.0255,-0.2237,0.4653,0.2073,-0.0822,0.1482,17.48,-2.1,-41.18,256.7,2.12,2.53,48.843872,2.353375,94.3,NaN,,15.06,,0 / 26,,1043,2022-01-10 18:49:15:478
-0.2985,-0.5133,10.2284,-0.4219,-0.2536,9.7943,-0.0255,-0.2237,0.4653,0.6048,-0.0875,0.2537,17.48,-2.1,-41.18,256.7,2.12,2.53,48.843872,2.353375,94.3,NaN,,15.06,,0 / 26,,1048,2022-01-10 18:49:15:483
-0.2985,-0.5133,10.2284,-0.4219,-0.2536,9.7943,-0.0255,-0.2237,0.4653,0.6048,-0.0875,0.2537,17.48,-2.1,-41.18,256.7,2.12,2.53,48.843872,2.353375,94.3,NaN,,15.06,,0 / 26,,1052,2022-01-10 18:49:15:487
-0.2052,-0.0604,9.8545,-0.4219,-0.2536,9.7943,-0.0255,-0.2237,0.4653,0.6048,-0.0875,0.2537,17.48,-2.1,-41.18,256.7,2.12,2.53,48.843872,2.353375,94.3,NaN,,15.06,,0 / 26,,1057,2022-01-10 18:49:15:492
-0.2052,-0.0604,9.8545,-0.4219,-0.2536,9.7943,0.2115,-0.0344,0.1103,0.6048,-0.0875,0.2537,17.48,-2.1,-41.18,256.7,2.12,2.53,48.843872,2.353375,94.3,NaN,,15.06,,0 / 26,,1063,2022-01-10 18:49:15:498
-0.2052,-0.0604,9.8545,-0.4219,-0.2536,9.7943,0.2115,-0.0344,0.1103,0.6048,-0.0875,0.2537,17.48,-2.1,-41.18,256.7,2.12,2.53,48.843872,2.353375,94.3,NaN,,15.06,,0 / 26,,1068,2022-01-10 18:49:15:503
-0.2052,-0.0604,9.8545,-0.3953,-0.1003,9.7982,0.2115,-0.0344,0.1103,0.6048,-0.0875,0.2537,17.4,-2.62,-41.77,257.34,0.59,2.31,48.843872,2.353375,94.3,NaN,,15.06,,0 / 26,,1074,2022-01-10 18:49:15:509
-0.2052,-0.0604,9.8545,-0.3953,-0.1003,9.7982,0.2115,-0.0344,0.1103,0.3991,0.0574,0.0971,17.4,-2.62,-41.77,257.34,0.59,2.31,48.843872,2.353375,94.3,NaN,,15.06,,0 / 26,,1078,2022-01-10 18:49:15:513
-0.2052,-0.0604,9.8545,-0.3953,-0.1003,9.7982,0.2115,-0.0344,0.1103,0.3991,0.0574,0.0971,17.4,-2.62,-41.77,257.34,0.59,2.31,48.843872,2.353375,94.3,NaN,,15.06,,0 / 26,,1083,2022-01-10 18:49:15:518
-0.2195,0.3275,9.2605,-0.3953,-0.1003,9.7982,0.1343,0.4191,-0.4023,0.3991,0.0574,0.0971,17.4,-2.62,-41.77,257.34,0.59,2.31,48.843872,2.353375,94.3,NaN,,15.06,,0 / 26,,1088,2022-01-10 18:49:15:523
-0.2195,0.3275,9.2605,-0.3953,-0.1003,9.7982,0.1343,0.4191,-0.4023,0.3991,0.0574,0.0971,17.4,-2.62,-41.77,257.34,0.59,2.31,48.843872,2.353375,94.3,NaN,,15.06,,0 / 26,,1092,2022-01-10 18:49:15:527
-0.2195,0.3275,9.2605,-0.4194,-4.0E-4,9.7977,0.1343,0.4191,-0.4023,0.3991,0.0574,0.0971,17.4,-2.62,-41.77,257.34,0.59,2.31,48.843872,2.353375,94.3,NaN,,15.06,,0 / 26,,1098,2022-01-10 18:49:15:533
-0.2195,0.3275,9.2605,-0.4194,-4.0E-4,9.7977,0.1343,0.4191,-0.4023,0.3991,0.0574,0.0971,17.25,-2.85,-42.22,257.34,0.59,2.31,48.843872,2.353375,94.3,NaN,,15.06,,0 / 26,,1103,2022-01-10 18:49:15:538
-0.2195,0.3275,9.2605,-0.4194,-4.0E-4,9.7977,0.1343,0.4191,-0.4023,-0.0441,0.0776,0.0204,17.25,-2.85,-42.22,257.34,0.59,2.31,48.843872,2.353375,94.3,NaN,,15.06,,0 / 26,,1108,2022-01-10 18:49:15:543
-0.3706,-0.2091,9.7804,-0.4194,-4.0E-4,9.7977,0.1343,0.4191,-0.4023,-0.0441,0.0776,0.0204,17.25,-2.85,-42.22,257.34,0.59,2.31,48.843872,2.353375,94.3,NaN,,15.06,,0 / 26,,1114,2022-01-10 18:49:15:549
-0.3706,-0.2091,9.7804,-0.4194,-4.0E-4,9.7977,0.1132,-0.2646,-0.2453,-0.0441,0.0776,0.0204,17.25,-2.85,-42.22,257.34,0.59,2.31,48.843872,2.353375,94.3,NaN,,15.06,,0 / 26,,1118,2022-01-10 18:49:15:553
-0.3706,-0.2091,9.7804,-0.4194,-4.0E-4,9.7977,0.1132,-0.2646,-0.2453,-0.0441,0.0776,0.0204,17.25,-2.85,-42.22,257.34,0.59,2.31,48.843872,2.353375,94.3,NaN,,15.06,,0 / 26,,1122,2022-01-10 18:49:15:557
-0.3706,-0.2091,9.7804,-0.4194,-4.0E-4,9.7977,0.1132,-0.2646,-0.2453,-0.0441,0.0776,0.0204,17.25,-2.85,-42.22,257.34,0.59,2.31,48.843872,2.353375,94.3,NaN,,15.06,,0 / 26,,1128,2022-01-10 18:49:15:563
-0.3706,-0.2091,9.7804,-0.4352,-0.0167,9.797,0.1132,-0.2646,-0.2453,-0.0441,0.0776,0.0204,17.25,-2.85,-42.22,257.34,0.59,2.31,48.843872,2.353375,94.3,NaN,,15.06,,0 / 26,,1133,2022-01-10 18:49:15:568
-0.3706,-0.2091,9.7804,-0.4352,-0.0167,9.797,0.1132,-0.2646,-0.2453,0.071,0.1064,-0.0073,17.25,-2.85,-42.22,257.34,0.59,2.31,48.843872,2.353375,94.3,NaN,,15.06,,0 / 26,,1137,2022-01-10 18:49:15:572
-0.4687,0.0568,10.2906,-0.4352,-0.0167,9.797,0.1132,-0.2646,-0.2453,0.071,0.1064,-0.0073,17.4,-3.22,-42.0,258.51,0.1,2.54,48.843872,2.353375,94.3,NaN,,15.06,,0 / 26,,1143,2022-01-10 18:49:15:578
-0.4687,0.0568,10.2906,-0.4352,-0.0167,9.797,-0.0611,0.1125,0.6456,0.071,0.1064,-0.0073,17.4,-3.22,-42.0,258.51,0.1,2.54,48.843872,2.353375,94.3,NaN,,15.06,,0 / 26,,1148,2022-01-10 18:49:15:583
-0.4687,0.0568,10.2906,-0.4352,-0.0167,9.797,-0.0611,0.1125,0.6456,0.071,0.1064,-0.0073,17.4,-3.22,-42.0,258.51,0.1,2.54,48.843872,2.353375,94.3,NaN,,15.06,,0 / 26,,1153,2022-01-10 18:49:15:588
-0.4687,0.0568,10.2906,-0.4352,-0.0167,9.797,-0.0611,0.1125,0.6456,0.071,0.1064,-0.0073,17.4,-3.22,-42.0,258.51,0.1,2.54,48.843872,2.353375,94.3,NaN,,15.06,,0 / 26,,1157,2022-01-10 18:49:15:592
-0.4687,0.0568,10.2906,-0.4742,0.0265,9.7951,-0.0611,0.1125,0.6456,0.071,0.1064,-0.0073,17.4,-3.22,-42.0,258.51,0.1,2.54,48.843872,2.353375,94.3,NaN,,15.06,,0 / 26,,1163,2022-01-10 18:49:15:598
-0.4687,0.0568,10.2906,-0.4742,0.0265,9.7951,-0.0611,0.1125,0.6456,0.071,0.1064,-0.0073,17.4,-3.22,-42.0,258.51,0.1,2.54,48.843872,2.353375,94.3,NaN,,15.06,,0 / 26,,1168,2022-01-10 18:49:15:603
-0.3754,0.1457,9.6823,-0.4742,0.0265,9.7951,-0.0611,0.1125,0.6456,0.218,0.2651,-0.0297,17.48,-3.15,-41.62,258.51,0.1,2.54,48.843872,2.353375,94.3,NaN,,15.06,,0 / 26,,1172,2022-01-10 18:49:15:607
-0.3754,0.1457,9.6823,-0.4742,0.0265,9.7951,0.1308,0.1383,-0.0991,0.218,0.2651,-0.0297,17.48,-3.15,-41.62,258.51,0.1,2.54,48.843872,2.353375,94.3,NaN,,15.06,,0 / 26,,1177,2022-01-10 18:49:15:612
-0.3754,0.1457,9.6823,-0.4742,0.0265,9.7951,0.1308,0.1383,-0.0991,0.218,0.2651,-0.0297,17.48,-3.15,-41.62,258.51,0.1,2.54,48.843872,2.353375,94.3,NaN,,15.06,,0 / 26,,1183,2022-01-10 18:49:15:618
-0.3754,0.1457,9.6823,-0.4742,0.0265,9.7951,0.1308,0.1383,-0.0991,0.218,0.2651,-0.0297,17.48,-3.15,-41.62,258.51,0.1,2.54,48.843872,2.353375,94.3,NaN,,15.06,,0 / 26,,1187,2022-01-10 18:49:15:622
-0.3754,0.1457,9.6823,-0.5606,0.0868,9.7902,0.1308,0.1383,-0.0991,0.218,0.2651,-0.0297,17.48,-3.15,-41.62,258.51,0.1,2.54,48.843872,2.353375,94.3,NaN,,15.06,,0 / 26,,1193,2022-01-10 18:49:15:628
-0.4974,0.0209,9.3227,-0.5606,0.0868,9.7902,0.1308,0.1383,-0.0991,0.218,0.2651,-0.0297,17.48,-3.15,-41.62,258.51,0.1,2.54,48.843872,2.353375,94.3,NaN,,15.06,,0 / 26,,1198,2022-01-10 18:49:15:633
-0.4974,0.0209,9.3227,-0.5606,0.0868,9.7902,0.1308,0.1383,-0.0991,0.0486,0.2768,-0.0041,17.48,-3.15,-41.62,258.51,0.1,2.54,48.843872,2.353375,94.3,NaN,,15.06,,0 / 26,,1203,2022-01-10 18:49:15:638
-0.4974,0.0209,9.3227,-0.5606,0.0868,9.7902,0.0949,-0.0709,-0.4393,0.0486,0.2768,-0.0041,17.48,-3.15,-41.62,258.51,0.1,2.54,48.843872,2.353375,94.3,NaN,,15.06,,0 / 26,,1207,2022-01-10 18:49:15:642
-0.4974,0.0209,9.3227,-0.5606,0.0868,9.7902,0.0949,-0.0709,-0.4393,0.0486,0.2768,-0.0041,18.38,-3.3,-40.87,260.45,-0.51,3.28,48.843872,2.353375,94.3,NaN,,15.06,,0 / 26,,1213,2022-01-10 18:49:15:648
-0.4974,0.0209,9.3227,-0.5606,0.0868,9.7902,0.0949,-0.0709,-0.4393,0.0486,0.2768,-0.0041,18.38,-3.3,-40.87,260.45,-0.51,3.28,48.843872,2.353375,94.3,NaN,,15.06,,0 / 26,,1217,2022-01-10 18:49:15:652
-0.4974,0.0209,9.3227,-0.6319,0.0992,9.7858,0.0949,-0.0709,-0.4393,0.0486,0.2768,-0.0041,18.38,-3.3,-40.87,260.45,-0.51,3.28,48.843872,2.353375,94.3,NaN,,15.06,,0 / 26,,1223,2022-01-10 18:49:15:658
-0.7681,0.0329,9.5647,-0.6319,0.0992,9.7858,0.0949,-0.0709,-0.4393,0.0486,0.2768,-0.0041,18.38,-3.3,-40.87,260.45,-0.51,3.28,48.843872,2.353375,94.3,NaN,,15.06,,0 / 26,,1228,2022-01-10 18:49:15:663
-0.7681,0.0329,9.5647,-0.6319,0.0992,9.7858,0.0949,-0.0709,-0.4393,0.0475,0.0457,-0.0244,18.38,-3.3,-40.87,260.45,-0.51,3.28,48.843872,2.353375,94.3,NaN,,15.06,,0 / 26,,1232,2022-01-10 18:49:15:667
-0.7681,0.0329,9.5647,-0.6319,0.0992,9.7858,-0.1717,0.0175,-0.0507,0.0475,0.0457,-0.0244,18.38,-3.3,-40.87,260.45,-0.51,3.28,48.843872,2.353375,94.3,NaN,,15.06,,0 / 26,,1240,2022-01-10 18:49:15:675
-0.7681,0.0329,9.5647,-0.6319,0.0992,9.7858,-0.1717,0.0175,-0.0507,0.0475,0.0457,-0.0244,18.45,-3.68,-41.18,260.45,-0.51,3.28,48.843872,2.353375,94.3,NaN,,15.06,,0 / 26,,1243,2022-01-10 18:49:15:678
-0.7681,0.0329,9.5647,-0.6319,0.0992,9.7858,-0.1717,0.0175,-0.0507,0.0475,0.0457,-0.0244,18.45,-3.68,-41.18,260.45,-0.51,3.28,48.843872,2.353375,94.3,NaN,,15.06,,0 / 26,,1247,2022-01-10 18:49:15:682
-0.7681,0.0329,9.5647,-0.6319,0.0992,9.7858,-0.1717,0.0175,-0.0507,0.0475,0.0457,-0.0244,18.45,-3.68,-41.18,260.45,-0.51,3.28,48.843872,2.353375,94.3,NaN,,15.06,,0 / 26,,1253,2022-01-10 18:49:15:688
-0.7801,0.1696,9.7277,-0.6491,0.1218,9.7844,-0.1717,0.0175,-0.0507,0.0475,0.0457,-0.0244,18.45,-3.68,-41.18,260.45,-0.51,3.28,48.843872,2.353375,94.3,NaN,,15.06,,0 / 26,,1257,2022-01-10 18:49:15:692
-0.7801,0.1696,9.7277,-0.6491,0.1218,9.7844,-0.1717,0.0175,-0.0507,0.1519,-0.0566,0.0246,18.45,-3.68,-41.18,260.45,-0.51,3.28,48.843872,2.353375,94.3,NaN,,15.06,,0 / 26,,1262,2022-01-10 18:49:15:697
-0.7801,0.1696,9.7277,-0.6491,0.1218,9.7844,-0.1717,0.0175,-0.0507,0.1519,-0.0566,0.0246,18.45,-3.68,-41.18,260.45,-0.51,3.28,48.843872,2.353375,94.3,NaN,,15.06,,0 / 26,,1268,2022-01-10 18:49:15:703
-0.7801,0.1696,9.7277,-0.6491,0.1218,9.7844,9.0E-4,-0.0751,-0.006,0.1519,-0.0566,0.0246,18.45,-3.82,-41.02,257.15,-0.71,3.8,48.843872,2.353375,94.3,NaN,,15.06,,0 / 26,,1272,2022-01-10 18:49:15:707
-0.7801,0.1696,9.7277,-0.6491,0.1218,9.7844,9.0E-4,-0.0751,-0.006,0.1519,-0.0566,0.0246,18.45,-3.82,-41.02,257.15,-0.71,3.8,48.843872,2.353375,94.3,NaN,,15.06,,0 / 26,,1277,2022-01-10 18:49:15:712
-0.6245,0.2701,9.7253,-0.6389,0.1668,9.7844,9.0E-4,-0.0751,-0.006,0.1519,-0.0566,0.0246,18.45,-3.82,-41.02,257.15,-0.71,3.8,48.843872,2.353375,94.3,NaN,,15.06,,0 / 26,,1282,2022-01-10 18:49:15:717
-0.6245,0.2701,9.7253,-0.6389,0.1668,9.7844,9.0E-4,-0.0751,-0.006,0.1519,-0.0566,0.0246,18.45,-3.82,-41.02,257.15,-0.71,3.8,48.843872,2.353375,94.3,NaN,,15.06,,0 / 26,,1287,2022-01-10 18:49:15:722
-0.6245,0.2701,9.7253,-0.6389,0.1668,9.7844,9.0E-4,-0.0751,-0.006,0.1317,-0.03,-0.002,18.45,-3.82,-41.02,257.15,-0.71,3.8,48.843872,2.353375,94.3,NaN,,15.06,,0 / 26,,1292,2022-01-10 18:49:15:727
-0.6245,0.2701,9.7253,-0.6389,0.1668,9.7844,9.0E-4,-0.0751,-0.006,0.1317,-0.03,-0.002,18.45,-3.82,-41.02,257.15,-0.71,3.8,48.843872,2.353375,94.3,NaN,,15.06,,0 / 26,,1298,2022-01-10 18:49:15:733
-0.6245,0.2701,9.7253,-0.6389,0.1668,9.7844,9.0E-4,-0.0751,-0.006,0.1317,-0.03,-0.002,18.45,-3.82,-41.02,257.15,-0.71,3.8,48.843872,2.353375,94.3,NaN,,15.06,,0 / 26,,1303,2022-01-10 18:49:15:738
-0.6245,0.2701,9.7253,-0.6389,0.1668,9.7844,-0.1303,0.0552,-0.1248,0.1317,-0.03,-0.002,17.78,-4.35,-41.47,257.15,-0.71,3.8,48.843872,2.353375,94.3,NaN,,15.06,,0 / 26,,1308,2022-01-10 18:49:15:743
-0.5955,0.1026,9.7205,-0.6389,0.1668,9.7844,-0.1303,0.0552,-0.1248,0.1317,-0.03,-0.002,17.78,-4.35,-41.47,257.15,-0.71,3.8,48.843872,2.353375,94.3,NaN,,15.06,,0 / 26,,1313,2022-01-10 18:49:15:748
-0.5955,0.1026,9.7205,-0.6266,0.2032,9.7845,-0.1303,0.0552,-0.1248,0.1317,-0.03,-0.002,17.78,-4.35,-41.47,257.15,-0.71,3.8,48.843872,2.353375,94.3,NaN,,15.06,,0 / 26,,1318,2022-01-10 18:49:15:753
-0.5955,0.1026,9.7205,-0.6266,0.2032,9.7845,-0.1303,0.0552,-0.1248,0.0624,-0.0875,0.0044,17.78,-4.35,-41.47,257.15,-0.71,3.8,48.843872,2.353375,94.3,NaN,,15.06,,0 / 26,,1322,2022-01-10 18:49:15:757
-0.5955,0.1026,9.7205,-0.6266,0.2032,9.7845,-0.1303,0.0552,-0.1248,0.0624,-0.0875,0.0044,17.78,-4.35,-41.47,257.15,-0.71,3.8,48.843872,2.353375,94.3,NaN,,15.06,,0 / 26,,1328,2022-01-10 18:49:15:763
-0.5955,0.1026,9.7205,-0.6266,0.2032,9.7845,-0.0305,-0.0404,0.0829,0.0624,-0.0875,0.0044,17.78,-4.35,-41.47,257.15,-0.71,3.8,48.843872,2.353375,94.3,NaN,,15.06,,0 / 26,,1332,2022-01-10 18:49:15:767
-0.6604,0.2653,9.912,-0.6266,0.2032,9.7845,-0.0305,-0.0404,0.0829,0.0624,-0.0875,0.0044,17.78,-4.35,-41.47,257.15,-0.71,3.8,48.843872,2.353375,94.3,NaN,,15.06,,0 / 26,,1337,2022-01-10 18:49:15:772
-0.6604,0.2653,9.912,-0.6073,0.2243,9.7853,-0.0305,-0.0404,0.0829,0.0624,-0.0875,0.0044,18.08,-4.65,-41.93,254.96,-1.19,3.66,48.843872,2.353375,94.3,NaN,,15.06,,0 / 26,,1342,2022-01-10 18:49:15:777
-0.6604,0.2653,9.912,-0.6073,0.2243,9.7853,-0.0305,-0.0404,0.0829,0.0624,-0.0875,0.0044,18.08,-4.65,-41.93,254.96,-1.19,3.66,48.843872,2.353375,94.3,NaN,,15.06,,0 / 26,,1347,2022-01-10 18:49:15:782
-0.6604,0.2653,9.912,-0.6073,0.2243,9.7853,-0.0305,-0.0404,0.0829,0.1242,-0.0459,0.0332,18.08,-4.65,-41.93,254.96,-1.19,3.66,48.843872,2.353375,94.3,NaN,,15.06,,0 / 26,,1353,2022-01-10 18:49:15:788
-0.6604,0.2653,9.912,-0.6073,0.2243,9.7853,-0.0305,-0.0404,0.0829,0.1242,-0.0459,0.0332,18.08,-4.65,-41.93,254.96,-1.19,3.66,48.843872,2.353375,94.3,NaN,,15.06,,0 / 26,,1357,2022-01-10 18:49:15:792
-0.562,0.1481,9.6655,-0.6073,0.2243,9.7853,-0.037,0.0623,0.039,0.1242,-0.0459,0.0332,18.08,-4.65,-41.93,254.96,-1.19,3.66,48.843872,2.353375,94.3,NaN,,15.06,,0 / 26,,1363,2022-01-10 18:49:15:798
-0.562,0.1481,9.6655,-0.6073,0.2243,9.7853,-0.037,0.0623,0.039,0.1242,-0.0459,0.0332,18.08,-4.65,-41.93,254.96,-1.19,3.66,48.843872,2.353375,94.3,NaN,,15.06,,0 / 26,,1367,2022-01-10 18:49:15:802
-0.562,0.1481,9.6655,-0.5908,0.2632,9.7853,-0.037,0.0623,0.039,0.1242,-0.0459,0.0332,17.85,-4.5,-41.32,254.96,-1.19,3.66,48.843872,2.353375,94.3,NaN,,15.06,,0 / 26,,1373,2022-01-10 18:49:15:808
-0.562,0.1481,9.6655,-0.5908,0.2632,9.7853,-0.037,0.0623,0.039,0.1242,-0.0459,0.0332,17.85,-4.5,-41.32,254.96,-1.19,3.66,48.843872,2.353375,94.3,NaN,,15.06,,0 / 26,,1378,2022-01-10 18:49:15:813
-0.562,0.1481,9.6655,-0.5908,0.2632,9.7853,-0.037,0.0623,0.039,0.1242,-0.0459,0.0332,17.85,-4.5,-41.32,254.96,-1.19,3.66,48.843872,2.353375,94.3,NaN,,15.06,,0 / 26,,1382,2022-01-10 18:49:15:817
-0.5764,0.2868,9.373,-0.5908,0.2632,9.7853,-0.037,0.0623,0.039,0.0827,-0.0704,-0.0084,17.85,-4.5,-41.32,254.96,-1.19,3.66,48.843872,2.353375,94.3,NaN,,15.06,,0 / 26,,1388,2022-01-10 18:49:15:823
-0.5764,0.2868,9.373,-0.5908,0.2632,9.7853,-0.037,0.0623,0.039,0.0827,-0.0704,-0.0084,17.85,-4.5,-41.32,254.96,-1.19,3.66,48.843872,2.353375,94.3,NaN,,15.06,,0 / 26,,1393,2022-01-10 18:49:15:828
-0.5764,0.2868,9.373,-0.5908,0.2632,9.7853,0.0324,0.0053,-0.3424,0.0827,-0.0704,-0.0084,17.85,-4.5,-41.32,254.96,-1.19,3.66,48.843872,2.353375,94.3,NaN,,15.06,,0 / 26,,1398,2022-01-10 18:49:15:833
-0.5764,0.2868,9.373,-0.5908,0.2632,9.7853,0.0324,0.0053,-0.3424,0.0827,-0.0704,-0.0084,17.7,-4.27,-41.7,259.56,-1.54,3.45,48.843872,2.353375,94.3,NaN,,15.06,,0 / 26,,1403,2022-01-10 18:49:15:838
-0.5764,0.2868,9.373,-0.5689,0.2782,9.7862,0.0324,0.0053,-0.3424,0.0827,-0.0704,-0.0084,17.7,-4.27,-41.7,259.56,-1.54,3.45,48.843872,2.353375,94.3,NaN,,15.06,,0 / 26,,1408,2022-01-10 18:49:15:843
-0.5764,0.2868,9.373,-0.5689,0.2782,9.7862,0.0324,0.0053,-0.3424,0.0827,-0.0704,-0.0084,17.7,-4.27,-41.7,259.56,-1.54,3.45,48.843872,2.353375,94.3,NaN,,15.06,,0 / 26,,1413,2022-01-10 18:49:15:848
-0.5357,0.2007,9.8761,-0.5689,0.2782,9.7862,0.0324,0.0053,-0.3424,-0.0228,-0.0609,0.0119,17.7,-4.27,-41.7,259.56,-1.54,3.45,48.843872,2.353375,94.3,NaN,,15.06,,0 / 26,,1418,2022-01-10 18:49:15:853
-0.5357,0.2007,9.8761,-0.5689,0.2782,9.7862,0.0205,-0.0548,0.2265,-0.0228,-0.0609,0.0119,17.7,-4.27,-41.7,259.56,-1.54,3.45,48.843872,2.353375,94.3,NaN,,15.06,,0 / 26,,1423,2022-01-10 18:49:15:858
-0.5357,0.2007,9.8761,-0.5689,0.2782,9.7862,0.0205,-0.0548,0.2265,-0.0228,-0.0609,0.0119,17.7,-4.27,-41.7,259.56,-1.54,3.45,48.843872,2.353375,94.3,NaN,,15.06,,0 / 26,,1429,2022-01-10 18:49:15:864
-0.5357,0.2007,9.8761,-0.5689,0.2782,9.7862,0.0205,-0.0548,0.2265,-0.0228,-0.0609,0.0119,17.7,-4.27,-41.7,259.56,-1.54,3.45,48.843872,2.353375,94.3,NaN,,15.06,,0 / 26,,1433,2022-01-10 18:49:15:868
-0.5357,0.2007,9.8761,-0.5479,0.2752,9.7875,0.0205,-0.0548,0.2265,-0.0228,-0.0609,0.0119,17.7,-4.27,-41.7,259.56,-1.54,3.45,48.843872,2.353375,94.3,NaN,,15.06,,0 / 26,,1438,2022-01-10 18:49:15:873
-0.6987,0.1959,9.8163,-0.5479,0.2752,9.7875,0.0205,-0.0548,0.2265,-0.0228,-0.0609,0.0119,17.78,-4.27,-41.55,259.56,-1.54,3.45,48.843872,2.353375,94.3,NaN,,15.06,,0 / 26,,1443,2022-01-10 18:49:15:878
-0.6987,0.1959,9.8163,-0.5479,0.2752,9.7875,0.0205,-0.0548,0.2265,0.1988,-0.112,0.0204,17.78,-4.27,-41.55,259.56,-1.54,3.45,48.843872,2.353375,94.3,NaN,,15.06,,0 / 26,,1449,2022-01-10 18:49:15:884
-0.6987,0.1959,9.8163,-0.5479,0.2752,9.7875,-0.1636,-0.101,0.1036,0.1988,-0.112,0.0204,17.78,-4.27,-41.55,259.56,-1.54,3.45,48.843872,2.353375,94.3,NaN,,15.06,,0 / 26,,1452,2022-01-10 18:49:15:887
-0.6987,0.1959,9.8163,-0.5479,0.2752,9.7875,-0.1636,-0.101,0.1036,0.1988,-0.112,0.0204,17.78,-4.27,-41.55,259.56,-1.54,3.45,48.843872,2.353375,94.3,NaN,,15.06,,0 / 26,,1458,2022-01-10 18:49:15:893
-0.6987,0.1959,9.8163,-0.5222,0.3306,9.7872,-0.1636,-0.101,0.1036,0.1988,-0.112,0.0204,17.78,-4.27,-41.55,259.56,-1.54,3.45,48.843872,2.353375,94.3,NaN,,15.06,,0 / 26,,1463,2022-01-10 18:49:15:898
-0.6987,0.1959,9.8163,-0.5222,0.3306,9.7872,-0.1636,-0.101,0.1036,0.1988,-0.112,0.0204,17.78,-4.27,-41.55,259.56,-1.54,3.45,48.843872,2.353375,94.3,NaN,,15.06,,0 / 26,,1467,2022-01-10 18:49:15:902
-0.5429,0.4786,9.6679,-0.5222,0.3306,9.7872,-0.1636,-0.101,0.1036,0.1988,-0.112,0.0204,17.7,-4.5,-41.62,260.79,-1.93,3.05,48.843872,2.353375,94.3,NaN,,15.06,,0 / 26,,1476,2022-01-10 18:49:15:911
-0.5429,0.4786,9.6679,-0.5222,0.3306,9.7872,-0.1636,-0.101,0.1036,0.202,-0.1077,0.0321,17.7,-4.5,-41.62,260.79,-1.93,3.05,48.843872,2.353375,94.3,NaN,,15.06,,0 / 26,,1477,2022-01-10 18:49:15:912
-0.5429,0.4786,9.6679,-0.5222,0.3306,9.7872,-0.1636,-0.101,0.1036,0.202,-0.1077,0.0321,17.7,-4.5,-41.62,260.79,-1.93,3.05,48.843872,2.353375,94.3,NaN,,15.06,,0 / 26,,1482,2022-01-10 18:49:15:917
-0.5429,0.4786,9.6679,-0.5222,0.3306,9.7872,0.0662,0.147,-0.1524,0.202,-0.1077,0.0321,17.7,-4.5,-41.62,260.79,-1.93,3.05,48.843872,2.353375,94.3,NaN,,15.06,,0 / 26,,1488,2022-01-10 18:49:15:923
-0.5429,0.4786,9.6679,-0.5222,0.3306,9.7872,0.0662,0.147,-0.1524,0.202,-0.1077,0.0321,17.7,-4.5,-41.62,260.79,-1.93,3.05,48.843872,2.353375,94.3,NaN,,15.06,,0 / 26,,1492,2022-01-10 18:49:15:927
-0.5429,0.4786,9.6679,-0.4902,0.3956,9.7864,0.0662,0.147,-0.1524,0.202,-0.1077,0.0321,17.7,-4.5,-41.62,260.79,-1.93,3.05,48.843872,2.353375,94.3,NaN,,15.06,,0 / 26,,1498,2022-01-10 18:49:15:933
-0.5429,0.4786,9.6679,-0.4902,0.3956,9.7864,0.0662,0.147,-0.1524,0.202,-0.1077,0.0321,17.7,-4.5,-41.62,260.79,-1.93,3.05,48.843872,2.353375,94.3,NaN,,15.06,,0 / 26,,1502,2022-01-10 18:49:15:937
-0.3392,0.3852,9.5192,-0.4902,0.3956,9.7864,0.0662,0.147,-0.1524,0.088,-0.0523,1.0E-4,17.63,-4.8,-41.32,260.79,-1.93,3.05,48.843872,2.353375,94.3,NaN,,15.06,,0 / 26,,1508,2022-01-10 18:49:15:943
-0.3392,0.3852,9.5192,-0.4902,0.3956,9.7864,0.0662,0.147,-0.1524,0.088,-0.0523,1.0E-4,17.63,-4.8,-41.32,260.79,-1.93,3.05,48.843872,2.353375,94.3,NaN,,15.06,,0 / 26,,1512,2022-01-10 18:49:15:947
-0.3392,0.3852,9.5192,-0.4902,0.3956,9.7864,0.057,-0.0332,-0.1341,0.088,-0.0523,1.0E-4,17.63,-4.8,-41.32,260.79,-1.93,3.05,48.843872,2.353375,94.3,NaN,,15.06,,0 / 26,,1518,2022-01-10 18:49:15:953
-0.3392,0.3852,9.5192,-0.4902,0.3956,9.7864,0.057,-0.0332,-0.1341,0.088,-0.0523,1.0E-4,17.63,-4.8,-41.32,260.79,-1.93,3.05,48.843872,2.353375,94.3,NaN,,15.06,,0 / 26,,1523,2022-01-10 18:49:15:958
-0.3392,0.3852,9.5192,-0.4696,0.4219,9.7863,0.057,-0.0332,-0.1341,0.088,-0.0523,1.0E-4,17.63,-4.8,-41.32,260.79,-1.93,3.05,48.843872,2.353375,94.3,NaN,,15.06,,0 / 26,,1528,2022-01-10 18:49:15:963
-0.562,0.3972,9.8091,-0.4696,0.4219,9.7863,0.057,-0.0332,-0.1341,0.088,-0.0523,1.0E-4,17.63,-4.8,-41.32,260.79,-1.93,3.05,48.843872,2.353375,94.3,NaN,,15.06,,0 / 26,,1532,2022-01-10 18:49:15:967
-0.562,0.3972,9.8091,-0.4696,0.4219,9.7863,0.057,-0.0332,-0.1341,0.1072,-0.0513,0.03,17.63,-4.8,-41.32,260.79,-1.93,3.05,48.843872,2.353375,94.3,NaN,,15.06,,0 / 26,,1538,2022-01-10 18:49:15:973
-0.562,0.3972,9.8091,-0.4696,0.4219,9.7863,0.057,-0.0332,-0.1341,0.1072,-0.0513,0.03,17.55,-4.65,-41.4,258.71,-2.47,2.75,48.843872,2.353375,94.3,NaN,,15.06,,0 / 26,,1543,2022-01-10 18:49:15:978
-0.562,0.3972,9.8091,-0.4696,0.4219,9.7863,0.057,-0.0332,-0.1341,0.1072,-0.0513,0.03,17.55,-4.65,-41.4,258.71,-2.47,2.75,48.843872,2.353375,94.3,NaN,,15.06,,0 / 26,,1548,2022-01-10 18:49:15:983
-0.562,0.3972,9.8091,-0.4591,0.447,9.7857,-0.079,-0.0402,0.1157,0.1072,-0.0513,0.03,17.55,-4.65,-41.4,258.71,-2.47,2.75,48.843872,2.353375,94.3,NaN,,15.06,,0 / 26,,1552,2022-01-10 18:49:15:987
-0.562,0.3972,9.8091,-0.4591,0.447,9.7857,-0.079,-0.0402,0.1157,0.1072,-0.0513,0.03,17.55,-4.65,-41.4,258.71,-2.47,2.75,48.843872,2.353375,94.3,NaN,,15.06,,0 / 26,,1557,2022-01-10 18:49:15:992
-0.5357,0.6488,9.6293,-0.4591,0.447,9.7857,-0.079,-0.0402,0.1157,0.1072,-0.0513,0.03,17.55,-4.65,-41.4,258.71,-2.47,2.75,48.843872,2.353375,94.3,NaN,,15.06,,0 / 26,,1562,2022-01-10 18:49:15:997
-0.5357,0.6488,9.6293,-0.4591,0.447,9.7857,-0.079,-0.0402,0.1157,0.1072,-0.0513,0.03,17.55,-4.65,-41.4,258.71,-2.47,2.75,48.843872,2.353375,94.3,NaN,,15.06,,0 / 26,,1568,2022-01-10 18:49:16:003
-0.5357,0.6488,9.6293,-0.4591,0.447,9.7857,-0.079,-0.0402,0.1157,0.1466,0.0521,0.0332,17.63,-4.73,-41.62,258.71,-2.47,2.75,48.843872,2.353375,94.3,NaN,,15.06,,0 / 26,,1573,2022-01-10 18:49:16:008
-0.5357,0.6488,9.6293,-0.4591,0.447,9.7857,-0.1385,0.2256,-0.1238,0.1466,0.0521,0.0332,17.63,-4.73,-41.62,258.71,-2.47,2.75,48.843872,2.353375,94.3,NaN,,15.06,,0 / 26,,1577,2022-01-10 18:49:16:012
-0.5357,0.6488,9.6293,-0.4756,0.4972,9.7825,-0.1385,0.2256,-0.1238,0.1466,0.0521,0.0332,17.63,-4.73,-41.62,258.71,-2.47,2.75,48.843872,2.353375,94.3,NaN,,15.06,,0 / 26,,1583,2022-01-10 18:49:16:018
-0.4376,0.6559,9.469,-0.4756,0.4972,9.7825,-0.1385,0.2256,-0.1238,0.1466,0.0521,0.0332,17.63,-4.73,-41.62,258.71,-2.47,2.75,48.843872,2.353375,94.3,NaN,,15.06,,0 / 26,,1587,2022-01-10 18:49:16:022
-0.4376,0.6559,9.469,-0.4756,0.4972,9.7825,-0.1385,0.2256,-0.1238,0.1466,0.0521,0.0332,17.63,-4.73,-41.62,258.71,-2.47,2.75,48.843872,2.353375,94.3,NaN,,15.06,,0 / 26,,1592,2022-01-10 18:49:16:027
-0.4376,0.6559,9.469,-0.4756,0.4972,9.7825,-0.1385,0.2256,-0.1238,0.1466,0.0521,0.0332,17.63,-4.73,-41.62,258.71,-2.47,2.75,48.843872,2.353375,94.3,NaN,,15.06,,0 / 26,,1597,2022-01-10 18:49:16:032
-0.4376,0.6559,9.469,-0.4756,0.4972,9.7825,-0.1385,0.2256,-0.1238,-0.0558,0.0478,0.0545,17.78,-4.73,-41.77,259.96,-2.91,2.78,48.843872,2.353375,94.3,NaN,,15.06,,0 / 26,,1604,2022-01-10 18:49:16:039
-0.4376,0.6559,9.469,-0.4756,0.4972,9.7825,0.0588,0.0022,-0.0709,-0.0558,0.0478,0.0545,17.78,-4.73,-41.77,259.96,-2.91,2.78,48.843872,2.353375,94.3,NaN,,15.06,,0 / 26,,1608,2022-01-10 18:49:16:043
-0.3105,0.227,9.7564,-0.5023,0.4953,9.7812,0.0588,0.0022,-0.0709,-0.0558,0.0478,0.0545,17.78,-4.73,-41.77,259.96,-2.91,2.78,48.843872,2.353375,94.3,NaN,,15.06,,0 / 26,,1612,2022-01-10 18:49:16:047
-0.3105,0.227,9.7564,-0.5023,0.4953,9.7812,0.0588,0.0022,-0.0709,-0.0558,0.0478,0.0545,17.78,-4.73,-41.77,259.96,-2.91,2.78,48.843872,2.353375,94.3,NaN,,15.06,,0 / 26,,1619,2022-01-10 18:49:16:054
-0.3105,0.227,9.7564,-0.5023,0.4953,9.7812,0.0588,0.0022,-0.0709,-0.0558,0.0478,0.0545,17.78,-4.73,-41.77,259.96,-2.91,2.78,48.843872,2.353375,94.3,NaN,,15.06,,0 / 26,,1623,2022-01-10 18:49:16:058
-0.3105,0.227,9.7564,-0.5023,0.4953,9.7812,0.0588,0.0022,-0.0709,-0.0558,0.0478,0.0545,17.78,-4.73,-41.77,259.96,-2.91,2.78,48.843872,2.353375,94.3,NaN,,15.06,,0 / 26,,1627,2022-01-10 18:49:16:062
-0.3105,0.227,9.7564,-0.5023,0.4953,9.7812,0.0588,0.0022,-0.0709,-0.0558,0.0478,0.0545,17.78,-4.73,-41.77,259.96,-2.91,2.78,48.843872,2.353375,94.3,NaN,,15.06,,0 / 26,,1633,2022-01-10 18:49:16:068
-0.1023,0.1433,10.1731,-0.4297,0.4574,9.7865,0.2501,-0.3766,0.4674,-0.0558,-0.3655,-0.114,17.78,-4.73,-41.77,259.96,-2.91,2.78,48.843872,2.353375,94.3,NaN,,15.06,,0 / 26,,1638,2022-01-10 18:49:16:073
-0.1023,0.1433,10.1731,-0.4297,0.4574,9.7865,0.2501,-0.3766,0.4674,-0.0558,-0.3655,-0.114,17.93,-5.17,-41.85,259.96,-2.91,2.78,48.843872,2.353375,94.3,NaN,,15.06,,0 / 26,,1644,2022-01-10 18:49:16:079
-0.1023,0.1433,10.1731,-0.4297,0.4574,9.7865,0.2501,-0.3766,0.4674,-0.0558,-0.3655,-0.114,17.93,-5.17,-41.85,259.96,-2.91,2.78,48.843872,2.353375,94.3,NaN,,15.06,,0 / 26,,1648,2022-01-10 18:49:16:083
-0.1023,0.1433,10.1731,-0.4297,0.4574,9.7865,0.2501,-0.3766,0.4674,-0.0558,-0.3655,-0.114,17.93,-5.17,-41.85,259.96,-2.91,2.78,48.843872,2.353375,94.3,NaN,,15.06,,0 / 26,,1653,2022-01-10 18:49:16:088
-0.1023,0.1433,10.1731,-0.4297,0.4574,9.7865,0.2501,-0.3766,0.4674,-0.0558,-0.3655,-0.114,17.93,-5.17,-41.85,259.96,-2.91,2.78,48.843872,2.353375,94.3,NaN,,15.06,,0 / 26,,1657,2022-01-10 18:49:16:092
-0.1023,0.1433,10.1731,-0.4297,0.4574,9.7865,0.2501,-0.3766,0.4674,-0.0558,-0.3655,-0.114,17.93,-5.17,-41.85,259.96,-2.91,2.78,48.843872,2.353375,94.3,NaN,,15.06,,0 / 26,,1663,2022-01-10 18:49:16:098
-0.5381,0.3374,10.2117,-0.3444,0.4644,9.7896,-0.1261,-0.0852,0.5177,0.1722,-0.178,-0.0467,17.93,-5.17,-41.85,259.96,-2.91,2.78,48.843872,2.353375,94.3,NaN,,15.06,,0 / 26,,1668,2022-01-10 18:49:16:103
-0.5381,0.3374,10.2117,-0.3444,0.4644,9.7896,-0.1261,-0.0852,0.5177,0.1722,-0.178,-0.0467,17.25,-5.17,-42.45,259.13,-2.71,2.01,48.843872,2.353375,94.3,NaN,,15.06,,0 / 26,,1672,2022-01-10 18:49:16:107
-0.5381,0.3374,10.2117,-0.3444,0.4644,9.7896,-0.1261,-0.0852,0.5177,0.1722,-0.178,-0.0467,17.25,-5.17,-42.45,259.13,-2.71,2.01,48.843872,2.353375,94.3,NaN,,15.06,,0 / 26,,1677,2022-01-10 18:49:16:112
-0.5381,0.3374,10.2117,-0.3444,0.4644,9.7896,-0.1261,-0.0852,0.5177,0.1722,-0.178,-0.0467,17.25,-5.17,-42.45,259.13,-2.71,2.01,48.843872,2.353375,94.3,NaN,,15.06,,0 / 26,,1683,2022-01-10 18:49:16:118
-0.5381,0.3374,10.2117,-0.3444,0.4644,9.7896,-0.1261,-0.0852,0.5177,0.1722,-0.178,-0.0467,17.25,-5.17,-42.45,259.13,-2.71,2.01,48.843872,2.353375,94.3,NaN,,15.06,,0 / 26,,1688,2022-01-10 18:49:16:123
-0.4687,0.5025,9.9673,-0.3444,0.4644,9.7896,-0.1261,-0.0852,0.5177,0.1722,-0.178,-0.0467,17.25,-5.17,-42.45,259.13,-2.71,2.01,48.843872,2.353375,94.3,NaN,,15.06,,0 / 26,,1693,2022-01-10 18:49:16:128
-0.4687,0.5025,9.9673,-0.3013,0.556,9.7862,-0.1589,-0.0276,0.2089,0.4193,-0.1834,0.0534,17.25,-5.17,-42.45,259.13,-2.71,2.01,48.843872,2.353375,94.3,NaN,,15.06,,0 / 26,,1698,2022-01-10 18:49:16:133
-0.4687,0.5025,9.9673,-0.3013,0.556,9.7862,-0.1589,-0.0276,0.2089,0.4193,-0.1834,0.0534,16.8,-5.7,-42.3,259.13,-2.71,2.01,48.843872,2.353375,94.3,NaN,,15.06,,0 / 26,,1702,2022-01-10 18:49:16:137
-0.4687,0.5025,9.9673,-0.3013,0.556,9.7862,-0.1589,-0.0276,0.2089,0.4193,-0.1834,0.0534,16.8,-5.7,-42.3,259.13,-2.71,2.01,48.843872,2.353375,94.3,NaN,,15.06,,0 / 26,,1708,2022-01-10 18:49:16:143
-0.4687,0.5025,9.9673,-0.3013,0.556,9.7862,-0.1589,-0.0276,0.2089,0.4193,-0.1834,0.0534,16.8,-5.7,-42.3,259.13,-2.71,2.01,48.843872,2.353375,94.3,NaN,,15.06,,0 / 26,,1712,2022-01-10 18:49:16:147
-0.4687,0.5025,9.9673,-0.3013,0.556,9.7862,-0.1589,-0.0276,0.2089,0.4193,-0.1834,0.0534,16.8,-5.7,-42.3,259.13,-2.71,2.01,48.843872,2.353375,94.3,NaN,,15.06,,0 / 26,,1718,2022-01-10 18:49:16:153
-0.3105,0.8426,9.5719,-0.3013,0.556,9.7862,-0.1589,-0.0276,0.2089,0.4193,-0.1834,0.0534,16.8,-5.7,-42.3,259.13,-2.71,2.01,48.843872,2.353375,94.3,NaN,,15.06,,0 / 26,,1722,2022-01-10 18:49:16:157
-0.3105,0.8426,9.5719,-0.2399,0.6965,9.7789,-0.0811,0.181,-0.2014,0.4204,-0.2057,0.0289,16.8,-5.7,-42.3,259.13,-2.71,2.01,48.843872,2.353375,94.3,NaN,,15.06,,0 / 26,,1728,2022-01-10 18:49:16:163
-0.3105,0.8426,9.5719,-0.2399,0.6965,9.7789,-0.0811,0.181,-0.2014,0.4204,-0.2057,0.0289,16.8,-5.7,-42.3,259.13,-2.71,2.01,48.843872,2.353375,94.3,NaN,,15.06,,0 / 26,,1732,2022-01-10 18:49:16:167
-0.3105,0.8426,9.5719,-0.2399,0.6965,9.7789,-0.0811,0.181,-0.2014,0.4204,-0.2057,0.0289,16.8,-5.7,-42.3,259.13,-2.71,2.01,48.843872,2.353375,94.3,NaN,,15.06,,0 / 26,,1737,2022-01-10 18:49:16:172
-0.3105,0.8426,9.5719,-0.2399,0.6965,9.7789,-0.0811,0.181,-0.2014,0.4204,-0.2057,0.0289,16.95,-6.0,-42.0,259.45,-4.07,1.41,48.843872,2.353375,94.3,NaN,,15.06,,0 / 26,,1742,2022-01-10 18:49:16:177
-0.2339,0.8979,9.3347,-0.2399,0.6965,9.7789,-0.0811,0.181,-0.2014,0.4204,-0.2057,0.0289,16.95,-6.0,-42.0,259.45,-4.07,1.41,48.843872,2.353375,94.3,NaN,,15.06,,0 / 26,,1747,2022-01-10 18:49:16:182
-0.2339,0.8979,9.3347,-0.2399,0.6965,9.7789,-0.0811,0.181,-0.2014,0.4204,-0.2057,0.0289,16.95,-6.0,-42.0,259.45,-4.07,1.41,48.843872,2.353375,94.3,NaN,,15.06,,0 / 26,,1753,2022-01-10 18:49:16:188
-0.2339,0.8979,9.3347,-0.1925,0.8045,9.7717,-0.0328,0.1479,-0.4409,0.2595,-0.162,-0.002,16.95,-6.0,-42.0,259.45,-4.07,1.41,48.843872,2.353375,94.3,NaN,,15.06,,0 / 26,,1758,2022-01-10 18:49:16:193
-0.2339,0.8979,9.3347,-0.1925,0.8045,9.7717,-0.0328,0.1479,-0.4409,0.2595,-0.162,-0.002,16.95,-6.0,-42.0,259.45,-4.07,1.41,48.843872,2.353375,94.3,NaN,,15.06,,0 / 26,,1764,2022-01-10 18:49:16:199
-0.2339,0.8979,9.3347,-0.1925,0.8045,9.7717,-0.0328,0.1479,-0.4409,0.2595,-0.162,-0.002,16.95,-6.0,-42.0,259.45,-4.07,1.41,48.843872,2.353375,94.3,NaN,,15.06,,0 / 26,,1768,2022-01-10 18:49:16:203
-0.2339,0.8979,9.3347,-0.1925,0.8045,9.7717,-0.0328,0.1479,-0.4409,0.2595,-0.162,-0.002,16.73,-6.3,-41.62,259.45,-4.07,1.41,48.843872,2.353375,94.3,NaN,,15.06,,0 / 26,,1773,2022-01-10 18:49:16:208
-0.2124,1.0869,9.2773,-0.1925,0.8045,9.7717,-0.0328,0.1479,-0.4409,0.2595,-0.162,-0.002,16.73,-6.3,-41.62,259.45,-4.07,1.41,48.843872,2.353375,94.3,NaN,,15.06,,0 / 26,,1778,2022-01-10 18:49:16:213
-0.2124,1.0869,9.2773,-0.1925,0.8045,9.7717,-0.0328,0.1479,-0.4409,0.2595,-0.162,-0.002,16.73,-6.3,-41.62,259.45,-4.07,1.41,48.843872,2.353375,94.3,NaN,,15.06,,0 / 26,,1783,2022-01-10 18:49:16:218
-0.2124,1.0869,9.2773,-0.1733,0.8629,9.7671,-0.0328,0.1479,-0.4409,0.1317,0.0382,0.0268,16.73,-6.3,-41.62,259.45,-4.07,1.41,48.843872,2.353375,94.3,NaN,,15.06,,0 / 26,,1787,2022-01-10 18:49:16:222
-0.2124,1.0869,9.2773,-0.1733,0.8629,9.7671,-5.0E-4,0.1659,-0.4874,0.1317,0.0382,0.0268,16.73,-6.3,-41.62,259.45,-4.07,1.41,48.843872,2.353375,94.3,NaN,,15.06,,0 / 26,,1792,2022-01-10 18:49:16:227
-0.2124,1.0869,9.2773,-0.1733,0.8629,9.7671,-5.0E-4,0.1659,-0.4874,0.1317,0.0382,0.0268,16.73,-6.3,-41.62,259.45,-4.07,1.41,48.843872,2.353375,94.3,NaN,,15.06,,0 / 26,,1798,2022-01-10 18:49:16:233
-0.2124,1.0869,9.2773,-0.1733,0.8629,9.7671,-5.0E-4,0.1659,-0.4874,0.1317,0.0382,0.0268,16.73,-6.3,-41.62,259.45,-4.07,1.41,48.843872,2.353375,94.3,NaN,,15.06,,0 / 26,,1803,2022-01-10 18:49:16:238
-0.1214,0.8139,9.3108,-0.1733,0.8629,9.7671,-5.0E-4,0.1659,-0.4874,0.1317,0.0382,0.0268,16.73,-6.9,-42.0,258.69,-5.05,1.02,48.843872,2.353375,94.3,NaN,,15.06,,0 / 26,,1807,2022-01-10 18:49:16:242
-0.1214,0.8139,9.3108,-0.1733,0.8629,9.7671,-5.0E-4,0.1659,-0.4874,0.1317,0.0382,0.0268,16.73,-6.9,-42.0,258.69,-5.05,1.02,48.843872,2.353375,94.3,NaN,,15.06,,0 / 26,,1813,2022-01-10 18:49:16:248
-0.1214,0.8139,9.3108,-0.1969,0.9008,9.7632,-5.0E-4,0.1659,-0.4874,0.1317,0.0382,0.0268,16.73,-6.9,-42.0,258.69,-5.05,1.02,48.843872,2.353375,94.3,NaN,,15.06,,0 / 26,,1818,2022-01-10 18:49:16:253
-0.1214,0.8139,9.3108,-0.1969,0.9008,9.7632,0.2027,-0.0652,-0.16,0.1029,0.1554,0.0726,16.73,-6.9,-42.0,258.69,-5.05,1.02,48.843872,2.353375,94.3,NaN,,15.06,,0 / 26,,1823,2022-01-10 18:49:16:258
-0.1214,0.8139,9.3108,-0.1969,0.9008,9.7632,0.2027,-0.0652,-0.16,0.1029,0.1554,0.0726,16.73,-6.9,-42.0,258.69,-5.05,1.02,48.843872,2.353375,94.3,NaN,,15.06,,0 / 26,,1828,2022-01-10 18:49:16:263
-0.0951,0.8931,9.5886,-0.1969,0.9008,9.7632,0.2027,-0.0652,-0.16,0.1029,0.1554,0.0726,16.73,-6.9,-42.0,258.69,-5.05,1.02,48.843872,2.353375,94.3,NaN,,15.06,,0 / 26,,1833,2022-01-10 18:49:16:268
-0.0951,0.8931,9.5886,-0.1969,0.9008,9.7632,0.2027,-0.0652,-0.16,0.1029,0.1554,0.0726,16.73,-6.9,-42.0,258.69,-5.05,1.02,48.843872,2.353375,94.3,NaN,,15.06,,0 / 26,,1838,2022-01-10 18:49:16:273
-0.0951,0.8931,9.5886,-0.1969,0.9008,9.7632,0.2027,-0.0652,-0.16,0.1029,0.1554,0.0726,16.65,-7.05,-41.77,258.69,-5.05,1.02,48.843872,2.353375,94.3,NaN,,15.06,,0 / 26,,1843,2022-01-10 18:49:16:278
-0.0951,0.8931,9.5886,-0.2201,0.9287,9.7601,0.2027,-0.0652,-0.16,0.1029,0.1554,0.0726,16.65,-7.05,-41.77,258.69,-5.05,1.02,48.843872,2.353375,94.3,NaN,,15.06,,0 / 26,,1848,2022-01-10 18:49:16:283
-0.0951,0.8931,9.5886,-0.2201,0.9287,9.7601,0.0913,-0.0556,-0.1198,0.0827,0.034,0.014,16.65,-7.05,-41.77,258.69,-5.05,1.02,48.843872,2.353375,94.3,NaN,,15.06,,0 / 26,,1854,2022-01-10 18:49:16:289
-0.0589,0.9314,9.5192,-0.2201,0.9287,9.7601,0.0913,-0.0556,-0.1198,0.0827,0.034,0.014,16.65,-7.05,-41.77,258.69,-5.05,1.02,48.843872,2.353375,94.3,NaN,,15.06,,0 / 26,,1858,2022-01-10 18:49:16:293
-0.0589,0.9314,9.5192,-0.2201,0.9287,9.7601,0.0913,-0.0556,-0.1198,0.0827,0.034,0.014,16.65,-7.05,-41.77,258.69,-5.05,1.02,48.843872,2.353375,94.3,NaN,,15.06,,0 / 26,,1862,2022-01-10 18:49:16:297
-0.0589,0.9314,9.5192,-0.2201,0.9287,9.7601,0.0913,-0.0556,-0.1198,0.0827,0.034,0.014,16.65,-7.05,-41.77,258.69,-5.05,1.02,48.843872,2.353375,94.3,NaN,,15.06,,0 / 26,,1868,2022-01-10 18:49:16:303
-0.0589,0.9314,9.5192,-0.2201,0.9287,9.7601,0.0913,-0.0556,-0.1198,0.0827,0.034,0.014,16.8,-7.42,-41.47,259.25,-5.43,1.29,48.843872,2.353375,94.3,NaN,,15.06,,0 / 26,,1873,2022-01-10 18:49:16:308
-0.0589,0.9314,9.5192,-0.2369,0.9513,9.7575,0.0913,-0.0556,-0.1198,0.0827,0.034,0.014,16.8,-7.42,-41.47,259.25,-5.43,1.29,48.843872,2.353375,94.3,NaN,,15.06,,0 / 26,,1878,2022-01-10 18:49:16:313
-0.1525,0.9123,9.4738,-0.2369,0.9513,9.7575,0.1052,-0.0061,-0.2014,0.022,0.1863,0.0193,16.8,-7.42,-41.47,259.25,-5.43,1.29,48.843872,2.353375,94.3,NaN,,15.06,,0 / 26,,1883,2022-01-10 18:49:16:318
-0.1525,0.9123,9.4738,-0.2369,0.9513,9.7575,0.1052,-0.0061,-0.2014,0.022,0.1863,0.0193,16.8,-7.42,-41.47,259.25,-5.43,1.29,48.843872,2.353375,94.3,NaN,,15.06,,0 / 26,,1888,2022-01-10 18:49:16:323
-0.1525,0.9123,9.4738,-0.2369,0.9513,9.7575,0.1052,-0.0061,-0.2014,0.022,0.1863,0.0193,16.8,-7.42,-41.47,259.25,-5.43,1.29,48.843872,2.353375,94.3,NaN,,15.06,,0 / 26,,1892,2022-01-10 18:49:16:327
-0.1525,0.9123,9.4738,-0.2369,0.9513,9.7575,0.1052,-0.0061,-0.2014,0.022,0.1863,0.0193,16.8,-7.42,-41.47,259.25,-5.43,1.29,48.843872,2.353375,94.3,NaN,,15.06,,0 / 26,,1897,2022-01-10 18:49:16:332
-0.1525,0.9123,9.4738,-0.2369,0.9513,9.7575,0.1052,-0.0061,-0.2014,0.022,0.1863,0.0193,16.8,-7.42,-41.47,259.25,-5.43,1.29,48.843872,2.353375,94.3,NaN,,15.06,,0 / 26,,1902,2022-01-10 18:49:16:337
-0.1525,0.9123,9.4738,-0.2726,0.9545,9.7563,0.1052,-0.0061,-0.2014,0.022,0.1863,0.0193,17.25,-7.5,-41.55,259.25,-5.43,1.29,48.843872,2.353375,94.3,NaN,,15.06,,0 / 26,,1908,2022-01-10 18:49:16:343
-0.1813,0.8474,9.6293,-0.2726,0.9545,9.7563,0.0936,-0.0715,-0.0215,-0.0419,0.0627,-0.0244,17.25,-7.5,-41.55,259.25,-5.43,1.29,48.843872,2.353375,94.3,NaN,,15.06,,0 / 26,,1914,2022-01-10 18:49:16:349
-0.1813,0.8474,9.6293,-0.2726,0.9545,9.7563,0.0936,-0.0715,-0.0215,-0.0419,0.0627,-0.0244,17.25,-7.5,-41.55,259.25,-5.43,1.29,48.843872,2.353375,94.3,NaN,,15.06,,0 / 26,,1917,2022-01-10 18:49:16:352
-0.1813,0.8474,9.6293,-0.2726,0.9545,9.7563,0.0936,-0.0715,-0.0215,-0.0419,0.0627,-0.0244,17.25,-7.5,-41.55,259.25,-5.43,1.29,48.843872,2.353375,94.3,NaN,,15.06,,0 / 26,,1923,2022-01-10 18:49:16:358
-0.1813,0.8474,9.6293,-0.2726,0.9545,9.7563,0.0936,-0.0715,-0.0215,-0.0419,0.0627,-0.0244,17.25,-7.5,-41.55,259.25,-5.43,1.29,48.843872,2.353375,94.3,NaN,,15.06,,0 / 26,,1927,2022-01-10 18:49:16:362
-0.1813,0.8474,9.6293,-0.2888,0.9383,9.7574,0.0936,-0.0715,-0.0215,-0.0419,0.0627,-0.0244,17.25,-7.5,-41.55,259.25,-5.43,1.29,48.843872,2.353375,94.3,NaN,,15.06,,0 / 26,,1932,2022-01-10 18:49:16:367
-0.2124,0.8019,9.8043,-0.2888,0.9383,9.7574,0.0936,-0.0715,-0.0215,-0.0419,0.0627,-0.0244,17.25,-7.5,-41.55,259.25,-5.43,1.29,48.843872,2.353375,94.3,NaN,,15.06,,0 / 26,,1939,2022-01-10 18:49:16:374
-0.2124,0.8019,9.8043,-0.2888,0.9383,9.7574,0.059,-0.0934,0.1329,-0.0419,0.0627,-0.0244,17.48,-7.27,-42.15,259.56,-5.49,1.7,48.843872,2.353375,94.3,NaN,,15.06,,0 / 26,,1943,2022-01-10 18:49:16:378
-0.2124,0.8019,9.8043,-0.2888,0.9383,9.7574,0.059,-0.0934,0.1329,-0.0483,0.084,-0.018,17.48,-7.27,-42.15,259.56,-5.49,1.7,48.843872,2.353375,94.3,NaN,,15.06,,0 / 26,,1948,2022-01-10 18:49:16:383
-0.2124,0.8019,9.8043,-0.2888,0.9383,9.7574,0.059,-0.0934,0.1329,-0.0483,0.084,-0.018,17.48,-7.27,-42.15,259.56,-5.49,1.7,48.843872,2.353375,94.3,NaN,,15.06,,0 / 26,,1953,2022-01-10 18:49:16:388
-0.2124,0.8019,9.8043,-0.2888,0.9383,9.7574,0.059,-0.0934,0.1329,-0.0483,0.084,-0.018,17.48,-7.27,-42.15,259.56,-5.49,1.7,48.843872,2.353375,94.3,NaN,,15.06,,0 / 26,,1958,2022-01-10 18:49:16:393
-0.2124,0.8019,9.8043,-0.3113,0.9194,9.7585,0.059,-0.0934,0.1329,-0.0483,0.084,-0.018,17.48,-7.27,-42.15,259.56,-5.49,1.7,48.843872,2.353375,94.3,NaN,,15.06,,0 / 26,,1962,2022-01-10 18:49:16:397
-0.3586,0.8234,9.8115,-0.3113,0.9194,9.7585,0.059,-0.0934,0.1329,-0.0483,0.084,-0.018,17.48,-7.27,-42.15,259.56,-5.49,1.7,48.843872,2.353375,94.3,NaN,,15.06,,0 / 26,,1967,2022-01-10 18:49:16:402
-0.3586,0.8234,9.8115,-0.3113,0.9194,9.7585,-0.1218,-0.0904,0.1729,-0.0483,0.084,-0.018,17.33,-7.05,-42.82,259.56,-5.49,1.7,48.843872,2.353375,94.3,NaN,,15.06,,0 / 26,,1973,2022-01-10 18:49:16:408
-0.3586,0.8234,9.8115,-0.3113,0.9194,9.7585,-0.1218,-0.0904,0.1729,-0.0121,0.0318,-0.019,17.33,-7.05,-42.82,259.56,-5.49,1.7,48.843872,2.353375,94.3,NaN,,15.06,,0 / 26,,1977,2022-01-10 18:49:16:412
-0.3586,0.8234,9.8115,-0.3113,0.9194,9.7585,-0.1218,-0.0904,0.1729,-0.0121,0.0318,-0.019,17.33,-7.05,-42.82,259.56,-5.49,1.7,48.843872,2.353375,94.3,NaN,,15.06,,0 / 26,,1982,2022-01-10 18:49:16:417
-0.3586,0.8234,9.8115,-0.3113,0.9194,9.7585,-0.1218,-0.0904,0.1729,-0.0121,0.0318,-0.019,17.33,-7.05,-42.82,259.56,-5.49,1.7,48.843872,2.353375,94.3,NaN,,15.06,,0 / 26,,1988,2022-01-10 18:49:16:423
-0.3802,0.8545,9.8426,-0.3278,0.9108,9.7588,-0.1218,-0.0904,0.1729,-0.0121,0.0318,-0.019,17.33,-7.05,-42.82,259.56,-5.49,1.7,48.843872,2.353375,94.3,NaN,,15.06,,0 / 26,,1993,2022-01-10 18:49:16:428
-0.3802,0.8545,9.8426,-0.3278,0.9108,9.7588,-0.0446,-0.0502,0.2179,-0.0121,0.0318,-0.019,17.33,-7.05,-42.82,259.56,-5.49,1.7,48.843872,2.353375,94.3,NaN,,15.06,,0 / 26,,1998,2022-01-10 18:49:16:433
-0.3802,0.8545,9.8426,-0.3278,0.9108,9.7588,-0.0446,-0.0502,0.2179,-0.0121,0.0318,-0.019,17.33,-7.05,-42.82,259.56,-5.49,1.7,48.843872,2.353375,94.3,NaN,,15.06,,0 / 26,,2003,2022-01-10 18:49:16:438
-0.3802,0.8545,9.8426,-0.3278,0.9108,9.7588,-0.0446,-0.0502,0.2179,0.0369,0.0702,-0.0137,17.33,-7.57,-42.82,255.84,-5.33,1.92,48.843872,2.353375,94.3,NaN,,15.06,,0 / 26,,2008,2022-01-10 18:49:16:443
-0.3802,0.8545,9.8426,-0.3278,0.9108,9.7588,-0.0446,-0.0502,0.2179,0.0369,0.0702,-0.0137,17.33,-7.57,-42.82,255.84,-5.33,1.92,48.843872,2.353375,94.3,NaN,,15.06,,0 / 26,,2013,2022-01-10 18:49:16:448
-0.3802,0.8545,9.8426,-0.3278,0.9108,9.7588,-0.0446,-0.0502,0.2179,0.0369,0.0702,-0.0137,17.33,-7.57,-42.82,255.84,-5.33,1.92,48.843872,2.353375,94.3,NaN,,15.06,,0 / 26,,2018,2022-01-10 18:49:16:453
-0.5501,1.0008,9.912,-0.3458,0.9156,9.7577,-0.0446,-0.0502,0.2179,0.0369,0.0702,-0.0137,17.33,-7.57,-42.82,255.84,-5.33,1.92,48.843872,2.353375,94.3,NaN,,15.06,,0 / 26,,2022,2022-01-10 18:49:16:457
-0.5501,1.0008,9.912,-0.3458,0.9156,9.7577,-0.1805,0.0562,0.1928,0.0369,0.0702,-0.0137,17.33,-7.57,-42.82,255.84,-5.33,1.92,48.843872,2.353375,94.3,NaN,,15.06,,0 / 26,,2028,2022-01-10 18:49:16:463
-0.5501,1.0008,9.912,-0.3458,0.9156,9.7577,-0.1805,0.0562,0.1928,0.0369,0.0702,-0.0137,17.33,-7.57,-42.82,255.84,-5.33,1.92,48.843872,2.353375,94.3,NaN,,15.06,,0 / 26,,2034,2022-01-10 18:49:16:469
-0.5501,1.0008,9.912,-0.3458,0.9156,9.7577,-0.1805,0.0562,0.1928,0.0497,0.0414,-0.0126,17.33,-7.57,-42.82,255.84,-5.33,1.92,48.843872,2.353375,94.3,NaN,,15.06,,0 / 26,,2038,2022-01-10 18:49:16:473
-0.5501,1.0008,9.912,-0.3458,0.9156,9.7577,-0.1805,0.0562,0.1928,0.0497,0.0414,-0.0126,17.78,-7.95,-42.52,255.84,-5.33,1.92,48.843872,2.353375,94.3,NaN,,15.06,,0 / 26,,2042,2022-01-10 18:49:16:477
-0.4998,1.0391,9.6341,-0.3458,0.9156,9.7577,-0.1805,0.0562,0.1928,0.0497,0.0414,-0.0126,17.78,-7.95,-42.52,255.84,-5.33,1.92,48.843872,2.353375,94.3,NaN,,15.06,,0 / 26,,2048,2022-01-10 18:49:16:483
-0.4998,1.0391,9.6341,-0.3458,0.9156,9.7577,-0.1805,0.0562,0.1928,0.0497,0.0414,-0.0126,17.78,-7.95,-42.52,255.84,-5.33,1.92,48.843872,2.353375,94.3,NaN,,15.06,,0 / 26,,2053,2022-01-10 18:49:16:488
-0.4998,1.0391,9.6341,-0.3697,0.9362,9.7549,-0.0753,0.1164,-0.0252,0.0497,0.0414,-0.0126,17.78,-7.95,-42.52,255.84,-5.33,1.92,48.843872,2.353375,94.3,NaN,,15.06,,0 / 26,,2060,2022-01-10 18:49:16:495
-0.4998,1.0391,9.6341,-0.3697,0.9362,9.7549,-0.0753,0.1164,-0.0252,0.0497,0.0414,-0.0126,17.78,-7.95,-42.52,255.84,-5.33,1.92,48.843872,2.353375,94.3,NaN,,15.06,,0 / 26,,2063,2022-01-10 18:49:16:498
-0.4998,1.0391,9.6341,-0.3697,0.9362,9.7549,-0.0753,0.1164,-0.0252,0.0497,0.0414,-0.0126,17.78,-7.95,-42.52,255.84,-5.33,1.92,48.843872,2.353375,94.3,NaN,,15.06,,0 / 26,,2068,2022-01-10 18:49:16:503
-0.4089,0.9721,9.6269,-0.3697,0.9362,9.7549,-0.0753,0.1164,-0.0252,0.0305,0.068,0.0044,17.85,-8.17,-42.52,256.94,-5.48,2.17,48.843872,2.353375,94.3,NaN,,15.06,,0 / 26,,2073,2022-01-10 18:49:16:508
-0.4089,0.9721,9.6269,-0.3697,0.9362,9.7549,-0.0753,0.1164,-0.0252,0.0305,0.068,0.0044,17.85,-8.17,-42.52,256.94,-5.48,2.17,48.843872,2.353375,94.3,NaN,,15.06,,0 / 26,,2078,2022-01-10 18:49:16:513
-0.4089,0.9721,9.6269,-0.3697,0.9362,9.7549,-0.0753,0.1164,-0.0252,0.0305,0.068,0.0044,17.85,-8.17,-42.52,256.94,-5.48,2.17,48.843872,2.353375,94.3,NaN,,15.06,,0 / 26,,2082,2022-01-10 18:49:16:517
-0.4089,0.9721,9.6269,-0.3922,0.9528,9.7524,-0.0092,-0.0087,0.0249,0.0305,0.068,0.0044,17.85,-8.17,-42.52,256.94,-5.48,2.17,48.843872,2.353375,94.3,NaN,,15.06,,0 / 26,,2087,2022-01-10 18:49:16:522
-0.4089,0.9721,9.6269,-0.3922,0.9528,9.7524,-0.0092,-0.0087,0.0249,0.0305,0.068,0.0044,17.85,-8.17,-42.52,256.94,-5.48,2.17,48.843872,2.353375,94.3,NaN,,15.06,,0 / 26,,2093,2022-01-10 18:49:16:528
-0.4089,0.9721,9.6269,-0.3922,0.9528,9.7524,-0.0092,-0.0087,0.0249,0.0305,0.068,0.0044,17.85,-8.17,-42.52,256.94,-5.48,2.17,48.843872,2.353375,94.3,NaN,,15.06,,0 / 26,,2097,2022-01-10 18:49:16:532
-0.4137,1.0606,9.7373,-0.3922,0.9528,9.7524,-0.0092,-0.0087,0.0249,0.0379,0.0308,-0.002,17.33,-7.65,-42.97,256.94,-5.48,2.17,48.843872,2.353375,94.3,NaN,,15.06,,0 / 26,,2103,2022-01-10 18:49:16:538
-0.4137,1.0606,9.7373,-0.3922,0.9528,9.7524,-0.0092,-0.0087,0.0249,0.0379,0.0308,-0.002,17.33,-7.65,-42.97,256.94,-5.48,2.17,48.843872,2.353375,94.3,NaN,,15.06,,0 / 26,,2107,2022-01-10 18:49:16:542
-0.4137,1.0606,9.7373,-0.3922,0.9528,9.7524,-0.0092,-0.0087,0.0249,0.0379,0.0308,-0.002,17.33,-7.65,-42.97,256.94,-5.48,2.17,48.843872,2.353375,94.3,NaN,,15.06,,0 / 26,,2112,2022-01-10 18:49:16:547
-0.4137,1.0606,9.7373,-0.4034,0.9663,9.7506,-0.0469,-0.0045,0.0743,0.0379,0.0308,-0.002,17.33,-7.65,-42.97,256.94,-5.48,2.17,48.843872,2.353375,94.3,NaN,,15.06,,0 / 26,,2117,2022-01-10 18:49:16:552
-0.4137,1.0606,9.7373,-0.4034,0.9663,9.7506,-0.0469,-0.0045,0.0743,0.0379,0.0308,-0.002,17.33,-7.65,-42.97,256.94,-5.48,2.17,48.843872,2.353375,94.3,NaN,,15.06,,0 / 26,,2122,2022-01-10 18:49:16:557
-0.4137,1.0606,9.7373,-0.4034,0.9663,9.7506,-0.0469,-0.0045,0.0743,0.0379,0.0308,-0.002,17.33,-7.65,-42.97,256.94,-5.48,2.17,48.843872,2.353375,94.3,NaN,,15.06,,0 / 26,,2128,2022-01-10 18:49:16:563
-0.277,0.9793,9.687,-0.4034,0.9663,9.7506,-0.0469,-0.0045,0.0743,0.0379,0.0308,-0.002,17.33,-7.65,-42.97,256.94,-5.48,2.17,48.843872,2.353375,94.3,NaN,,15.06,,0 / 26,,2132,2022-01-10 18:49:16:567
-0.277,0.9793,9.687,-0.4034,0.9663,9.7506,-0.0469,-0.0045,0.0743,0.0976,0.0521,0.0023,17.33,-7.65,-42.97,256.94,-5.48,2.17,48.843872,2.353375,94.3,NaN,,15.06,,0 / 26,,2138,2022-01-10 18:49:16:573
-0.277,0.9793,9.687,-0.4034,0.9663,9.7506,-0.0469,-0.0045,0.0743,0.0976,0.0521,0.0023,16.95,-7.27,-42.6,260.07,-5.66,2.37,48.843872,2.353375,94.3,NaN,,15.06,,0 / 26,,2143,2022-01-10 18:49:16:578
-0.277,0.9793,9.687,-0.4057,0.991,9.748,0.056,0.0321,0.005,0.0976,0.0521,0.0023,16.95,-7.27,-42.6,260.07,-5.66,2.37,48.843872,2.353375,94.3,NaN,,15.06,,0 / 26,,2147,2022-01-10 18:49:16:582
-0.277,0.9793,9.687,-0.4057,0.991,9.748,0.056,0.0321,0.005,0.0976,0.0521,0.0023,16.95,-7.27,-42.6,260.07,-5.66,2.37,48.843872,2.353375,94.3,NaN,,15.06,,0 / 26,,2152,2022-01-10 18:49:16:587
-0.5644,1.0367,9.0329,-0.4057,0.991,9.748,0.056,0.0321,0.005,0.0976,0.0521,0.0023,16.95,-7.27,-42.6,260.07,-5.66,2.37,48.843872,2.353375,94.3,NaN,,15.06,,0 / 26,,2158,2022-01-10 18:49:16:593
-0.5644,1.0367,9.0329,-0.4057,0.991,9.748,0.056,0.0321,0.005,0.0976,0.0521,0.0023,16.95,-7.27,-42.6,260.07,-5.66,2.37,48.843872,2.353375,94.3,NaN,,15.06,,0 / 26,,2163,2022-01-10 18:49:16:598
-0.5644,1.0367,9.0329,-0.4057,0.991,9.748,0.056,0.0321,0.005,-0.043,0.3322,0.0342,16.95,-7.27,-42.6,260.07,-5.66,2.37,48.843872,2.353375,94.3,NaN,,15.06,,0 / 26,,2168,2022-01-10 18:49:16:603
-0.5644,1.0367,9.0329,-0.4674,1.0052,9.7438,0.0068,0.3528,-1.2001,-0.043,0.3322,0.0342,17.55,-7.73,-42.3,260.07,-5.66,2.37,48.843872,2.353375,94.3,NaN,,15.06,,0 / 26,,2176,2022-01-10 18:49:16:611
-0.5644,1.0367,9.0329,-0.4674,1.0052,9.7438,0.0068,0.3528,-1.2001,-0.043,0.3322,0.0342,17.55,-7.73,-42.3,260.07,-5.66,2.37,48.843872,2.353375,94.3,NaN,,15.06,,0 / 26,,2178,2022-01-10 18:49:16:613
-0.5644,1.0367,9.0329,-0.4674,1.0052,9.7438,0.0068,0.3528,-1.2001,-0.043,0.3322,0.0342,17.55,-7.73,-42.3,260.07,-5.66,2.37,48.843872,2.353375,94.3,NaN,,15.06,,0 / 26,,2183,2022-01-10 18:49:16:618
-0.3802,1.142,9.0209,-0.4674,1.0052,9.7438,0.0068,0.3528,-1.2001,-0.043,0.3322,0.0342,17.55,-7.73,-42.3,260.07,-5.66,2.37,48.843872,2.353375,94.3,NaN,,15.06,,0 / 26,,2188,2022-01-10 18:49:16:623
-0.3802,1.142,9.0209,-0.4674,1.0052,9.7438,0.0068,0.3528,-1.2001,-0.043,0.3322,0.0342,17.55,-7.73,-42.3,260.07,-5.66,2.37,48.843872,2.353375,94.3,NaN,,15.06,,0 / 26,,2192,2022-01-10 18:49:16:627
-0.3802,1.142,9.0209,-0.4674,1.0052,9.7438,0.0068,0.3528,-1.2001,-0.2177,0.2033,-0.0031,17.55,-7.73,-42.3,260.07,-5.66,2.37,48.843872,2.353375,94.3,NaN,,15.06,,0 / 26,,2197,2022-01-10 18:49:16:632
-0.3802,1.142,9.0209,-0.4674,1.0052,9.7438,0.0068,0.3528,-1.2001,-0.2177,0.2033,-0.0031,17.55,-7.73,-42.3,260.07,-5.66,2.37,48.843872,2.353375,94.3,NaN,,15.06,,0 / 26,,2203,2022-01-10 18:49:16:638
-0.3802,1.142,9.0209,-0.5334,0.9593,9.745,0.1331,-0.2201,0.029,-0.2177,0.2033,-0.0031,17.93,-7.65,-41.93,257.4,-5.88,2.75,48.843872,2.353375,94.3,NaN,,15.06,,0 / 26,,2209,2022-01-10 18:49:16:644
-0.7442,0.5336,10.6164,-0.5334,0.9593,9.745,0.1331,-0.2201,0.029,-0.2177,0.2033,-0.0031,17.93,-7.65,-41.93,257.4,-5.88,2.75,48.843872,2.353375,94.3,NaN,,15.06,,0 / 26,,2213,2022-01-10 18:49:16:648
-0.7442,0.5336,10.6164,-0.5334,0.9593,9.745,0.1331,-0.2201,0.029,-0.2177,0.2033,-0.0031,17.93,-7.65,-41.93,257.4,-5.88,2.75,48.843872,2.353375,94.3,NaN,,15.06,,0 / 26,,2217,2022-01-10 18:49:16:652
-0.7442,0.5336,10.6164,-0.5334,0.9593,9.745,0.1331,-0.2201,0.029,-0.2177,0.2033,-0.0031,17.93,-7.65,-41.93,257.4,-5.88,2.75,48.843872,2.353375,94.3,NaN,,15.06,,0 / 26,,2222,2022-01-10 18:49:16:657
-0.7442,0.5336,10.6164,-0.5334,0.9593,9.745,0.1331,-0.2201,0.029,0.1125,-0.1716,0.0087,17.93,-7.65,-41.93,257.4,-5.88,2.75,48.843872,2.353375,94.3,NaN,,15.06,,0 / 26,,2228,2022-01-10 18:49:16:663
-0.7442,0.5336,10.6164,-0.5146,0.9349,9.7484,0.1331,-0.2201,0.029,0.1125,-0.1716,0.0087,17.93,-7.65,-41.93,257.4,-5.88,2.75,48.843872,2.353375,94.3,NaN,,15.06,,0 / 26,,2233,2022-01-10 18:49:16:668
-0.7442,0.5336,10.6164,-0.5146,0.9349,9.7484,0.1331,-0.2201,0.029,0.1125,-0.1716,0.0087,17.93,-7.65,-41.93,257.4,-5.88,2.75,48.843872,2.353375,94.3,NaN,,15.06,,0 / 26,,2237,2022-01-10 18:49:16:672
-0.5046,0.8521,10.1444,-0.5146,0.9349,9.7484,-0.0402,-0.098,0.6557,0.1125,-0.1716,0.0087,18.15,-7.8,-41.62,257.4,-5.88,2.75,48.843872,2.353375,94.3,NaN,,15.06,,0 / 26,,2243,2022-01-10 18:49:16:678
-0.5046,0.8521,10.1444,-0.5146,0.9349,9.7484,-0.0402,-0.098,0.6557,0.1125,-0.1716,0.0087,18.15,-7.8,-41.62,257.4,-5.88,2.75,48.843872,2.353375,94.3,NaN,,15.06,,0 / 26,,2248,2022-01-10 18:49:16:683
-0.5046,0.8521,10.1444,-0.5146,0.9349,9.7484,-0.0402,-0.098,0.6557,0.1125,-0.1716,0.0087,18.15,-7.8,-41.62,257.4,-5.88,2.75,48.843872,2.353375,94.3,NaN,,15.06,,0 / 26,,2253,2022-01-10 18:49:16:688
-0.5046,0.8521,10.1444,-0.5146,0.9349,9.7484,-0.0402,-0.098,0.6557,0.1125,-0.1716,0.0087,18.15,-7.8,-41.62,257.4,-5.88,2.75,48.843872,2.353375,94.3,NaN,,15.06,,0 / 26,,2258,2022-01-10 18:49:16:693
-0.5046,0.8521,10.1444,-0.4884,0.9883,9.7445,-0.0402,-0.098,0.6557,0.1775,0.0084,0.0406,18.15,-7.8,-41.62,257.4,-5.88,2.75,48.843872,2.353375,94.3,NaN,,15.06,,0 / 26,,2263,2022-01-10 18:49:16:698
-0.4448,1.1444,9.591,-0.4884,0.9883,9.7445,0.0766,0.0825,-0.0661,0.1775,0.0084,0.0406,18.15,-7.8,-41.62,257.4,-5.88,2.75,48.843872,2.353375,94.3,NaN,,15.06,,0 / 26,,2268,2022-01-10 18:49:16:703
-0.4448,1.1444,9.591,-0.4884,0.9883,9.7445,0.0766,0.0825,-0.0661,0.1775,0.0084,0.0406,18.23,-7.95,-41.7,257.08,-5.78,2.87,48.843872,2.353375,94.3,NaN,,15.06,,0 / 26,,2272,2022-01-10 18:49:16:707
-0.4448,1.1444,9.591,-0.4884,0.9883,9.7445,0.0766,0.0825,-0.0661,0.1775,0.0084,0.0406,18.23,-7.95,-41.7,257.08,-5.78,2.87,48.843872,2.353375,94.3,NaN,,15.06,,0 / 26,,2277,2022-01-10 18:49:16:712
-0.4448,1.1444,9.591,-0.4884,0.9883,9.7445,0.0766,0.0825,-0.0661,0.1775,0.0084,0.0406,18.23,-7.95,-41.7,257.08,-5.78,2.87,48.843872,2.353375,94.3,NaN,,15.06,,0 / 26,,2282,2022-01-10 18:49:16:717
-0.4448,1.1444,9.591,-0.4884,0.9883,9.7445,0.0766,0.0825,-0.0661,0.1775,0.0084,0.0406,18.23,-7.95,-41.7,257.08,-5.78,2.87,48.843872,2.353375,94.3,NaN,,15.06,,0 / 26,,2287,2022-01-10 18:49:16:722
-0.5572,1.1133,9.5719,-0.4983,1.0186,9.7409,0.0766,0.0825,-0.0661,-0.0089,-0.0087,0.0023,18.23,-7.95,-41.7,257.08,-5.78,2.87,48.843872,2.353375,94.3,NaN,,15.06,,0 / 26,,2293,2022-01-10 18:49:16:728
-0.5572,1.1133,9.5719,-0.4983,1.0186,9.7409,-0.0701,0.1183,-0.0787,-0.0089,-0.0087,0.0023,18.23,-7.95,-41.7,257.08,-5.78,2.87,48.843872,2.353375,94.3,NaN,,15.06,,0 / 26,,2298,2022-01-10 18:49:16:733
-0.5572,1.1133,9.5719,-0.4983,1.0186,9.7409,-0.0701,0.1183,-0.0787,-0.0089,-0.0087,0.0023,18.23,-7.95,-41.7,257.08,-5.78,2.87,48.843872,2.353375,94.3,NaN,,15.06,,0 / 26,,2303,2022-01-10 18:49:16:738
-0.5572,1.1133,9.5719,-0.4983,1.0186,9.7409,-0.0701,0.1183,-0.0787,-0.0089,-0.0087,0.0023,18.23,-7.95,-41.7,257.08,-5.78,2.87,48.843872,2.353375,94.3,NaN,,15.06,,0 / 26,,2308,2022-01-10 18:49:16:743
-0.5572,1.1133,9.5719,-0.4983,1.0186,9.7409,-0.0701,0.1183,-0.0787,-0.0089,-0.0087,0.0023,17.85,-7.73,-41.7,257.08,-5.78,2.87,48.843872,2.353375,94.3,NaN,,15.06,,0 / 26,,2313,2022-01-10 18:49:16:748
-0.5572,1.1133,9.5719,-0.4983,1.0186,9.7409,-0.0701,0.1183,-0.0787,-0.0089,-0.0087,0.0023,17.85,-7.73,-41.7,257.08,-5.78,2.87,48.843872,2.353375,94.3,NaN,,15.06,,0 / 26,,2318,2022-01-10 18:49:16:753
-0.5572,1.1133,9.5719,-0.4983,1.0186,9.7409,-0.0701,0.1183,-0.0787,-0.0089,-0.0087,0.0023,17.85,-7.73,-41.7,257.08,-5.78,2.87,48.843872,2.353375,94.3,NaN,,15.06,,0 / 26,,2323,2022-01-10 18:49:16:758
-0.4065,1.0104,9.7349,-0.4832,1.0094,9.7426,0.0652,-0.0154,0.1564,-0.0419,-0.0854,-0.0148,17.85,-7.73,-41.7,257.08,-5.78,2.87,48.843872,2.353375,94.3,NaN,,15.06,,0 / 26,,2328,2022-01-10 18:49:16:763
-0.4065,1.0104,9.7349,-0.4832,1.0094,9.7426,0.0652,-0.0154,0.1564,-0.0419,-0.0854,-0.0148,17.85,-7.73,-41.7,257.08,-5.78,2.87,48.843872,2.353375,94.3,NaN,,15.06,,0 / 26,,2334,2022-01-10 18:49:16:769
-0.4065,1.0104,9.7349,-0.4832,1.0094,9.7426,0.0652,-0.0154,0.1564,-0.0419,-0.0854,-0.0148,17.85,-7.73,-41.7,257.08,-5.78,2.87,48.843872,2.353375,94.3,NaN,,15.06,,0 / 26,,2338,2022-01-10 18:49:16:773
-0.4065,1.0104,9.7349,-0.4832,1.0094,9.7426,0.0652,-0.0154,0.1564,-0.0419,-0.0854,-0.0148,18.15,-7.65,-41.7,257.42,-5.91,2.84,48.843872,2.353375,94.3,NaN,,15.06,,0 / 26,,2343,2022-01-10 18:49:16:778
-0.4065,1.0104,9.7349,-0.4832,1.0094,9.7426,0.0652,-0.0154,0.1564,-0.0419,-0.0854,-0.0148,18.15,-7.65,-41.7,257.42,-5.91,2.84,48.843872,2.353375,94.3,NaN,,15.06,,0 / 26,,2348,2022-01-10 18:49:16:783
-0.5883,1.0893,9.6823,-0.4729,1.0195,9.742,0.0652,-0.0154,0.1564,-0.0419,-0.0854,-0.0148,18.15,-7.65,-41.7,257.42,-5.91,2.84,48.843872,2.353375,94.3,NaN,,15.06,,0 / 26,,2353,2022-01-10 18:49:16:788
-0.5883,1.0893,9.6823,-0.4729,1.0195,9.742,0.0652,-0.0154,0.1564,0.0795,0.0499,0.0055,18.15,-7.65,-41.7,257.42,-5.91,2.84,48.843872,2.353375,94.3,NaN,,15.06,,0 / 26,,2357,2022-01-10 18:49:16:792
-0.5883,1.0893,9.6823,-0.4729,1.0195,9.742,-0.1209,0.0642,-0.0117,0.0795,0.0499,0.0055,18.15,-7.65,-41.7,257.42,-5.91,2.84,48.843872,2.353375,94.3,NaN,,15.06,,0 / 26,,2363,2022-01-10 18:49:16:798
-0.5883,1.0893,9.6823,-0.4729,1.0195,9.742,-0.1209,0.0642,-0.0117,0.0795,0.0499,0.0055,18.15,-7.65,-41.7,257.42,-5.91,2.84,48.843872,2.353375,94.3,NaN,,15.06,,0 / 26,,2368,2022-01-10 18:49:16:803
-0.5883,1.0893,9.6823,-0.4729,1.0195,9.742,-0.1209,0.0642,-0.0117,0.0795,0.0499,0.0055,18.0,-7.57,-41.62,257.42,-5.91,2.84,48.843872,2.353375,94.3,NaN,,15.06,,0 / 26,,2372,2022-01-10 18:49:16:807
-0.4543,1.0175,9.6197,-0.4729,1.0195,9.742,-0.1209,0.0642,-0.0117,0.0795,0.0499,0.0055,18.0,-7.57,-41.62,257.42,-5.91,2.84,48.843872,2.353375,94.3,NaN,,15.06,,0 / 26,,2378,2022-01-10 18:49:16:813
-0.4543,1.0175,9.6197,-0.4729,1.0195,9.742,-0.1209,0.0642,-0.0117,0.0795,0.0499,0.0055,18.0,-7.57,-41.62,257.42,-5.91,2.84,48.843872,2.353375,94.3,NaN,,15.06,,0 / 26,,2382,2022-01-10 18:49:16:817
-0.4543,1.0175,9.6197,-0.4852,1.0406,9.7392,0.0208,0.0131,-0.0383,0.0284,0.0105,0.0204,18.0,-7.57,-41.62,257.42,-5.91,2.84,48.843872,2.353375,94.3,NaN,,15.06,,0 / 26,,2388,2022-01-10 18:49:16:823
-0.4543,1.0175,9.6197,-0.4852,1.0406,9.7392,0.0208,0.0131,-0.0383,0.0284,0.0105,0.0204,18.0,-7.57,-41.62,257.42,-5.91,2.84,48.843872,2.353375,94.3,NaN,,15.06,,0 / 26,,2392,2022-01-10 18:49:16:827
-0.4543,1.0175,9.6197,-0.4852,1.0406,9.7392,0.0208,0.0131,-0.0383,0.0284,0.0105,0.0204,18.0,-7.57,-41.62,257.42,-5.91,2.84,48.843872,2.353375,94.3,NaN,,15.06,,0 / 26,,2397,2022-01-10 18:49:16:832
-0.4543,1.0175,9.6197,-0.4852,1.0406,9.7392,0.0208,0.0131,-0.0383,0.0284,0.0105,0.0204,18.0,-7.57,-41.62,257.42,-5.91,2.84,48.843872,2.353375,94.3,NaN,,15.06,,0 / 26,,2403,2022-01-10 18:49:16:838
-0.4615,0.8859,9.6317,-0.4852,1.0406,9.7392,0.0208,0.0131,-0.0383,0.0284,0.0105,0.0204,18.15,-7.5,-42.07,257.89,-6.09,2.85,48.843872,2.353375,94.3,NaN,,15.06,,0 / 26,,2408,2022-01-10 18:49:16:843
-0.4615,0.8859,9.6317,-0.4852,1.0406,9.7392,0.0208,0.0131,-0.0383,0.0284,0.0105,0.0204,18.15,-7.5,-42.07,257.89,-6.09,2.85,48.843872,2.353375,94.3,NaN,,15.06,,0 / 26,,2412,2022-01-10 18:49:16:847
-0.4615,0.8859,9.6317,-0.4883,1.038,9.7393,-0.0277,-0.1264,-0.0198,-0.0142,-0.0257,0.0055,18.15,-7.5,-42.07,257.89,-6.09,2.85,48.843872,2.353375,94.3,NaN,,15.06,,0 / 26,,2417,2022-01-10 18:49:16:852
-0.4615,0.8859,9.6317,-0.4883,1.038,9.7393,-0.0277,-0.1264,-0.0198,-0.0142,-0.0257,0.0055,18.15,-7.5,-42.07,257.89,-6.09,2.85,48.843872,2.353375,94.3,NaN,,15.06,,0 / 26,,2423,2022-01-10 18:49:16:858
-0.4615,0.8859,9.6317,-0.4883,1.038,9.7393,-0.0277,-0.1264,-0.0198,-0.0142,-0.0257,0.0055,18.15,-7.5,-42.07,257.89,-6.09,2.85,48.843872,2.353375,94.3,NaN,,15.06,,0 / 26,,2427,2022-01-10 18:49:16:862
-0.5022,0.9553,9.7086,-0.4883,1.038,9.7393,-0.0277,-0.1264,-0.0198,-0.0142,-0.0257,0.0055,18.15,-7.5,-42.07,257.89,-6.09,2.85,48.843872,2.353375,94.3,NaN,,15.06,,0 / 26,,2432,2022-01-10 18:49:16:867
-0.5022,0.9553,9.7086,-0.4883,1.038,9.7393,-0.0277,-0.1264,-0.0198,-0.0142,-0.0257,0.0055,18.15,-7.5,-42.07,257.89,-6.09,2.85,48.843872,2.353375,94.3,NaN,,15.06,,0 / 26,,2438,2022-01-10 18:49:16:873
-0.5022,0.9553,9.7086,-0.4883,1.038,9.7393,-0.0277,-0.1264,-0.0198,-0.0142,-0.0257,0.0055,17.93,-7.73,-41.85,257.89,-6.09,2.85,48.843872,2.353375,94.3,NaN,,15.06,,0 / 26,,2443,2022-01-10 18:49:16:878
-0.5022,0.9553,9.7086,-0.4684,1.0335,9.7408,0.0076,-0.0573,0.0228,0.0177,-0.0651,-0.0169,17.93,-7.73,-41.85,257.89,-6.09,2.85,48.843872,2.353375,94.3,NaN,,15.06,,0 / 26,,2448,2022-01-10 18:49:16:883
-0.5022,0.9553,9.7086,-0.4684,1.0335,9.7408,0.0076,-0.0573,0.0228,0.0177,-0.0651,-0.0169,17.93,-7.73,-41.85,257.89,-6.09,2.85,48.843872,2.353375,94.3,NaN,,15.06,,0 / 26,,2452,2022-01-10 18:49:16:887
-0.3897,0.9386,9.7253,-0.4684,1.0335,9.7408,0.0076,-0.0573,0.0228,0.0177,-0.0651,-0.0169,17.93,-7.73,-41.85,257.89,-6.09,2.85,48.843872,2.353375,94.3,NaN,,15.06,,0 / 26,,2458,2022-01-10 18:49:16:893
-0.3897,0.9386,9.7253,-0.4684,1.0335,9.7408,0.0076,-0.0573,0.0228,0.0177,-0.0651,-0.0169,17.93,-7.73,-41.85,257.89,-6.09,2.85,48.843872,2.353375,94.3,NaN,,15.06,,0 / 26,,2462,2022-01-10 18:49:16:897
-0.3897,0.9386,9.7253,-0.4684,1.0335,9.7408,0.0076,-0.0573,0.0228,0.0177,-0.0651,-0.0169,17.93,-7.73,-41.85,257.89,-6.09,2.85,48.843872,2.353375,94.3,NaN,,15.06,,0 / 26,,2467,2022-01-10 18:49:16:902
-0.3897,0.9386,9.7253,-0.4684,1.0335,9.7408,0.0076,-0.0573,0.0228,0.0177,-0.0651,-0.0169,18.0,-7.73,-41.77,257.83,-6.05,2.75,48.843872,2.353375,94.3,NaN,,15.06,,0 / 26,,2473,2022-01-10 18:49:16:908
-0.3897,0.9386,9.7253,-0.463,1.0373,9.7406,-0.0193,0.0012,-0.0461,0.0124,0.0308,0.0012,18.0,-7.73,-41.77,257.83,-6.05,2.75,48.843872,2.353375,94.3,NaN,,15.06,,0 / 26,,2478,2022-01-10 18:49:16:913
-0.3897,0.9386,9.7253,-0.463,1.0373,9.7406,-0.0193,0.0012,-0.0461,0.0124,0.0308,0.0012,18.0,-7.73,-41.77,257.83,-6.05,2.75,48.843872,2.353375,94.3,NaN,,15.06,,0 / 26,,2483,2022-01-10 18:49:16:918
-0.5788,1.0893,9.5815,-0.463,1.0373,9.7406,-0.0193,0.0012,-0.0461,0.0124,0.0308,0.0012,18.0,-7.73,-41.77,257.83,-6.05,2.75,48.843872,2.353375,94.3,NaN,,15.06,,0 / 26,,2488,2022-01-10 18:49:16:923
-0.5788,1.0893,9.5815,-0.463,1.0373,9.7406,-0.0193,0.0012,-0.0461,0.0124,0.0308,0.0012,18.0,-7.73,-41.77,257.83,-6.05,2.75,48.843872,2.353375,94.3,NaN,,15.06,,0 / 26,,2492,2022-01-10 18:49:16:927
-0.5788,1.0893,9.5815,-0.463,1.0373,9.7406,-0.0193,0.0012,-0.0461,0.0124,0.0308,0.0012,18.0,-7.73,-41.77,257.83,-6.05,2.75,48.843872,2.353375,94.3,NaN,,15.06,,0 / 26,,2498,2022-01-10 18:49:16:933
-0.5788,1.0893,9.5815,-0.463,1.0373,9.7406,-0.0193,0.0012,-0.0461,0.0124,0.0308,0.0012,18.0,-7.73,-41.77,257.83,-6.05,2.75,48.843872,2.353375,94.3,NaN,,15.06,,0 / 26,,2503,2022-01-10 18:49:16:938
-0.5788,1.0893,9.5815,-0.463,1.0373,9.7406,-0.0193,0.0012,-0.0461,0.0124,0.0308,0.0012,18.0,-7.73,-41.77,257.83,-6.05,2.75,48.843872,2.353375,94.3,NaN,,15.06,,0 / 26,,2507,2022-01-10 18:49:16:942
-0.5788,1.0893,9.5815,-0.4681,1.0387,9.7402,0.0048,0.0433,-0.0842,-0.0441,-0.0204,-0.0073,18.3,-7.8,-41.77,257.83,-6.05,2.75,48.843872,2.353375,94.3,NaN,,15.06,,0 / 26,,2513,2022-01-10 18:49:16:948
-0.5046,0.9769,9.7349,-0.4681,1.0387,9.7402,0.0048,0.0433,-0.0842,-0.0441,-0.0204,-0.0073,18.3,-7.8,-41.77,257.83,-6.05,2.75,48.843872,2.353375,94.3,NaN,,15.06,,0 / 26,,2518,2022-01-10 18:49:16:953
-0.5046,0.9769,9.7349,-0.4681,1.0387,9.7402,0.0048,0.0433,-0.0842,-0.0441,-0.0204,-0.0073,18.3,-7.8,-41.77,257.83,-6.05,2.75,48.843872,2.353375,94.3,NaN,,15.06,,0 / 26,,2523,2022-01-10 18:49:16:958
-0.5046,0.9769,9.7349,-0.4681,1.0387,9.7402,0.0048,0.0433,-0.0842,-0.0441,-0.0204,-0.0073,18.3,-7.8,-41.77,257.83,-6.05,2.75,48.843872,2.353375,94.3,NaN,,15.06,,0 / 26,,2527,2022-01-10 18:49:16:962
-0.5046,0.9769,9.7349,-0.4681,1.0387,9.7402,0.0048,0.0433,-0.0842,-0.0441,-0.0204,-0.0073,18.3,-7.8,-41.77,257.83,-6.05,2.75,48.843872,2.353375,94.3,NaN,,15.06,,0 / 26,,2533,2022-01-10 18:49:16:968
-0.5046,0.9769,9.7349,-0.4681,1.0387,9.7402,0.0048,0.0433,-0.0842,-0.0441,-0.0204,-0.0073,18.3,-7.8,-41.77,257.83,-6.05,2.75,48.843872,2.353375,94.3,NaN,,15.06,,0 / 26,,2538,2022-01-10 18:49:16:973
-0.5046,0.9769,9.7349,-0.4546,1.022,9.7427,0.0968,0.0528,0.0193,-0.026,-0.0598,-0.0254,17.93,-7.65,-41.62,257.69,-5.98,2.67,48.843872,2.353375,94.3,NaN,,15.06,,0 / 26,,2543,2022-01-10 18:49:16:978
-0.5261,1.1204,9.5815,-0.4546,1.022,9.7427,0.0968,0.0528,0.0193,-0.026,-0.0598,-0.0254,17.93,-7.65,-41.62,257.69,-5.98,2.67,48.843872,2.353375,94.3,NaN,,15.06,,0 / 26,,2548,2022-01-10 18:49:16:983
-0.5261,1.1204,9.5815,-0.4546,1.022,9.7427,0.0968,0.0528,0.0193,-0.026,-0.0598,-0.0254,17.93,-7.65,-41.62,257.69,-5.98,2.67,48.843872,2.353375,94.3,NaN,,15.06,,0 / 26,,2552,2022-01-10 18:49:16:987
-0.5261,1.1204,9.5815,-0.4546,1.022,9.7427,0.0968,0.0528,0.0193,-0.026,-0.0598,-0.0254,17.93,-7.65,-41.62,257.69,-5.98,2.67,48.843872,2.353375,94.3,NaN,,15.06,,0 / 26,,2557,2022-01-10 18:49:16:992
-0.5261,1.1204,9.5815,-0.4546,1.022,9.7427,0.0968,0.0528,0.0193,-0.026,-0.0598,-0.0254,17.93,-7.65,-41.62,257.69,-5.98,2.67,48.843872,2.353375,94.3,NaN,,15.06,,0 / 26,,2563,2022-01-10 18:49:16:998
-0.5261,1.1204,9.5815,-0.4546,1.022,9.7427,0.0968,0.0528,0.0193,-0.026,-0.0598,-0.0254,17.93,-7.65,-41.62,257.69,-5.98,2.67,48.843872,2.353375,94.3,NaN,,15.06,,0 / 26,,2568,2022-01-10 18:49:17:003
-0.5261,1.1324,9.4834,-0.4547,1.0242,9.7424,-0.0434,0.1178,-0.119,-0.0366,-0.0108,0.0364,17.93,-7.65,-41.62,257.69,-5.98,2.67,48.843872,2.353375,94.3,NaN,,15.06,,0 / 26,,2572,2022-01-10 18:49:17:007
-0.5261,1.1324,9.4834,-0.4547,1.0242,9.7424,-0.0434,0.1178,-0.119,-0.0366,-0.0108,0.0364,17.93,-7.65,-41.62,257.69,-5.98,2.67,48.843872,2.353375,94.3,NaN,,15.06,,0 / 26,,2577,2022-01-10 18:49:17:012
-0.5261,1.1324,9.4834,-0.4547,1.0242,9.7424,-0.0434,0.1178,-0.119,-0.0366,-0.0108,0.0364,17.93,-8.03,-42.15,257.69,-5.98,2.67,48.843872,2.353375,94.3,NaN,,15.06,,0 / 26,,2583,2022-01-10 18:49:17:018
-0.5261,1.1324,9.4834,-0.4547,1.0242,9.7424,-0.0434,0.1178,-0.119,-0.0366,-0.0108,0.0364,17.93,-8.03,-42.15,257.69,-5.98,2.67,48.843872,2.353375,94.3,NaN,,15.06,,0 / 26,,2587,2022-01-10 18:49:17:022
-0.5261,1.1324,9.4834,-0.4547,1.0242,9.7424,-0.0434,0.1178,-0.119,-0.0366,-0.0108,0.0364,17.93,-8.03,-42.15,257.69,-5.98,2.67,48.843872,2.353375,94.3,NaN,,15.06,,0 / 26,,2593,2022-01-10 18:49:17:028
-0.5261,1.1324,9.4834,-0.4547,1.0242,9.7424,-0.0434,0.1178,-0.119,-0.0366,-0.0108,0.0364,17.93,-8.03,-42.15,257.69,-5.98,2.67,48.843872,2.353375,94.3,NaN,,15.06,,0 / 26,,2598,2022-01-10 18:49:17:033
-0.2818,1.0295,9.5408,-0.454,1.0115,9.7438,0.1197,0.0449,-0.2063,-0.0366,-0.0108,0.0364,17.93,-8.03,-42.15,257.69,-5.98,2.67,48.843872,2.353375,94.3,NaN,,15.06,,0 / 26,,2603,2022-01-10 18:49:17:038
-0.2818,1.0295,9.5408,-0.454,1.0115,9.7438,0.1197,0.0449,-0.2063,-0.076,0.0286,-0.0297,17.93,-8.03,-42.15,257.69,-5.98,2.67,48.843872,2.353375,94.3,NaN,,15.06,,0 / 26,,2608,2022-01-10 18:49:17:043
-0.2818,1.0295,9.5408,-0.454,1.0115,9.7438,0.1197,0.0449,-0.2063,-0.076,0.0286,-0.0297,18.0,-8.1,-42.6,257.85,-5.92,2.67,48.843872,2.353375,94.3,NaN,,15.06,,0 / 26,,2613,2022-01-10 18:49:17:048
-0.2818,1.0295,9.5408,-0.454,1.0115,9.7438,0.1197,0.0449,-0.2063,-0.076,0.0286,-0.0297,18.0,-8.1,-42.6,257.85,-5.92,2.67,48.843872,2.353375,94.3,NaN,,15.06,,0 / 26,,2617,2022-01-10 18:49:17:052
-0.2818,1.0295,9.5408,-0.454,1.0115,9.7438,0.1197,0.0449,-0.2063,-0.076,0.0286,-0.0297,18.0,-8.1,-42.6,257.85,-5.92,2.67,48.843872,2.353375,94.3,NaN,,15.06,,0 / 26,,2622,2022-01-10 18:49:17:057
-0.3176,0.9888,9.7517,-0.4625,0.9843,9.7462,0.1091,-0.0206,0.1623,-0.076,0.0286,-0.0297,18.0,-8.1,-42.6,257.85,-5.92,2.67,48.843872,2.353375,94.3,NaN,,15.06,,0 / 26,,2628,2022-01-10 18:49:17:063
-0.3176,0.9888,9.7517,-0.4625,0.9843,9.7462,0.1091,-0.0206,0.1623,-0.076,0.0286,-0.0297,18.0,-8.1,-42.6,257.85,-5.92,2.67,48.843872,2.353375,94.3,NaN,,15.06,,0 / 26,,2632,2022-01-10 18:49:17:067
-0.3176,0.9888,9.7517,-0.4625,0.9843,9.7462,0.1091,-0.0206,0.1623,-0.0611,0.0137,-0.0286,18.0,-8.1,-42.6,257.85,-5.92,2.67,48.843872,2.353375,94.3,NaN,,15.06,,0 / 26,,2637,2022-01-10 18:49:17:072
-0.3176,0.9888,9.7517,-0.4625,0.9843,9.7462,0.1091,-0.0206,0.1623,-0.0611,0.0137,-0.0286,18.15,-7.95,-42.9,257.85,-5.92,2.67,48.843872,2.353375,94.3,NaN,,15.06,,0 / 26,,2643,2022-01-10 18:49:17:078
-0.3176,0.9888,9.7517,-0.4625,0.9843,9.7462,0.1091,-0.0206,0.1623,-0.0611,0.0137,-0.0286,18.15,-7.95,-42.9,257.85,-5.92,2.67,48.843872,2.353375,94.3,NaN,,15.06,,0 / 26,,2648,2022-01-10 18:49:17:083
-0.3176,0.9888,9.7517,-0.4625,0.9843,9.7462,0.1091,-0.0206,0.1623,-0.0611,0.0137,-0.0286,18.15,-7.95,-42.9,257.85,-5.92,2.67,48.843872,2.353375,94.3,NaN,,15.06,,0 / 26,,2652,2022-01-10 18:49:17:087
-0.3778,0.8955,9.6245,-0.4583,0.9696,9.7478,0.0439,-0.0961,0.0431,-0.0611,0.0137,-0.0286,18.15,-7.95,-42.9,257.85,-5.92,2.67,48.843872,2.353375,94.3,NaN,,15.06,,0 / 26,,2658,2022-01-10 18:49:17:093
-0.3778,0.8955,9.6245,-0.4583,0.9696,9.7478,0.0439,-0.0961,0.0431,-0.0611,0.0137,-0.0286,18.15,-7.95,-42.9,257.85,-5.92,2.67,48.843872,2.353375,94.3,NaN,,15.06,,0 / 26,,2663,2022-01-10 18:49:17:098
-0.3778,0.8955,9.6245,-0.4583,0.9696,9.7478,0.0439,-0.0961,0.0431,-0.0142,-0.031,-0.0212,18.15,-7.95,-42.9,257.85,-5.92,2.67,48.843872,2.353375,94.3,NaN,,15.06,,0 / 26,,2667,2022-01-10 18:49:17:102
-0.3778,0.8955,9.6245,-0.4583,0.9696,9.7478,0.0439,-0.0961,0.0431,-0.0142,-0.031,-0.0212,18.08,-7.35,-42.3,260.31,-5.67,2.69,48.843872,2.353375,94.3,NaN,,15.06,,0 / 26,,2673,2022-01-10 18:49:17:108
-0.3778,0.8955,9.6245,-0.4583,0.9696,9.7478,0.0439,-0.0961,0.0431,-0.0142,-0.031,-0.0212,18.08,-7.35,-42.3,260.31,-5.67,2.69,48.843872,2.353375,94.3,NaN,,15.06,,0 / 26,,2679,2022-01-10 18:49:17:114
-0.3491,0.8859,9.5121,-0.4583,0.9696,9.7478,0.0439,-0.0961,0.0431,-0.0142,-0.031,-0.0212,18.08,-7.35,-42.3,260.31,-5.67,2.69,48.843872,2.353375,94.3,NaN,,15.06,,0 / 26,,2683,2022-01-10 18:49:17:118
-0.3491,0.8859,9.5121,-0.4514,0.9642,9.7487,0.1494,-0.0662,-0.1399,-0.0142,-0.031,-0.0212,18.08,-7.35,-42.3,260.31,-5.67,2.69,48.843872,2.353375,94.3,NaN,,15.06,,0 / 26,,2688,2022-01-10 18:49:17:123
-0.3491,0.8859,9.5121,-0.4514,0.9642,9.7487,0.1494,-0.0662,-0.1399,-0.0142,-0.031,-0.0212,18.08,-7.35,-42.3,260.31,-5.67,2.69,48.843872,2.353375,94.3,NaN,,15.06,,0 / 26,,2693,2022-01-10 18:49:17:128
-0.3491,0.8859,9.5121,-0.4514,0.9642,9.7487,0.1494,-0.0662,-0.1399,-0.0334,0.133,0.0108,18.08,-7.35,-42.3,260.31,-5.67,2.69,48.843872,2.353375,94.3,NaN,,15.06,,0 / 26,,2697,2022-01-10 18:49:17:132
-0.3491,0.8859,9.5121,-0.4514,0.9642,9.7487,0.1494,-0.0662,-0.1399,-0.0334,0.133,0.0108,18.08,-7.35,-42.3,260.31,-5.67,2.69,48.843872,2.353375,94.3,NaN,,15.06,,0 / 26,,2703,2022-01-10 18:49:17:138
-0.4711,0.917,9.6413,-0.4514,0.9642,9.7487,0.1494,-0.0662,-0.1399,-0.0334,0.133,0.0108,18.0,-7.42,-42.3,260.31,-5.67,2.69,48.843872,2.353375,94.3,NaN,,15.06,,0 / 26,,2711,2022-01-10 18:49:17:146
-0.4711,0.917,9.6413,-0.4514,0.9642,9.7487,0.1494,-0.0662,-0.1399,-0.0334,0.133,0.0108,18.0,-7.42,-42.3,260.31,-5.67,2.69,48.843872,2.353375,94.3,NaN,,15.06,,0 / 26,,2712,2022-01-10 18:49:17:147
-0.4711,0.917,9.6413,-0.481,0.9537,9.7483,0.0109,-0.0052,-0.0079,-0.0334,0.133,0.0108,18.0,-7.42,-42.3,260.31,-5.67,2.69,48.843872,2.353375,94.3,NaN,,15.06,,0 / 26,,2718,2022-01-10 18:49:17:153
-0.4711,0.917,9.6413,-0.481,0.9537,9.7483,0.0109,-0.0052,-0.0079,-0.0334,0.133,0.0108,18.0,-7.42,-42.3,260.31,-5.67,2.69,48.843872,2.353375,94.3,NaN,,15.06,,0 / 26,,2723,2022-01-10 18:49:17:158
-0.4711,0.917,9.6413,-0.481,0.9537,9.7483,0.0109,-0.0052,-0.0079,-0.0632,-0.0332,-0.0031,18.0,-7.42,-42.3,260.31,-5.67,2.69,48.843872,2.353375,94.3,NaN,,15.06,,0 / 26,,2728,2022-01-10 18:49:17:163
-0.4711,0.917,9.6413,-0.481,0.9537,9.7483,0.0109,-0.0052,-0.0079,-0.0632,-0.0332,-0.0031,18.0,-7.42,-42.3,260.31,-5.67,2.69,48.843872,2.353375,94.3,NaN,,15.06,,0 / 26,,2733,2022-01-10 18:49:17:168
-0.495,0.8979,9.7277,-0.481,0.9537,9.7483,0.0109,-0.0052,-0.0079,-0.0632,-0.0332,-0.0031,18.0,-7.42,-42.3,260.31,-5.67,2.69,48.843872,2.353375,94.3,NaN,,15.06,,0 / 26,,2738,2022-01-10 18:49:17:173
-0.495,0.8979,9.7277,-0.481,0.9537,9.7483,0.0109,-0.0052,-0.0079,-0.0632,-0.0332,-0.0031,18.38,-7.73,-42.37,256.58,-5.58,2.83,48.843872,2.353375,94.3,NaN,,15.06,,0 / 26,,2743,2022-01-10 18:49:17:178
-0.495,0.8979,9.7277,-0.4793,0.9335,9.7504,0.0463,-0.0583,0.123,-0.0632,-0.0332,-0.0031,18.38,-7.73,-42.37,256.58,-5.58,2.83,48.843872,2.353375,94.3,NaN,,15.06,,0 / 26,,2747,2022-01-10 18:49:17:182
-0.495,0.8979,9.7277,-0.4793,0.9335,9.7504,0.0463,-0.0583,0.123,-0.0632,-0.0332,-0.0031,18.38,-7.73,-42.37,256.58,-5.58,2.83,48.843872,2.353375,94.3,NaN,,15.06,,0 / 26,,2753,2022-01-10 18:49:17:188
-0.495,0.8979,9.7277,-0.4793,0.9335,9.7504,0.0463,-0.0583,0.123,7.0E-4,0.0893,-0.0031,18.38,-7.73,-42.37,256.58,-5.58,2.83,48.843872,2.353375,94.3,NaN,,15.06,,0 / 26,,2758,2022-01-10 18:49:17:193
-0.6221,0.9218,9.8904,-0.4793,0.9335,9.7504,0.0463,-0.0583,0.123,7.0E-4,0.0893,-0.0031,18.38,-7.73,-42.37,256.58,-5.58,2.83,48.843872,2.353375,94.3,NaN,,15.06,,0 / 26,,2763,2022-01-10 18:49:17:198
-0.6221,0.9218,9.8904,-0.4793,0.9335,9.7504,0.0463,-0.0583,0.123,7.0E-4,0.0893,-0.0031,18.38,-7.73,-42.37,256.58,-5.58,2.83,48.843872,2.353375,94.3,NaN,,15.06,,0 / 26,,2768,2022-01-10 18:49:17:203
-0.6221,0.9218,9.8904,-0.4793,0.9335,9.7504,0.0463,-0.0583,0.123,7.0E-4,0.0893,-0.0031,18.75,-7.42,-41.47,256.58,-5.58,2.83,48.843872,2.353375,94.3,NaN,,15.06,,0 / 26,,2773,2022-01-10 18:49:17:208
-0.6221,0.9218,9.8904,-0.5076,0.9303,9.7492,-0.1491,0.0876,0.2219,7.0E-4,0.0893,-0.0031,18.75,-7.42,-41.47,256.58,-5.58,2.83,48.843872,2.353375,94.3,NaN,,15.06,,0 / 26,,2777,2022-01-10 18:49:17:212
-0.6221,0.9218,9.8904,-0.5076,0.9303,9.7492,-0.1491,0.0876,0.2219,7.0E-4,0.0893,-0.0031,18.75,-7.42,-41.47,256.58,-5.58,2.83,48.843872,2.353375,94.3,NaN,,15.06,,0 / 26,,2783,2022-01-10 18:49:17:218
-0.6221,0.9218,9.8904,-0.5076,0.9303,9.7492,-0.1491,0.0876,0.2219,7.0E-4,0.0893,-0.0031,18.75,-7.42,-41.47,256.58,-5.58,2.83,48.843872,2.353375,94.3,NaN,,15.06,,0 / 26,,2787,2022-01-10 18:49:17:222
-0.9144,1.0439,10.1348,-0.5076,0.9303,9.7492,-0.1491,0.0876,0.2219,0.0433,0.1043,0.0225,18.75,-7.42,-41.47,256.58,-5.58,2.83,48.843872,2.353375,94.3,NaN,,15.06,,0 / 26,,2793,2022-01-10 18:49:17:228
-0.9144,1.0439,10.1348,-0.5076,0.9303,9.7492,-0.1491,0.0876,0.2219,0.0433,0.1043,0.0225,18.75,-7.42,-41.47,256.58,-5.58,2.83,48.843872,2.353375,94.3,NaN,,15.06,,0 / 26,,2797,2022-01-10 18:49:17:232
-0.9144,1.0439,10.1348,-0.5076,0.9303,9.7492,-0.1491,0.0876,0.2219,0.0433,0.1043,0.0225,18.75,-7.42,-41.47,256.58,-5.58,2.83,48.843872,2.353375,94.3,NaN,,15.06,,0 / 26,,2802,2022-01-10 18:49:17:237
-0.9144,1.0439,10.1348,-0.5319,0.9455,9.7465,-0.463,0.1044,0.6411,0.0433,0.1043,0.0225,18.75,-7.13,-41.62,260.21,-5.44,2.98,48.843872,2.353375,94.3,NaN,,15.06,,0 / 26,,2807,2022-01-10 18:49:17:242
-0.9144,1.0439,10.1348,-0.5319,0.9455,9.7465,-0.463,0.1044,0.6411,0.0433,0.1043,0.0225,18.75,-7.13,-41.62,260.21,-5.44,2.98,48.843872,2.353375,94.3,NaN,,15.06,,0 / 26,,2813,2022-01-10 18:49:17:248
-0.9144,1.0439,10.1348,-0.5319,0.9455,9.7465,-0.463,0.1044,0.6411,0.0433,0.1043,0.0225,18.75,-7.13,-41.62,260.21,-5.44,2.98,48.843872,2.353375,94.3,NaN,,15.06,,0 / 26,,2818,2022-01-10 18:49:17:253
-0.8136,0.9817,10.3289,-0.5319,0.9455,9.7465,-0.463,0.1044,0.6411,0.1487,-0.2483,0.0459,18.75,-7.13,-41.62,260.21,-5.44,2.98,48.843872,2.353375,94.3,NaN,,15.06,,0 / 26,,2823,2022-01-10 18:49:17:258
-0.8136,0.9817,10.3289,-0.5319,0.9455,9.7465,-0.463,0.1044,0.6411,0.1487,-0.2483,0.0459,18.75,-7.13,-41.62,260.21,-5.44,2.98,48.843872,2.353375,94.3,NaN,,15.06,,0 / 26,,2828,2022-01-10 18:49:17:263
-0.8136,0.9817,10.3289,-0.484,0.9889,9.7447,-0.463,0.1044,0.6411,0.1487,-0.2483,0.0459,18.75,-7.13,-41.62,260.21,-5.44,2.98,48.843872,2.353375,94.3,NaN,,15.06,,0 / 26,,2833,2022-01-10 18:49:17:268
-0.8136,0.9817,10.3289,-0.484,0.9889,9.7447,-0.463,0.1044,0.6411,0.1487,-0.2483,0.0459,18.75,-7.13,-41.62,260.21,-5.44,2.98,48.843872,2.353375,94.3,NaN,,15.06,,0 / 26,,2838,2022-01-10 18:49:17:273
-0.8136,0.9817,10.3289,-0.484,0.9889,9.7447,-0.3657,0.0822,0.53,0.1487,-0.2483,0.0459,18.08,-7.57,-42.0,260.21,-5.44,2.98,48.843872,2.353375,94.3,NaN,,15.06,,0 / 26,,2843,2022-01-10 18:49:17:278
-0.8136,0.9817,10.3289,-0.484,0.9889,9.7447,-0.3657,0.0822,0.53,0.1487,-0.2483,0.0459,18.08,-7.57,-42.0,260.21,-5.44,2.98,48.843872,2.353375,94.3,NaN,,15.06,,0 / 26,,2848,2022-01-10 18:49:17:283
-0.8279,1.4151,10.1635,-0.484,0.9889,9.7447,-0.3657,0.0822,0.53,0.1487,-0.2483,0.0459,18.08,-7.57,-42.0,260.21,-5.44,2.98,48.843872,2.353375,94.3,NaN,,15.06,,0 / 26,,2853,2022-01-10 18:49:17:288
-0.8279,1.4151,10.1635,-0.4573,1.0702,9.7374,-0.3657,0.0822,0.53,0.3447,-0.145,0.0715,18.08,-7.57,-42.0,260.21,-5.44,2.98,48.843872,2.353375,94.3,NaN,,15.06,,0 / 26,,2858,2022-01-10 18:49:17:293
-0.8279,1.4151,10.1635,-0.4573,1.0702,9.7374,-0.3657,0.0822,0.53,0.3447,-0.145,0.0715,18.08,-7.57,-42.0,260.21,-5.44,2.98,48.843872,2.353375,94.3,NaN,,15.06,,0 / 26,,2863,2022-01-10 18:49:17:298
-0.8279,1.4151,10.1635,-0.4573,1.0702,9.7374,-0.3657,0.0822,0.53,0.3447,-0.145,0.0715,18.08,-7.57,-42.0,260.21,-5.44,2.98,48.843872,2.353375,94.3,NaN,,15.06,,0 / 26,,2868,2022-01-10 18:49:17:303
-0.8279,1.4151,10.1635,-0.4573,1.0702,9.7374,-0.3657,0.0822,0.53,0.3447,-0.145,0.0715,18.08,-7.57,-42.0,260.21,-5.44,2.98,48.843872,2.353375,94.3,NaN,,15.06,,0 / 26,,2872,2022-01-10 18:49:17:307
-0.4831,1.2835,9.5336,-0.4573,1.0702,9.7374,-0.3254,0.2695,0.3093,0.3447,-0.145,0.0715,18.15,-7.57,-42.37,258.42,-6.27,2.69,48.843872,2.353375,94.3,NaN,,15.06,,0 / 26,,2878,2022-01-10 18:49:17:313
-0.4831,1.2835,9.5336,-0.4573,1.0702,9.7374,-0.3254,0.2695,0.3093,0.3447,-0.145,0.0715,18.15,-7.57,-42.37,258.42,-6.27,2.69,48.843872,2.353375,94.3,NaN,,15.06,,0 / 26,,2883,2022-01-10 18:49:17:318
-0.4831,1.2835,9.5336,-0.4467,1.1941,9.7234,-0.3254,0.2695,0.3093,0.3767,0.0499,0.1333,18.15,-7.57,-42.37,258.42,-6.27,2.69,48.843872,2.353375,94.3,NaN,,15.06,,0 / 26,,2888,2022-01-10 18:49:17:323
-0.4831,1.2835,9.5336,-0.4467,1.1941,9.7234,-0.3254,0.2695,0.3093,0.3767,0.0499,0.1333,18.15,-7.57,-42.37,258.42,-6.27,2.69,48.843872,2.353375,94.3,NaN,,15.06,,0 / 26,,2893,2022-01-10 18:49:17:328
-0.4831,1.2835,9.5336,-0.4467,1.1941,9.7234,-0.3254,0.2695,0.3093,0.3767,0.0499,0.1333,18.15,-7.57,-42.37,258.42,-6.27,2.69,48.843872,2.353375,94.3,NaN,,15.06,,0 / 26,,2898,2022-01-10 18:49:17:333
-0.4831,1.2835,9.5336,-0.4467,1.1941,9.7234,-0.3254,0.2695,0.3093,0.3767,0.0499,0.1333,18.15,-7.57,-42.37,258.42,-6.27,2.69,48.843872,2.353375,94.3,NaN,,15.06,,0 / 26,,2903,2022-01-10 18:49:17:338
-0.1956,1.063,9.3156,-0.4467,1.1941,9.7234,0.291,-0.1397,-0.3587,0.3767,0.0499,0.1333,17.63,-7.88,-42.6,258.42,-6.27,2.69,48.843872,2.353375,94.3,NaN,,15.06,,0 / 26,,2907,2022-01-10 18:49:17:342
-0.1956,1.063,9.3156,-0.4467,1.1941,9.7234,0.291,-0.1397,-0.3587,0.3767,0.0499,0.1333,17.63,-7.88,-42.6,258.42,-6.27,2.69,48.843872,2.353375,94.3,NaN,,15.06,,0 / 26,,2913,2022-01-10 18:49:17:348
-0.1956,1.063,9.3156,-0.4467,1.1941,9.7234,0.291,-0.1397,-0.3587,0.3767,0.0499,0.1333,17.63,-7.88,-42.6,258.42,-6.27,2.69,48.843872,2.353375,94.3,NaN,,15.06,,0 / 26,,2918,2022-01-10 18:49:17:353
-0.1956,1.063,9.3156,-0.4654,1.2779,9.7119,0.291,-0.1397,-0.3587,0.1956,0.1085,0.0513,17.63,-7.88,-42.6,258.42,-6.27,2.69,48.843872,2.353375,94.3,NaN,,15.06,,0 / 26,,2923,2022-01-10 18:49:17:358
-0.1956,1.063,9.3156,-0.4654,1.2779,9.7119,0.291,-0.1397,-0.3587,0.1956,0.1085,0.0513,17.63,-7.88,-42.6,258.42,-6.27,2.69,48.843872,2.353375,94.3,NaN,,15.06,,0 / 26,,2927,2022-01-10 18:49:17:362
-0.3296,1.0941,9.1792,-0.4654,1.2779,9.7119,0.291,-0.1397,-0.3587,0.1956,0.1085,0.0513,17.63,-7.88,-42.6,258.42,-6.27,2.69,48.843872,2.353375,94.3,NaN,,15.06,,0 / 26,,2933,2022-01-10 18:49:17:368
-0.3296,1.0941,9.1792,-0.4654,1.2779,9.7119,0.1222,-0.1636,-0.4878,0.1956,0.1085,0.0513,17.63,-8.85,-42.3,258.17,-7.49,2.74,48.843872,2.353375,94.3,NaN,,15.06,,0 / 26,,2938,2022-01-10 18:49:17:373
-0.3296,1.0941,9.1792,-0.4654,1.2779,9.7119,0.1222,-0.1636,-0.4878,0.1956,0.1085,0.0513,17.63,-8.85,-42.3,258.17,-7.49,2.74,48.843872,2.353375,94.3,NaN,,15.06,,0 / 26,,2949,2022-01-10 18:49:17:384
-0.3296,1.0941,9.1792,-0.4654,1.2779,9.7119,0.1222,-0.1636,-0.4878,0.1956,0.1085,0.0513,17.63,-8.85,-42.3,258.17,-7.49,2.74,48.843872,2.353375,94.3,NaN,,15.06,,0 / 26,,2949,2022-01-10 18:49:17:384
-0.3296,1.0941,9.1792,-0.4654,1.2779,9.7119,0.1222,-0.1636,-0.4878,0.1956,0.1085,0.0513,17.63,-8.85,-42.3,258.17,-7.49,2.74,48.843872,2.353375,94.3,NaN,,15.06,,0 / 26,,2952,2022-01-10 18:49:17:387
-0.2291,1.142,9.9817,-0.4658,1.3097,9.7076,0.1222,-0.1636,-0.4878,0.0678,0.0265,0.0332,17.63,-8.85,-42.3,258.17,-7.49,2.74,48.843872,2.353375,94.3,NaN,,15.06,,0 / 26,,2957,2022-01-10 18:49:17:392
-0.2291,1.142,9.9817,-0.4658,1.3097,9.7076,0.1222,-0.1636,-0.4878,0.0678,0.0265,0.0332,17.63,-8.85,-42.3,258.17,-7.49,2.74,48.843872,2.353375,94.3,NaN,,15.06,,0 / 26,,2963,2022-01-10 18:49:17:398
-0.2291,1.142,9.9817,-0.4658,1.3097,9.7076,0.2569,-0.1938,0.2811,0.0678,0.0265,0.0332,17.63,-8.85,-42.3,258.17,-7.49,2.74,48.843872,2.353375,94.3,NaN,,15.06,,0 / 26,,2968,2022-01-10 18:49:17:403
-0.2291,1.142,9.9817,-0.4658,1.3097,9.7076,0.2569,-0.1938,0.2811,0.0678,0.0265,0.0332,17.7,-9.23,-41.77,258.17,-7.49,2.74,48.843872,2.353375,94.3,NaN,,15.06,,0 / 26,,2973,2022-01-10 18:49:17:408
-0.2291,1.142,9.9817,-0.4658,1.3097,9.7076,0.2569,-0.1938,0.2811,0.0678,0.0265,0.0332,17.7,-9.23,-41.77,258.17,-7.49,2.74,48.843872,2.353375,94.3,NaN,,15.06,,0 / 26,,2978,2022-01-10 18:49:17:413
-0.2291,1.142,9.9817,-0.4658,1.3097,9.7076,0.2569,-0.1938,0.2811,0.0678,0.0265,0.0332,17.7,-9.23,-41.77,258.17,-7.49,2.74,48.843872,2.353375,94.3,NaN,,15.06,,0 / 26,,2983,2022-01-10 18:49:17:418
-0.4496,1.2595,9.7636,-0.4573,1.342,9.7036,0.2569,-0.1938,0.2811,0.251,-0.0545,0.0204,17.7,-9.23,-41.77,258.17,-7.49,2.74,48.843872,2.353375,94.3,NaN,,15.06,,0 / 26,,2987,2022-01-10 18:49:17:422
-0.4496,1.2595,9.7636,-0.4573,1.342,9.7036,0.2569,-0.1938,0.2811,0.251,-0.0545,0.0204,17.7,-9.23,-41.77,258.17,-7.49,2.74,48.843872,2.353375,94.3,NaN,,15.06,,0 / 26,,2992,2022-01-10 18:49:17:427
-0.4496,1.2595,9.7636,-0.4573,1.342,9.7036,0.0149,-0.0395,-0.0682,0.251,-0.0545,0.0204,17.7,-9.23,-41.77,258.17,-7.49,2.74,48.843872,2.353375,94.3,NaN,,15.06,,0 / 26,,2997,2022-01-10 18:49:17:432
-0.4496,1.2595,9.7636,-0.4573,1.342,9.7036,0.0149,-0.0395,-0.0682,0.251,-0.0545,0.0204,17.7,-9.23,-41.25,258.74,-7.87,2.7,48.843872,2.353375,94.3,NaN,,15.06,,0 / 26,,3002,2022-01-10 18:49:17:437
-0.4496,1.2595,9.7636,-0.4573,1.342,9.7036,0.0149,-0.0395,-0.0682,0.251,-0.0545,0.0204,17.7,-9.23,-41.25,258.74,-7.87,2.7,48.843872,2.353375,94.3,NaN,,15.06,,0 / 26,,3008,2022-01-10 18:49:17:443
-0.3562,1.3528,9.3826,-0.4349,1.4182,9.6938,0.0149,-0.0395,-0.0682,0.251,-0.0545,0.0204,17.7,-9.23,-41.25,258.74,-7.87,2.7,48.843872,2.353375,94.3,NaN,,15.06,,0 / 26,,3014,2022-01-10 18:49:17:449
-0.3562,1.3528,9.3826,-0.4349,1.4182,9.6938,0.0149,-0.0395,-0.0682,0.2414,-0.0481,0.063,17.7,-9.23,-41.25,258.74,-7.87,2.7,48.843872,2.353375,94.3,NaN,,15.06,,0 / 26,,3017,2022-01-10 18:49:17:452
-0.3562,1.3528,9.3826,-0.4349,1.4182,9.6938,0.0149,-0.0395,-0.0682,0.2414,-0.0481,0.063,17.7,-9.23,-41.25,258.74,-7.87,2.7,48.843872,2.353375,94.3,NaN,,15.06,,0 / 26,,3023,2022-01-10 18:49:17:458
-0.3562,1.3528,9.3826,-0.4349,1.4182,9.6938,0.0898,-0.019,-0.28,0.2414,-0.0481,0.063,17.7,-9.23,-41.25,258.74,-7.87,2.7,48.843872,2.353375,94.3,NaN,,15.06,,0 / 26,,3027,2022-01-10 18:49:17:462
-0.3562,1.3528,9.3826,-0.4349,1.4182,9.6938,0.0898,-0.019,-0.28,0.2414,-0.0481,0.063,17.93,-9.3,-41.55,258.74,-7.87,2.7,48.843872,2.353375,94.3,NaN,,15.06,,0 / 26,,3033,2022-01-10 18:49:17:468
-0.3562,1.3528,9.3826,-0.4349,1.4182,9.6938,0.0898,-0.019,-0.28,0.2414,-0.0481,0.063,17.93,-9.3,-41.55,258.74,-7.87,2.7,48.843872,2.353375,94.3,NaN,,15.06,,0 / 26,,3038,2022-01-10 18:49:17:473
-0.3562,1.3528,9.3826,-0.4349,1.4182,9.6938,0.0898,-0.019,-0.28,0.2414,-0.0481,0.063,17.93,-9.3,-41.55,258.74,-7.87,2.7,48.843872,2.353375,94.3,NaN,,15.06,,0 / 26,,3042,2022-01-10 18:49:17:477
-0.3562,1.3528,9.3826,-0.4349,1.4182,9.6938,0.0898,-0.019,-0.28,0.2414,-0.0481,0.063,17.93,-9.3,-41.55,258.74,-7.87,2.7,48.843872,2.353375,94.3,NaN,,15.06,,0 / 26,,3047,2022-01-10 18:49:17:482
-0.3562,1.3528,9.3826,-0.4349,1.4182,9.6938,0.0898,-0.019,-0.28,0.2414,-0.0481,0.063,17.93,-9.3,-41.55,258.74,-7.87,2.7,48.843872,2.353375,94.3,NaN,,15.06,,0 / 26,,3052,2022-01-10 18:49:17:487
