ACCELEROMETER X (m/s²),ACCELEROMETER Y (m/s²),ACCELEROMETER Z (m/s²),GRAVITY X (m/s²),GRAVITY Y (m/s²),GRAVITY Z (m/s²),LINEAR ACCELERATION X (m/s²),LINEAR ACCELERATION Y (m/s²),LINEAR ACCELERATION Z (m/s²),GYROSCOPE X (rad/s),GYROSCOPE Y (rad/s),GYROSCOPE Z (rad/s),MAGNETIC FIELD X (μT),MAGNETIC FIELD Y (μT),MAGNETIC FIELD Z (μT),ORIENTATION Z (azimuth °),ORIENTATION X (pitch °),ORIENTATION Y (roll °),LOCATION Latitude : ,LOCATION Longitude : ,LOCATION Altitude ( m),LOCATION Altitude-google ( m),LOCATION Speed ( Kmh),LOCATION Accuracy ( m),LOCATION ORIENTATION (°),Satellites in range,GPS NMEA,Time since start in ms ,YYYY-MO-DD HH-MI-SS_SSS
-0.5285,1.2906,9.4834,-0.5077,1.2037,9.7192,-0.0716,-0.1489,-0.3173,0.0294,0.0819,-0.1875,20.1,-2.62,-47.62,279.69,-7.0,2.92,48.843918,2.353316,95.2,NaN,,11.48,,0 / 20,,21,2022-01-10 18:59:30:814
-0.5285,1.2906,9.4834,-0.5077,1.2037,9.7192,-0.0716,-0.1489,-0.3173,0.0294,0.0819,-0.1875,20.1,-2.62,-47.62,279.69,-7.0,2.92,48.843918,2.353316,95.2,NaN,,11.48,,0 / 20,,26,2022-01-10 18:59:30:819
-0.5285,1.2906,9.4834,-0.5077,1.2037,9.7192,0.0882,0.1397,-0.2553,0.0294,0.0819,-0.1875,20.1,-2.62,-47.62,279.69,-7.0,2.92,48.843918,2.353316,95.2,NaN,,11.48,,0 / 20,,31,2022-01-10 18:59:30:824
-0.5285,1.2906,9.4834,-0.5077,1.2037,9.7192,0.0882,0.1397,-0.2553,0.0294,0.0819,-0.1875,20.1,-2.62,-47.62,279.69,-7.0,2.92,48.843918,2.353316,95.2,NaN,,11.48,,0 / 20,,36,2022-01-10 18:59:30:829
-0.5285,1.2906,9.4834,-0.5077,1.2037,9.7192,0.0882,0.1397,-0.2553,-0.0292,0.3205,-0.1363,19.88,-3.22,-48.3,279.69,-7.0,2.92,48.843918,2.353316,95.2,NaN,,11.48,,0 / 20,,40,2022-01-10 18:59:30:833
-0.6413,1.3744,9.3395,-0.5968,1.2085,9.7136,0.0882,0.1397,-0.2553,-0.0292,0.3205,-0.1363,19.88,-3.22,-48.3,279.69,-7.0,2.92,48.843918,2.353316,95.2,NaN,,11.48,,0 / 20,,46,2022-01-10 18:59:30:839
-0.6413,1.3744,9.3395,-0.5968,1.2085,9.7136,0.0882,0.1397,-0.2553,-0.0292,0.3205,-0.1363,19.88,-3.22,-48.3,279.69,-7.0,2.92,48.843918,2.353316,95.2,NaN,,11.48,,0 / 20,,51,2022-01-10 18:59:30:844
-0.6413,1.3744,9.3395,-0.5968,1.2085,9.7136,0.0882,0.1397,-0.2553,-0.0292,0.3205,-0.1363,19.88,-3.22,-48.3,279.69,-7.0,2.92,48.843918,2.353316,95.2,NaN,,11.48,,0 / 20,,55,2022-01-10 18:59:30:848
-0.6413,1.3744,9.3395,-0.5968,1.2085,9.7136,-0.1344,0.0956,-0.2732,-0.0292,0.3205,-0.1363,19.88,-3.22,-48.3,279.69,-7.0,2.92,48.843918,2.353316,95.2,NaN,,11.48,,0 / 20,,61,2022-01-10 18:59:30:854
-0.6413,1.3744,9.3395,-0.5968,1.2085,9.7136,-0.1344,0.0956,-0.2732,-0.0292,0.3205,-0.1363,19.88,-3.22,-48.3,279.69,-7.0,2.92,48.843918,2.353316,95.2,NaN,,11.48,,0 / 20,,65,2022-01-10 18:59:30:858
-0.8327,1.2165,9.3347,-0.5968,1.2085,9.7136,-0.1344,0.0956,-0.2732,-0.1581,0.2427,-0.035,20.4,-3.22,-48.3,280.25,-7.08,3.52,48.843918,2.353316,95.2,NaN,,11.48,,0 / 20,,71,2022-01-10 18:59:30:864
-0.8327,1.2165,9.3347,-0.6842,1.1778,9.7116,-0.1344,0.0956,-0.2732,-0.1581,0.2427,-0.035,20.4,-3.22,-48.3,280.25,-7.08,3.52,48.843918,2.353316,95.2,NaN,,11.48,,0 / 20,,76,2022-01-10 18:59:30:869
-0.8327,1.2165,9.3347,-0.6842,1.1778,9.7116,-0.1344,0.0956,-0.2732,-0.1581,0.2427,-0.035,20.4,-3.22,-48.3,280.25,-7.08,3.52,48.843918,2.353316,95.2,NaN,,11.48,,0 / 20,,80,2022-01-10 18:59:30:873
-0.8327,1.2165,9.3347,-0.6842,1.1778,9.7116,-0.1344,0.0956,-0.2732,-0.1581,0.2427,-0.035,20.4,-3.22,-48.3,280.25,-7.08,3.52,48.843918,2.353316,95.2,NaN,,11.48,,0 / 20,,86,2022-01-10 18:59:30:879
-0.8327,1.2165,9.3347,-0.6842,1.1778,9.7116,-0.175,0.0046,-0.2334,-0.1581,0.2427,-0.035,20.4,-3.22,-48.3,280.25,-7.08,3.52,48.843918,2.353316,95.2,NaN,,11.48,,0 / 20,,91,2022-01-10 18:59:30:884
-0.8327,1.2165,9.3347,-0.6842,1.1778,9.7116,-0.175,0.0046,-0.2334,-0.1581,0.2427,-0.035,20.4,-3.22,-48.3,280.25,-7.08,3.52,48.843918,2.353316,95.2,NaN,,11.48,,0 / 20,,96,2022-01-10 18:59:30:889
-0.979,1.1252,9.5121,-0.6842,1.1778,9.7116,-0.175,0.0046,-0.2334,-0.1453,0.2342,-0.0126,20.1,-2.77,-47.4,280.25,-7.08,3.52,48.843918,2.353316,95.2,NaN,,11.48,,0 / 20,,101,2022-01-10 18:59:30:894
-0.979,1.1252,9.5121,-0.7644,1.1322,9.711,-0.175,0.0046,-0.2334,-0.1453,0.2342,-0.0126,20.1,-2.77,-47.4,280.25,-7.08,3.52,48.843918,2.353316,95.2,NaN,,11.48,,0 / 20,,106,2022-01-10 18:59:30:899
-0.979,1.1252,9.5121,-0.7644,1.1322,9.711,-0.175,0.0046,-0.2334,-0.1453,0.2342,-0.0126,20.1,-2.77,-47.4,280.25,-7.08,3.52,48.843918,2.353316,95.2,NaN,,11.48,,0 / 20,,111,2022-01-10 18:59:30:904
-0.979,1.1252,9.5121,-0.7644,1.1322,9.711,-0.175,0.0046,-0.2334,-0.1453,0.2342,-0.0126,20.1,-2.77,-47.4,280.25,-7.08,3.52,48.843918,2.353316,95.2,NaN,,11.48,,0 / 20,,117,2022-01-10 18:59:30:910
-0.979,1.1252,9.5121,-0.7644,1.1322,9.711,-0.2197,0.0315,-0.1486,-0.1453,0.2342,-0.0126,20.1,-2.77,-47.4,280.25,-7.08,3.52,48.843918,2.353316,95.2,NaN,,11.48,,0 / 20,,120,2022-01-10 18:59:30:913
-0.979,1.1252,9.5121,-0.7644,1.1322,9.711,-0.2197,0.0315,-0.1486,-0.1453,0.2342,-0.0126,20.1,-2.77,-47.4,280.25,-7.08,3.52,48.843918,2.353316,95.2,NaN,,11.48,,0 / 20,,125,2022-01-10 18:59:30:918
-0.979,1.1252,9.5121,-0.7644,1.1322,9.711,-0.2197,0.0315,-0.1486,-0.1453,0.2342,-0.0126,20.1,-2.77,-47.4,280.25,-7.08,3.52,48.843918,2.353316,95.2,NaN,,11.48,,0 / 20,,131,2022-01-10 18:59:30:924
-0.8928,1.0295,9.766,-0.7435,1.0516,9.7217,-0.2197,0.0315,-0.1486,-0.3999,-0.3687,-0.1268,20.55,-2.4,-47.7,282.25,-6.63,4.5,48.843918,2.353316,95.2,NaN,,11.48,,0 / 20,,136,2022-01-10 18:59:30:929
-0.8928,1.0295,9.766,-0.7435,1.0516,9.7217,-0.2197,0.0315,-0.1486,-0.3999,-0.3687,-0.1268,20.55,-2.4,-47.7,282.25,-6.63,4.5,48.843918,2.353316,95.2,NaN,,11.48,,0 / 20,,141,2022-01-10 18:59:30:934
-0.8928,1.0295,9.766,-0.7435,1.0516,9.7217,-0.2197,0.0315,-0.1486,-0.3999,-0.3687,-0.1268,20.55,-2.4,-47.7,282.25,-6.63,4.5,48.843918,2.353316,95.2,NaN,,11.48,,0 / 20,,146,2022-01-10 18:59:30:939
-0.8928,1.0295,9.766,-0.7435,1.0516,9.7217,0.1021,0.0062,0.255,-0.3999,-0.3687,-0.1268,20.55,-2.4,-47.7,282.25,-6.63,4.5,48.843918,2.353316,95.2,NaN,,11.48,,0 / 20,,151,2022-01-10 18:59:30:944
-0.8928,1.0295,9.766,-0.7435,1.0516,9.7217,0.1021,0.0062,0.255,-0.3999,-0.3687,-0.1268,20.55,-2.4,-47.7,282.25,-6.63,4.5,48.843918,2.353316,95.2,NaN,,11.48,,0 / 20,,156,2022-01-10 18:59:30:949
-0.0517,0.9745,9.888,-0.7435,1.0516,9.7217,0.1021,0.0062,0.255,-0.3999,-0.3687,-0.1268,20.55,-2.4,-47.7,282.25,-6.63,4.5,48.843918,2.353316,95.2,NaN,,11.48,,0 / 20,,161,2022-01-10 18:59:30:954
-0.0517,0.9745,9.888,-0.6209,0.9193,9.7437,0.1021,0.0062,0.255,-0.3146,-0.2281,-0.1406,20.55,-2.4,-47.7,282.25,-6.63,4.5,48.843918,2.353316,95.2,NaN,,11.48,,0 / 20,,167,2022-01-10 18:59:30:960
-0.0517,0.9745,9.888,-0.6209,0.9193,9.7437,0.1021,0.0062,0.255,-0.3146,-0.2281,-0.1406,21.3,-1.5,-48.3,282.25,-6.63,4.5,48.843918,2.353316,95.2,NaN,,11.48,,0 / 20,,170,2022-01-10 18:59:30:963
-0.0517,0.9745,9.888,-0.6209,0.9193,9.7437,0.1021,0.0062,0.255,-0.3146,-0.2281,-0.1406,21.3,-1.5,-48.3,282.25,-6.63,4.5,48.843918,2.353316,95.2,NaN,,11.48,,0 / 20,,176,2022-01-10 18:59:30:969
-0.0517,0.9745,9.888,-0.6209,0.9193,9.7437,0.1021,0.0062,0.255,-0.3146,-0.2281,-0.1406,21.3,-1.5,-48.3,282.25,-6.63,4.5,48.843918,2.353316,95.2,NaN,,11.48,,0 / 20,,181,2022-01-10 18:59:30:974
-0.4184,0.8258,9.687,-0.6209,0.9193,9.7437,0.315,-3.0E-4,0.0931,-0.3146,-0.2281,-0.1406,21.3,-1.5,-48.3,282.25,-6.63,4.5,48.843918,2.353316,95.2,NaN,,11.48,,0 / 20,,186,2022-01-10 18:59:30:979
-0.4184,0.8258,9.687,-0.6209,0.9193,9.7437,0.315,-3.0E-4,0.0931,-0.3146,-0.2281,-0.1406,21.3,-1.5,-48.3,282.25,-6.63,4.5,48.843918,2.353316,95.2,NaN,,11.48,,0 / 20,,191,2022-01-10 18:59:30:984
-0.4184,0.8258,9.687,-0.6209,0.9193,9.7437,0.315,-3.0E-4,0.0931,0.0411,0.2353,0.031,21.3,-1.5,-48.3,282.25,-6.63,4.5,48.843918,2.353316,95.2,NaN,,11.48,,0 / 20,,196,2022-01-10 18:59:30:989
-0.4184,0.8258,9.687,-0.6188,0.8905,9.7465,0.315,-3.0E-4,0.0931,0.0411,0.2353,0.031,20.85,-1.65,-48.9,278.19,-5.21,3.63,48.843918,2.353316,95.2,NaN,,11.48,,0 / 20,,201,2022-01-10 18:59:30:994
-0.4184,0.8258,9.687,-0.6188,0.8905,9.7465,0.315,-3.0E-4,0.0931,0.0411,0.2353,0.031,20.85,-1.65,-48.9,278.19,-5.21,3.63,48.843918,2.353316,95.2,NaN,,11.48,,0 / 20,,207,2022-01-10 18:59:31:000
-0.4184,0.8258,9.687,-0.6188,0.8905,9.7465,0.315,-3.0E-4,0.0931,0.0411,0.2353,0.031,20.85,-1.65,-48.9,278.19,-5.21,3.63,48.843918,2.353316,95.2,NaN,,11.48,,0 / 20,,210,2022-01-10 18:59:31:003
-0.4926,0.8067,9.4427,-0.6188,0.8905,9.7465,0.1403,-0.069,-0.2041,0.0411,0.2353,0.031,20.85,-1.65,-48.9,278.19,-5.21,3.63,48.843918,2.353316,95.2,NaN,,11.48,,0 / 20,,216,2022-01-10 18:59:31:009
-0.4926,0.8067,9.4427,-0.6188,0.8905,9.7465,0.1403,-0.069,-0.2041,0.0411,0.2353,0.031,20.85,-1.65,-48.9,278.19,-5.21,3.63,48.843918,2.353316,95.2,NaN,,11.48,,0 / 20,,220,2022-01-10 18:59:31:013
-0.4926,0.8067,9.4427,-0.6188,0.8905,9.7465,0.1403,-0.069,-0.2041,0.0092,0.3098,-0.0137,20.85,-1.65,-48.9,278.19,-5.21,3.63,48.843918,2.353316,95.2,NaN,,11.48,,0 / 20,,226,2022-01-10 18:59:31:019
-0.4926,0.8067,9.4427,-0.6986,0.9016,9.7401,0.1403,-0.069,-0.2041,0.0092,0.3098,-0.0137,20.85,-1.65,-48.9,278.19,-5.21,3.63,48.843918,2.353316,95.2,NaN,,11.48,,0 / 20,,231,2022-01-10 18:59:31:024
-0.4926,0.8067,9.4427,-0.6986,0.9016,9.7401,0.1403,-0.069,-0.2041,0.0092,0.3098,-0.0137,20.63,-1.65,-48.82,278.19,-5.21,3.63,48.843918,2.353316,95.2,NaN,,11.48,,0 / 20,,236,2022-01-10 18:59:31:029
-0.3778,0.8067,9.2797,-0.6986,0.9016,9.7401,0.1403,-0.069,-0.2041,0.0092,0.3098,-0.0137,20.63,-1.65,-48.82,278.19,-5.21,3.63,48.843918,2.353316,95.2,NaN,,11.48,,0 / 20,,241,2022-01-10 18:59:31:034
-0.3778,0.8067,9.2797,-0.6986,0.9016,9.7401,0.3851,-0.0865,-0.2919,0.0092,0.3098,-0.0137,20.63,-1.65,-48.82,278.19,-5.21,3.63,48.843918,2.353316,95.2,NaN,,11.48,,0 / 20,,246,2022-01-10 18:59:31:039
-0.3778,0.8067,9.2797,-0.6986,0.9016,9.7401,0.3851,-0.0865,-0.2919,0.0092,0.3098,-0.0137,20.63,-1.65,-48.82,278.19,-5.21,3.63,48.843918,2.353316,95.2,NaN,,11.48,,0 / 20,,251,2022-01-10 18:59:31:044
-0.3778,0.8067,9.2797,-0.6986,0.9016,9.7401,0.3851,-0.0865,-0.2919,-0.1421,-0.0651,-0.0756,20.63,-1.65,-48.82,278.19,-5.21,3.63,48.843918,2.353316,95.2,NaN,,11.48,,0 / 20,,256,2022-01-10 18:59:31:049
-0.3778,0.8067,9.2797,-0.7407,0.8811,9.7389,0.3851,-0.0865,-0.2919,-0.1421,-0.0651,-0.0756,20.63,-1.65,-48.82,278.19,-5.21,3.63,48.843918,2.353316,95.2,NaN,,11.48,,0 / 20,,261,2022-01-10 18:59:31:054
-0.3778,0.8067,9.2797,-0.7407,0.8811,9.7389,0.3851,-0.0865,-0.2919,-0.1421,-0.0651,-0.0756,20.63,-1.65,-48.82,278.19,-5.21,3.63,48.843918,2.353316,95.2,NaN,,11.48,,0 / 20,,266,2022-01-10 18:59:31:059
-1.6783,0.984,9.9482,-0.7407,0.8811,9.7389,0.3851,-0.0865,-0.2919,-0.1421,-0.0651,-0.0756,21.15,-1.8,-48.22,278.07,-5.15,4.35,48.843918,2.353316,95.2,NaN,,11.48,,0 / 20,,271,2022-01-10 18:59:31:064
-1.6783,0.984,9.9482,-0.7407,0.8811,9.7389,-0.9592,0.0826,0.2659,-0.1421,-0.0651,-0.0756,21.15,-1.8,-48.22,278.07,-5.15,4.35,48.843918,2.353316,95.2,NaN,,11.48,,0 / 20,,276,2022-01-10 18:59:31:069
-1.6783,0.984,9.9482,-0.7407,0.8811,9.7389,-0.9592,0.0826,0.2659,-0.1421,-0.0651,-0.0756,21.15,-1.8,-48.22,278.07,-5.15,4.35,48.843918,2.353316,95.2,NaN,,11.48,,0 / 20,,280,2022-01-10 18:59:31:073
-1.6783,0.984,9.9482,-0.7407,0.8811,9.7389,-0.9592,0.0826,0.2659,-0.1421,-0.0651,-0.0756,21.15,-1.8,-48.22,278.07,-5.15,4.35,48.843918,2.353316,95.2,NaN,,11.48,,0 / 20,,286,2022-01-10 18:59:31:079
-1.6783,0.984,9.9482,-0.636,0.8241,9.7512,-0.9592,0.0826,0.2659,-0.2571,-0.6371,0.0342,21.15,-1.8,-48.22,278.07,-5.15,4.35,48.843918,2.353316,95.2,NaN,,11.48,,0 / 20,,291,2022-01-10 18:59:31:084
-0.9072,1.456,10.0774,-0.636,0.8241,9.7512,-0.9592,0.0826,0.2659,-0.2571,-0.6371,0.0342,21.15,-1.8,-48.22,278.07,-5.15,4.35,48.843918,2.353316,95.2,NaN,,11.48,,0 / 20,,296,2022-01-10 18:59:31:089
-0.9072,1.456,10.0774,-0.636,0.8241,9.7512,-0.9592,0.0826,0.2659,-0.2571,-0.6371,0.0342,21.15,-1.8,-48.22,278.07,-5.15,4.35,48.843918,2.353316,95.2,NaN,,11.48,,0 / 20,,301,2022-01-10 18:59:31:094
-0.9072,1.456,10.0774,-0.636,0.8241,9.7512,-0.3829,0.6655,0.4426,-0.2571,-0.6371,0.0342,21.23,-1.2,-47.77,278.07,-5.15,4.35,48.843918,2.353316,95.2,NaN,,11.48,,0 / 20,,306,2022-01-10 18:59:31:099
-0.9072,1.456,10.0774,-0.636,0.8241,9.7512,-0.3829,0.6655,0.4426,-0.2571,-0.6371,0.0342,21.23,-1.2,-47.77,278.07,-5.15,4.35,48.843918,2.353316,95.2,NaN,,11.48,,0 / 20,,311,2022-01-10 18:59:31:104
-0.9072,1.456,10.0774,-0.636,0.8241,9.7512,-0.3829,0.6655,0.4426,-0.2571,-0.6371,0.0342,21.23,-1.2,-47.77,278.07,-5.15,4.35,48.843918,2.353316,95.2,NaN,,11.48,,0 / 20,,316,2022-01-10 18:59:31:109
-0.9072,1.456,10.0774,-0.5499,0.8015,9.7584,-0.3829,0.6655,0.4426,-0.0995,-0.0971,0.1312,21.23,-1.2,-47.77,278.07,-5.15,4.35,48.843918,2.353316,95.2,NaN,,11.48,,0 / 20,,321,2022-01-10 18:59:31:114
-0.1645,1.0678,9.9912,-0.5499,0.8015,9.7584,-0.3829,0.6655,0.4426,-0.0995,-0.0971,0.1312,21.23,-1.2,-47.77,278.07,-5.15,4.35,48.843918,2.353316,95.2,NaN,,11.48,,0 / 20,,326,2022-01-10 18:59:31:119
-0.1645,1.0678,9.9912,-0.5499,0.8015,9.7584,-0.3829,0.6655,0.4426,-0.0995,-0.0971,0.1312,21.23,-1.2,-47.77,278.07,-5.15,4.35,48.843918,2.353316,95.2,NaN,,11.48,,0 / 20,,330,2022-01-10 18:59:31:123
-0.1645,1.0678,9.9912,-0.5499,0.8015,9.7584,0.4111,0.228,0.2728,-0.0995,-0.0971,0.1312,21.23,-1.2,-47.77,278.07,-5.15,4.35,48.843918,2.353316,95.2,NaN,,11.48,,0 / 20,,336,2022-01-10 18:59:31:129
-0.1645,1.0678,9.9912,-0.5499,0.8015,9.7584,0.4111,0.228,0.2728,-0.0995,-0.0971,0.1312,20.4,-1.12,-47.85,279.89,-4.69,3.23,48.843918,2.353316,95.2,NaN,,11.48,,0 / 20,,341,2022-01-10 18:59:31:134
-0.1645,1.0678,9.9912,-0.5499,0.8015,9.7584,0.4111,0.228,0.2728,-0.0995,-0.0971,0.1312,20.4,-1.12,-47.85,279.89,-4.69,3.23,48.843918,2.353316,95.2,NaN,,11.48,,0 / 20,,346,2022-01-10 18:59:31:139
-0.1478,0.644,9.6556,-0.5278,0.789,9.7606,0.4111,0.228,0.2728,-0.059,0.0691,-0.098,20.4,-1.12,-47.85,279.89,-4.69,3.23,48.843918,2.353316,95.2,NaN,,11.48,,0 / 20,,351,2022-01-10 18:59:31:144
-0.1478,0.644,9.6556,-0.5278,0.789,9.7606,0.4111,0.228,0.2728,-0.059,0.0691,-0.098,20.4,-1.12,-47.85,279.89,-4.69,3.23,48.843918,2.353316,95.2,NaN,,11.48,,0 / 20,,355,2022-01-10 18:59:31:148
-0.1478,0.644,9.6556,-0.5278,0.789,9.7606,0.4111,0.228,0.2728,-0.059,0.0691,-0.098,20.4,-1.12,-47.85,279.89,-4.69,3.23,48.843918,2.353316,95.2,NaN,,11.48,,0 / 20,,360,2022-01-10 18:59:31:153
-0.1478,0.644,9.6556,-0.5278,0.789,9.7606,0.4111,0.228,0.2728,-0.059,0.0691,-0.098,20.4,-1.12,-47.85,279.89,-4.69,3.23,48.843918,2.353316,95.2,NaN,,11.48,,0 / 20,,366,2022-01-10 18:59:31:159
-0.1478,0.644,9.6556,-0.5278,0.789,9.7606,0.2014,-0.2128,-0.109,-0.059,0.0691,-0.098,20.48,-0.9,-48.0,279.89,-4.69,3.23,48.843918,2.353316,95.2,NaN,,11.48,,0 / 20,,370,2022-01-10 18:59:31:163
-0.7035,0.3996,9.6341,-0.5278,0.789,9.7606,0.2014,-0.2128,-0.109,-0.059,0.0691,-0.098,20.48,-0.9,-48.0,279.89,-4.69,3.23,48.843918,2.353316,95.2,NaN,,11.48,,0 / 20,,376,2022-01-10 18:59:31:169
-0.7035,0.3996,9.6341,-0.6287,0.7797,9.7554,0.2014,-0.2128,-0.109,0.1583,0.5208,-0.0233,20.48,-0.9,-48.0,279.89,-4.69,3.23,48.843918,2.353316,95.2,NaN,,11.48,,0 / 20,,381,2022-01-10 18:59:31:174
-0.7035,0.3996,9.6341,-0.6287,0.7797,9.7554,0.2014,-0.2128,-0.109,0.1583,0.5208,-0.0233,20.48,-0.9,-48.0,279.89,-4.69,3.23,48.843918,2.353316,95.2,NaN,,11.48,,0 / 20,,386,2022-01-10 18:59:31:179
-0.7035,0.3996,9.6341,-0.6287,0.7797,9.7554,0.2014,-0.2128,-0.109,0.1583,0.5208,-0.0233,20.48,-0.9,-48.0,279.89,-4.69,3.23,48.843918,2.353316,95.2,NaN,,11.48,,0 / 20,,390,2022-01-10 18:59:31:183
-0.7035,0.3996,9.6341,-0.6287,0.7797,9.7554,-0.0611,-0.2664,0.0966,0.1583,0.5208,-0.0233,20.48,-0.9,-48.0,279.89,-4.69,3.23,48.843918,2.353316,95.2,NaN,,11.48,,0 / 20,,396,2022-01-10 18:59:31:189
-0.8136,0.5599,10.0606,-0.6287,0.7797,9.7554,-0.0611,-0.2664,0.0966,0.1583,0.5208,-0.0233,20.4,-0.37,-47.62,283.05,-4.56,3.69,48.843918,2.353316,95.2,NaN,,11.48,,0 / 20,,401,2022-01-10 18:59:31:194
-0.8136,0.5599,10.0606,-0.6287,0.7797,9.7554,-0.0611,-0.2664,0.0966,0.1583,0.5208,-0.0233,20.4,-0.37,-47.62,283.05,-4.56,3.69,48.843918,2.353316,95.2,NaN,,11.48,,0 / 20,,406,2022-01-10 18:59:31:199
-0.8136,0.5599,10.0606,-0.7733,0.8571,9.7385,-0.0611,-0.2664,0.0966,0.5663,0.5048,0.3208,20.4,-0.37,-47.62,283.05,-4.56,3.69,48.843918,2.353316,95.2,NaN,,11.48,,0 / 20,,411,2022-01-10 18:59:31:204
-0.8136,0.5599,10.0606,-0.7733,0.8571,9.7385,-0.0611,-0.2664,0.0966,0.5663,0.5048,0.3208,20.4,-0.37,-47.62,283.05,-4.56,3.69,48.843918,2.353316,95.2,NaN,,11.48,,0 / 20,,416,2022-01-10 18:59:31:209
-0.8136,0.5599,10.0606,-0.7733,0.8571,9.7385,-0.0611,-0.2664,0.0966,0.5663,0.5048,0.3208,20.4,-0.37,-47.62,283.05,-4.56,3.69,48.843918,2.353316,95.2,NaN,,11.48,,0 / 20,,421,2022-01-10 18:59:31:214
-0.8136,0.5599,10.0606,-0.7733,0.8571,9.7385,0.0223,-0.0904,0.5758,0.5663,0.5048,0.3208,20.4,-0.37,-47.62,283.05,-4.56,3.69,48.843918,2.353316,95.2,NaN,,11.48,,0 / 20,,426,2022-01-10 18:59:31:219
-0.8136,0.5599,10.0606,-0.7733,0.8571,9.7385,0.0223,-0.0904,0.5758,0.5663,0.5048,0.3208,20.4,-0.37,-47.62,283.05,-4.56,3.69,48.843918,2.353316,95.2,NaN,,11.48,,0 / 20,,431,2022-01-10 18:59:31:224
-0.4161,0.7732,10.13,-0.7733,0.8571,9.7385,0.0223,-0.0904,0.5758,0.5663,0.5048,0.3208,20.78,-0.3,-47.47,283.05,-4.56,3.69,48.843918,2.353316,95.2,NaN,,11.48,,0 / 20,,436,2022-01-10 18:59:31:229
-0.4161,0.7732,10.13,-0.7733,0.8571,9.7385,0.0223,-0.0904,0.5758,0.8061,0.034,0.1589,20.78,-0.3,-47.47,283.05,-4.56,3.69,48.843918,2.353316,95.2,NaN,,11.48,,0 / 20,,441,2022-01-10 18:59:31:234
-0.4161,0.7732,10.13,-0.8304,1.0732,9.7123,0.0223,-0.0904,0.5758,0.8061,0.034,0.1589,20.78,-0.3,-47.47,283.05,-4.56,3.69,48.843918,2.353316,95.2,NaN,,11.48,,0 / 20,,446,2022-01-10 18:59:31:239
-0.4161,0.7732,10.13,-0.8304,1.0732,9.7123,0.0223,-0.0904,0.5758,0.8061,0.034,0.1589,20.78,-0.3,-47.47,283.05,-4.56,3.69,48.843918,2.353316,95.2,NaN,,11.48,,0 / 20,,453,2022-01-10 18:59:31:246
-0.4161,0.7732,10.13,-0.8304,1.0732,9.7123,0.0223,-0.0904,0.5758,0.8061,0.034,0.1589,20.78,-0.3,-47.47,283.05,-4.56,3.69,48.843918,2.353316,95.2,NaN,,11.48,,0 / 20,,456,2022-01-10 18:59:31:249
-0.9885,1.3385,9.3634,-0.8304,1.0732,9.7123,0.3853,-0.2321,0.069,0.8061,0.034,0.1589,20.78,-0.3,-47.47,283.05,-4.56,3.69,48.843918,2.353316,95.2,NaN,,11.48,,0 / 20,,461,2022-01-10 18:59:31:254
-0.9885,1.3385,9.3634,-0.8304,1.0732,9.7123,0.3853,-0.2321,0.069,0.8061,0.034,0.1589,20.78,-0.3,-47.47,283.05,-4.56,3.69,48.843918,2.353316,95.2,NaN,,11.48,,0 / 20,,466,2022-01-10 18:59:31:259
-0.9885,1.3385,9.3634,-0.8331,1.2299,9.6935,0.3853,-0.2321,0.069,0.8061,0.034,0.1589,21.08,-1.42,-47.18,286.81,-7.2,4.91,48.843918,2.353316,95.2,NaN,,11.48,,0 / 20,,471,2022-01-10 18:59:31:264
-0.9885,1.3385,9.3634,-0.8331,1.2299,9.6935,0.3853,-0.2321,0.069,0.3437,0.0819,0.2249,21.08,-1.42,-47.18,286.81,-7.2,4.91,48.843918,2.353316,95.2,NaN,,11.48,,0 / 20,,477,2022-01-10 18:59:31:270
-0.9885,1.3385,9.3634,-0.8331,1.2299,9.6935,0.3853,-0.2321,0.069,0.3437,0.0819,0.2249,21.08,-1.42,-47.18,286.81,-7.2,4.91,48.843918,2.353316,95.2,NaN,,11.48,,0 / 20,,481,2022-01-10 18:59:31:274
-1.2975,1.0869,8.1227,-0.8331,1.2299,9.6935,-0.5669,0.0065,-1.3839,0.3437,0.0819,0.2249,21.08,-1.42,-47.18,286.81,-7.2,4.91,48.843918,2.353316,95.2,NaN,,11.48,,0 / 20,,486,2022-01-10 18:59:31:279
-1.2975,1.0869,8.1227,-0.8331,1.2299,9.6935,-0.5669,0.0065,-1.3839,0.3437,0.0819,0.2249,21.08,-1.42,-47.18,286.81,-7.2,4.91,48.843918,2.353316,95.2,NaN,,11.48,,0 / 20,,491,2022-01-10 18:59:31:284
-1.2975,1.0869,8.1227,-0.8331,1.2299,9.6935,-0.5669,0.0065,-1.3839,0.3437,0.0819,0.2249,21.08,-1.42,-47.18,286.81,-7.2,4.91,48.843918,2.353316,95.2,NaN,,11.48,,0 / 20,,496,2022-01-10 18:59:31:289
-1.2975,1.0869,8.1227,-0.8695,1.2801,9.6838,-0.5669,0.0065,-1.3839,-0.3178,0.1426,0.4305,21.3,-2.48,-47.02,286.81,-7.2,4.91,48.843918,2.353316,95.2,NaN,,11.48,,0 / 20,,501,2022-01-10 18:59:31:294
-1.2975,1.0869,8.1227,-0.8695,1.2801,9.6838,-0.5669,0.0065,-1.3839,-0.3178,0.1426,0.4305,21.3,-2.48,-47.02,286.81,-7.2,4.91,48.843918,2.353316,95.2,NaN,,11.48,,0 / 20,,506,2022-01-10 18:59:31:299
-1.2975,1.0869,8.1227,-0.8695,1.2801,9.6838,-0.5669,0.0065,-1.3839,-0.3178,0.1426,0.4305,21.3,-2.48,-47.02,286.81,-7.2,4.91,48.843918,2.353316,95.2,NaN,,11.48,,0 / 20,,510,2022-01-10 18:59:31:303
-0.9024,0.5384,8.4054,-0.8695,1.2801,9.6838,-0.5669,0.0065,-1.3839,-0.3178,0.1426,0.4305,21.3,-2.48,-47.02,286.81,-7.2,4.91,48.843918,2.353316,95.2,NaN,,11.48,,0 / 20,,516,2022-01-10 18:59:31:309
-0.507,1.2356,11.5481,-0.8922,0.8045,9.7328,0.3783,0.5955,0.4283,-0.7759,0.4792,0.1482,22.58,-1.12,-48.68,277.19,-6.08,5.48,48.843918,2.353316,95.2,NaN,,11.48,,0 / 20,,571,2022-01-10 18:59:31:364
-0.507,1.2356,11.5481,-0.8922,0.8045,9.7328,0.3783,0.5955,0.4283,-0.7759,0.4792,0.1482,22.58,-1.12,-48.68,277.19,-6.08,5.48,48.843918,2.353316,95.2,NaN,,11.48,,0 / 20,,572,2022-01-10 18:59:31:365
-0.507,1.2356,11.5481,-0.8922,0.8045,9.7328,0.3783,0.5955,0.4283,-0.7759,0.4792,0.1482,22.58,-1.12,-48.68,277.19,-6.08,5.48,48.843918,2.353316,95.2,NaN,,11.48,,0 / 20,,572,2022-01-10 18:59:31:365
-0.507,1.2356,11.5481,-0.8922,0.8045,9.7328,0.3783,0.5955,0.4283,-0.7759,0.4792,0.1482,22.58,-1.12,-48.68,277.19,-6.08,5.48,48.843918,2.353316,95.2,NaN,,11.48,,0 / 20,,572,2022-01-10 18:59:31:365
-0.507,1.2356,11.5481,-0.8922,0.8045,9.7328,0.3783,0.5955,0.4283,-0.7759,0.4792,0.1482,22.58,-1.12,-48.68,277.19,-6.08,5.48,48.843918,2.353316,95.2,NaN,,11.48,,0 / 20,,573,2022-01-10 18:59:31:366
-0.507,1.2356,11.5481,-0.8922,0.8045,9.7328,0.3783,0.5955,0.4283,-0.7759,0.4792,0.1482,22.58,-1.12,-48.68,277.19,-6.08,5.48,48.843918,2.353316,95.2,NaN,,11.48,,0 / 20,,573,2022-01-10 18:59:31:366
-0.507,1.2356,11.5481,-0.8922,0.8045,9.7328,0.3783,0.5955,0.4283,-0.7759,0.4792,0.1482,22.58,-1.12,-48.68,277.19,-6.08,5.48,48.843918,2.353316,95.2,NaN,,11.48,,0 / 20,,573,2022-01-10 18:59:31:366
-0.507,1.2356,11.5481,-0.8922,0.8045,9.7328,0.3783,0.5955,0.4283,-0.7759,0.4792,0.1482,22.58,-1.12,-48.68,277.19,-6.08,5.48,48.843918,2.353316,95.2,NaN,,11.48,,0 / 20,,573,2022-01-10 18:59:31:366
-0.507,1.2356,11.5481,-0.8922,0.8045,9.7328,0.3783,0.5955,0.4283,-0.7759,0.4792,0.1482,22.58,-1.12,-48.68,277.19,-6.08,5.48,48.843918,2.353316,95.2,NaN,,11.48,,0 / 20,,573,2022-01-10 18:59:31:366
-0.507,1.2356,11.5481,-0.8922,0.8045,9.7328,0.3783,0.5955,0.4283,-0.7759,0.4792,0.1482,22.58,-1.12,-48.68,277.19,-6.08,5.48,48.843918,2.353316,95.2,NaN,,11.48,,0 / 20,,574,2022-01-10 18:59:31:367
-0.507,1.2356,11.5481,-0.8922,0.8045,9.7328,0.3783,0.5955,0.4283,-0.7759,0.4792,0.1482,22.58,-1.12,-48.68,277.19,-6.08,5.48,48.843918,2.353316,95.2,NaN,,11.48,,0 / 20,,574,2022-01-10 18:59:31:367
-0.507,1.2356,11.5481,-0.8922,0.8045,9.7328,0.3783,0.5955,0.4283,-0.7759,0.4792,0.1482,22.58,-1.12,-48.68,277.19,-6.08,5.48,48.843918,2.353316,95.2,NaN,,11.48,,0 / 20,,575,2022-01-10 18:59:31:368
-0.507,1.2356,11.5481,-0.8922,0.8045,9.7328,0.3874,0.2392,1.7846,-0.7759,0.4792,0.1482,22.58,-1.12,-48.68,277.19,-6.08,5.48,48.843918,2.353316,95.2,NaN,,11.48,,0 / 20,,581,2022-01-10 18:59:31:374
-0.507,1.2356,11.5481,-0.8922,0.8045,9.7328,0.3874,0.2392,1.7846,-0.7759,0.4792,0.1482,22.58,-1.12,-48.68,277.19,-6.08,5.48,48.843918,2.353316,95.2,NaN,,11.48,,0 / 20,,585,2022-01-10 18:59:31:378
-0.507,1.2356,11.5481,-0.8922,0.8045,9.7328,0.3874,0.2392,1.7846,-0.7759,0.4792,0.1482,22.58,-1.12,-48.68,277.19,-6.08,5.48,48.843918,2.353316,95.2,NaN,,11.48,,0 / 20,,590,2022-01-10 18:59:31:383
-0.507,1.2356,11.5481,-0.8922,0.8045,9.7328,0.3874,0.2392,1.7846,-0.7759,0.4792,0.1482,22.58,-1.12,-48.68,277.19,-6.08,5.48,48.843918,2.353316,95.2,NaN,,11.48,,0 / 20,,595,2022-01-10 18:59:31:388
-1.2305,0.1863,9.4068,-1.1546,0.5891,9.7206,0.3874,0.2392,1.7846,-0.4904,0.7924,0.047,22.5,-0.22,-48.45,279.99,-3.44,6.77,48.843918,2.353316,95.2,NaN,,11.48,,0 / 20,,600,2022-01-10 18:59:31:393
-1.2305,0.1863,9.4068,-1.1546,0.5891,9.7206,0.3874,0.2392,1.7846,-0.4904,0.7924,0.047,22.5,-0.22,-48.45,279.99,-3.44,6.77,48.843918,2.353316,95.2,NaN,,11.48,,0 / 20,,605,2022-01-10 18:59:31:398
-1.2305,0.1863,9.4068,-1.1546,0.5891,9.7206,-0.1893,-0.4297,-0.3109,-0.4904,0.7924,0.047,22.5,-0.22,-48.45,279.99,-3.44,6.77,48.843918,2.353316,95.2,NaN,,11.48,,0 / 20,,611,2022-01-10 18:59:31:404
-1.2305,0.1863,9.4068,-1.1546,0.5891,9.7206,-0.1893,-0.4297,-0.3109,-0.4904,0.7924,0.047,22.5,-0.22,-48.45,279.99,-3.44,6.77,48.843918,2.353316,95.2,NaN,,11.48,,0 / 20,,615,2022-01-10 18:59:31:408
-1.2305,0.1863,9.4068,-1.1546,0.5891,9.7206,-0.1893,-0.4297,-0.3109,-0.4904,0.7924,0.047,22.5,-0.22,-48.45,279.99,-3.44,6.77,48.843918,2.353316,95.2,NaN,,11.48,,0 / 20,,621,2022-01-10 18:59:31:414
-1.5156,0.4044,10.6834,-1.1546,0.5891,9.7206,-0.1893,-0.4297,-0.3109,-0.4904,0.7924,0.047,22.5,-0.22,-48.45,279.99,-3.44,6.77,48.843918,2.353316,95.2,NaN,,11.48,,0 / 20,,626,2022-01-10 18:59:31:419
-1.5156,0.4044,10.6834,-1.1546,0.5891,9.7206,-0.1893,-0.4297,-0.3109,-0.4904,0.7924,0.047,22.5,-0.22,-48.45,279.99,-3.44,6.77,48.843918,2.353316,95.2,NaN,,11.48,,0 / 20,,630,2022-01-10 18:59:31:423
-1.5156,0.4044,10.6834,-1.346,0.4844,9.7018,-0.1893,-0.4297,-0.3109,-0.0686,0.5527,-0.0318,22.5,0.3,-48.07,279.99,-3.44,6.77,48.843918,2.353316,95.2,NaN,,11.48,,0 / 20,,635,2022-01-10 18:59:31:428
-1.5156,0.4044,10.6834,-1.346,0.4844,9.7018,0.0236,0.1865,1.0857,-0.0686,0.5527,-0.0318,22.5,0.3,-48.07,279.99,-3.44,6.77,48.843918,2.353316,95.2,NaN,,11.48,,0 / 20,,640,2022-01-10 18:59:31:433
-1.5156,0.4044,10.6834,-1.346,0.4844,9.7018,0.0236,0.1865,1.0857,-0.0686,0.5527,-0.0318,22.5,0.3,-48.07,279.99,-3.44,6.77,48.843918,2.353316,95.2,NaN,,11.48,,0 / 20,,645,2022-01-10 18:59:31:438
-1.5156,0.4044,10.6834,-1.346,0.4844,9.7018,0.0236,0.1865,1.0857,-0.0686,0.5527,-0.0318,22.5,0.3,-48.07,279.99,-3.44,6.77,48.843918,2.353316,95.2,NaN,,11.48,,0 / 20,,651,2022-01-10 18:59:31:444
-1.2449,1.063,9.9338,-1.346,0.4844,9.7018,0.0236,0.1865,1.0857,-0.0686,0.5527,-0.0318,22.5,0.3,-48.07,279.99,-3.44,6.77,48.843918,2.353316,95.2,NaN,,11.48,,0 / 20,,656,2022-01-10 18:59:31:449
-1.2449,1.063,9.9338,-1.4911,0.5085,9.6793,0.0236,0.1865,1.0857,-0.0686,0.5527,-0.0318,22.5,0.3,-48.07,279.99,-3.44,6.77,48.843918,2.353316,95.2,NaN,,11.48,,0 / 20,,661,2022-01-10 18:59:31:454
-1.2449,1.063,9.9338,-1.4911,0.5085,9.6793,0.0236,0.1865,1.0857,0.1881,0.3759,-0.098,22.5,0.3,-48.07,279.99,-3.44,6.77,48.843918,2.353316,95.2,NaN,,11.48,,0 / 20,,666,2022-01-10 18:59:31:459
-1.2449,1.063,9.9338,-1.4911,0.5085,9.6793,0.4189,0.6008,-0.149,0.1881,0.3759,-0.098,23.18,0.68,-47.93,283.28,-2.97,8.76,48.843918,2.353316,95.2,NaN,,11.48,,0 / 20,,671,2022-01-10 18:59:31:464
-1.2449,1.063,9.9338,-1.4911,0.5085,9.6793,0.4189,0.6008,-0.149,0.1881,0.3759,-0.098,23.18,0.68,-47.93,283.28,-2.97,8.76,48.843918,2.353316,95.2,NaN,,11.48,,0 / 20,,675,2022-01-10 18:59:31:468
-1.2449,1.063,9.9338,-1.4911,0.5085,9.6793,0.4189,0.6008,-0.149,0.1881,0.3759,-0.098,23.18,0.68,-47.93,283.28,-2.97,8.76,48.843918,2.353316,95.2,NaN,,11.48,,0 / 20,,680,2022-01-10 18:59:31:473
-1.3789,0.9314,8.5753,-1.4911,0.5085,9.6793,0.4189,0.6008,-0.149,0.1881,0.3759,-0.098,23.18,0.68,-47.93,283.28,-2.97,8.76,48.843918,2.353316,95.2,NaN,,11.48,,0 / 20,,685,2022-01-10 18:59:31:478
-1.3789,0.9314,8.5753,-1.5272,0.5089,9.6736,0.4189,0.6008,-0.149,0.1881,0.3759,-0.098,23.18,0.68,-47.93,283.28,-2.97,8.76,48.843918,2.353316,95.2,NaN,,11.48,,0 / 20,,691,2022-01-10 18:59:31:484
-1.3789,0.9314,8.5753,-1.5272,0.5089,9.6736,0.4189,0.6008,-0.149,-0.3519,-0.4869,-0.3249,23.18,0.68,-47.93,283.28,-2.97,8.76,48.843918,2.353316,95.2,NaN,,11.48,,0 / 20,,696,2022-01-10 18:59:31:489
-1.3789,0.9314,8.5753,-1.5272,0.5089,9.6736,0.4189,0.6008,-0.149,-0.3519,-0.4869,-0.3249,23.93,0.75,-47.7,283.28,-2.97,8.76,48.843918,2.353316,95.2,NaN,,11.48,,0 / 20,,701,2022-01-10 18:59:31:494
-1.3789,0.9314,8.5753,-1.5272,0.5089,9.6736,-0.2185,0.327,-1.7764,-0.3519,-0.4869,-0.3249,23.93,0.75,-47.7,283.28,-2.97,8.76,48.843918,2.353316,95.2,NaN,,11.48,,0 / 20,,707,2022-01-10 18:59:31:500
-1.4844,0.5551,7.8138,-1.5272,0.5089,9.6736,-0.2185,0.327,-1.7764,-0.3519,-0.4869,-0.3249,23.93,0.75,-47.7,283.28,-2.97,8.76,48.843918,2.353316,95.2,NaN,,11.48,,0 / 20,,710,2022-01-10 18:59:31:503
-1.4844,0.5551,7.8138,-1.5272,0.5089,9.6736,-0.2185,0.327,-1.7764,-0.3519,-0.4869,-0.3249,23.93,0.75,-47.7,283.28,-2.97,8.76,48.843918,2.353316,95.2,NaN,,11.48,,0 / 20,,718,2022-01-10 18:59:31:511
-1.4844,0.5551,7.8138,-1.2478,0.338,9.7211,-0.2185,0.327,-1.7764,-0.3519,-0.4869,-0.3249,23.93,0.75,-47.7,283.28,-2.97,8.76,48.843918,2.353316,95.2,NaN,,11.48,,0 / 20,,721,2022-01-10 18:59:31:514
-1.4844,0.5551,7.8138,-1.2478,0.338,9.7211,-0.2185,0.327,-1.7764,-0.7567,-1.5458,-0.5102,23.93,0.75,-47.7,283.28,-2.97,8.76,48.843918,2.353316,95.2,NaN,,11.48,,0 / 20,,726,2022-01-10 18:59:31:519
-1.4844,0.5551,7.8138,-1.2478,0.338,9.7211,-0.2185,0.327,-1.7764,-0.7567,-1.5458,-0.5102,23.93,0.75,-47.7,283.28,-2.97,8.76,48.843918,2.353316,95.2,NaN,,11.48,,0 / 20,,730,2022-01-10 18:59:31:523
-1.1731,0.3179,9.6607,-1.2478,0.338,9.7211,-0.0683,0.1952,-0.624,-0.7567,-1.5458,-0.5102,23.93,0.75,-47.7,283.28,-2.97,8.76,48.843918,2.353316,95.2,NaN,,11.48,,0 / 20,,738,2022-01-10 18:59:31:531
-1.1731,0.3179,9.6607,-1.2478,0.338,9.7211,-0.0683,0.1952,-0.624,-0.7567,-1.5458,-0.5102,23.85,1.13,-47.85,278.82,-1.98,7.31,48.843918,2.353316,95.2,NaN,,11.48,,0 / 20,,740,2022-01-10 18:59:31:533
-1.1731,0.3179,9.6607,-1.2478,0.338,9.7211,-0.0683,0.1952,-0.624,-0.7567,-1.5458,-0.5102,23.85,1.13,-47.85,278.82,-1.98,7.31,48.843918,2.353316,95.2,NaN,,11.48,,0 / 20,,746,2022-01-10 18:59:31:539
-1.1731,0.3179,9.6607,-1.2478,0.338,9.7211,-0.0683,0.1952,-0.624,-0.7567,-1.5458,-0.5102,23.85,1.13,-47.85,278.82,-1.98,7.31,48.843918,2.353316,95.2,NaN,,11.48,,0 / 20,,751,2022-01-10 18:59:31:544
-1.1731,0.3179,9.6607,-0.8152,0.1,9.7722,-0.0683,0.1952,-0.624,-0.7567,-1.5458,-0.5102,23.85,1.13,-47.85,278.82,-1.98,7.31,48.843918,2.353316,95.2,NaN,,11.48,,0 / 20,,756,2022-01-10 18:59:31:549
-1.1731,0.3179,9.6607,-0.8152,0.1,9.7722,-0.4142,-0.3251,0.203,-0.6747,-1.3562,-0.5358,23.85,1.13,-47.85,278.82,-1.98,7.31,48.843918,2.353316,95.2,NaN,,11.48,,0 / 20,,761,2022-01-10 18:59:31:554
-1.1731,0.3179,9.6607,-0.8152,0.1,9.7722,-0.4142,-0.3251,0.203,-0.6747,-1.3562,-0.5358,23.85,1.13,-47.85,278.82,-1.98,7.31,48.843918,2.353316,95.2,NaN,,11.48,,0 / 20,,766,2022-01-10 18:59:31:559
-1.1369,-0.4965,10.0678,-0.8152,0.1,9.7722,-0.4142,-0.3251,0.203,-0.6747,-1.3562,-0.5358,22.65,1.88,-48.52,278.82,-1.98,7.31,48.843918,2.353316,95.2,NaN,,11.48,,0 / 20,,771,2022-01-10 18:59:31:564
-1.1369,-0.4965,10.0678,-0.8152,0.1,9.7722,-0.4142,-0.3251,0.203,-0.6747,-1.3562,-0.5358,22.65,1.88,-48.52,278.82,-1.98,7.31,48.843918,2.353316,95.2,NaN,,11.48,,0 / 20,,776,2022-01-10 18:59:31:569
-1.1369,-0.4965,10.0678,-0.8152,0.1,9.7722,-0.4142,-0.3251,0.203,-0.6747,-1.3562,-0.5358,22.65,1.88,-48.52,278.82,-1.98,7.31,48.843918,2.353316,95.2,NaN,,11.48,,0 / 20,,781,2022-01-10 18:59:31:574
-1.1369,-0.4965,10.0678,-0.4323,-0.0984,9.7966,-0.4142,-0.3251,0.203,-0.6747,-1.3562,-0.5358,22.65,1.88,-48.52,278.82,-1.98,7.31,48.843918,2.353316,95.2,NaN,,11.48,,0 / 20,,785,2022-01-10 18:59:31:578
-1.034,-0.7047,10.36,-0.4323,-0.0984,9.7966,-0.7837,-0.5917,0.712,-0.4659,-0.8662,-0.0361,22.65,1.88,-48.52,278.82,-1.98,7.31,48.843918,2.353316,95.2,NaN,,11.48,,0 / 20,,792,2022-01-10 18:59:31:585
-1.034,-0.7047,10.36,-0.4323,-0.0984,9.7966,-0.7837,-0.5917,0.712,-0.4659,-0.8662,-0.0361,22.65,1.88,-48.52,278.82,-1.98,7.31,48.843918,2.353316,95.2,NaN,,11.48,,0 / 20,,796,2022-01-10 18:59:31:589
-1.034,-0.7047,10.36,-0.4323,-0.0984,9.7966,-0.7837,-0.5917,0.712,-0.4659,-0.8662,-0.0361,22.65,1.88,-48.52,278.82,-1.98,7.31,48.843918,2.353316,95.2,NaN,,11.48,,0 / 20,,801,2022-01-10 18:59:31:594
-1.034,-0.7047,10.36,-0.4323,-0.0984,9.7966,-0.7837,-0.5917,0.712,-0.4659,-0.8662,-0.0361,21.15,2.93,-48.82,277.56,0.57,2.53,48.843918,2.353316,95.2,NaN,,11.48,,0 / 20,,806,2022-01-10 18:59:31:599
-1.034,-0.7047,10.36,-0.2006,-0.2192,9.8021,-0.7837,-0.5917,0.712,-0.4659,-0.8662,-0.0361,21.15,2.93,-48.82,277.56,0.57,2.53,48.843918,2.353316,95.2,NaN,,11.48,,0 / 20,,812,2022-01-10 18:59:31:605
-1.034,-0.7047,10.36,-0.2006,-0.2192,9.8021,-0.7837,-0.5917,0.712,-0.4659,-0.8662,-0.0361,21.15,2.93,-48.82,277.56,0.57,2.53,48.843918,2.353316,95.2,NaN,,11.48,,0 / 20,,815,2022-01-10 18:59:31:608
-0.4926,-0.5013,9.9314,-0.2006,-0.2192,9.8021,-0.7837,-0.5917,0.712,-0.141,-0.6041,0.3197,21.15,2.93,-48.82,277.56,0.57,2.53,48.843918,2.353316,95.2,NaN,,11.48,,0 / 20,,821,2022-01-10 18:59:31:614
-0.4926,-0.5013,9.9314,-0.2006,-0.2192,9.8021,-0.4796,-0.2853,0.1477,-0.141,-0.6041,0.3197,21.15,2.93,-48.82,277.56,0.57,2.53,48.843918,2.353316,95.2,NaN,,11.48,,0 / 20,,825,2022-01-10 18:59:31:618
-0.4926,-0.5013,9.9314,-0.2006,-0.2192,9.8021,-0.4796,-0.2853,0.1477,-0.141,-0.6041,0.3197,21.15,2.93,-48.82,277.56,0.57,2.53,48.843918,2.353316,95.2,NaN,,11.48,,0 / 20,,831,2022-01-10 18:59:31:624
-0.4926,-0.5013,9.9314,-0.2006,-0.2192,9.8021,-0.4796,-0.2853,0.1477,-0.141,-0.6041,0.3197,21.15,2.93,-48.82,277.56,0.57,2.53,48.843918,2.353316,95.2,NaN,,11.48,,0 / 20,,836,2022-01-10 18:59:31:629
-0.4926,-0.5013,9.9314,-0.2006,-0.2192,9.8021,-0.4796,-0.2853,0.1477,-0.141,-0.6041,0.3197,19.5,3.83,-50.02,277.56,0.57,2.53,48.843918,2.353316,95.2,NaN,,11.48,,0 / 20,,841,2022-01-10 18:59:31:634
-0.4926,-0.5013,9.9314,-0.0643,-0.2539,9.8032,-0.4796,-0.2853,0.1477,-0.141,-0.6041,0.3197,19.5,3.83,-50.02,277.56,0.57,2.53,48.843918,2.353316,95.2,NaN,,11.48,,0 / 20,,845,2022-01-10 18:59:31:638
0.1875,0.0066,9.8186,-0.0643,-0.2539,9.8032,0.0938,0.1623,0.2356,-0.0654,-0.0811,0.2995,19.5,3.83,-50.02,277.56,0.57,2.53,48.843918,2.353316,95.2,NaN,,11.48,,0 / 20,,851,2022-01-10 18:59:31:644
0.1875,0.0066,9.8186,-0.0643,-0.2539,9.8032,0.0938,0.1623,0.2356,-0.0654,-0.0811,0.2995,19.5,3.83,-50.02,277.56,0.57,2.53,48.843918,2.353316,95.2,NaN,,11.48,,0 / 20,,856,2022-01-10 18:59:31:649
0.1875,0.0066,9.8186,-0.0643,-0.2539,9.8032,0.0938,0.1623,0.2356,-0.0654,-0.0811,0.2995,19.5,3.83,-50.02,277.56,0.57,2.53,48.843918,2.353316,95.2,NaN,,11.48,,0 / 20,,861,2022-01-10 18:59:31:654
0.1875,0.0066,9.8186,-0.0643,-0.2539,9.8032,0.0938,0.1623,0.2356,-0.0654,-0.0811,0.2995,19.5,3.83,-50.02,277.56,0.57,2.53,48.843918,2.353316,95.2,NaN,,11.48,,0 / 20,,866,2022-01-10 18:59:31:659
0.1875,0.0066,9.8186,-0.0594,-0.2647,9.8029,0.0938,0.1623,0.2356,-0.0654,-0.0811,0.2995,18.83,3.83,-50.32,278.06,1.55,0.35,48.843918,2.353316,95.2,NaN,,11.48,,0 / 20,,871,2022-01-10 18:59:31:664
0.1875,0.0066,9.8186,-0.0594,-0.2647,9.8029,0.0938,0.1623,0.2356,-0.0654,-0.0811,0.2995,18.83,3.83,-50.32,278.06,1.55,0.35,48.843918,2.353316,95.2,NaN,,11.48,,0 / 20,,876,2022-01-10 18:59:31:669
0.1349,0.0664,10.1324,-0.0594,-0.2647,9.8029,0.0938,0.1623,0.2356,-0.0654,-0.0811,0.2995,18.83,3.83,-50.32,278.06,1.55,0.35,48.843918,2.353316,95.2,NaN,,11.48,,0 / 20,,882,2022-01-10 18:59:31:675
0.1349,0.0664,10.1324,-0.0594,-0.2647,9.8029,0.265,0.326,0.4442,-0.0036,0.4089,0.08,18.83,3.83,-50.32,278.06,1.55,0.35,48.843918,2.353316,95.2,NaN,,11.48,,0 / 20,,887,2022-01-10 18:59:31:680
0.1349,0.0664,10.1324,-0.0594,-0.2647,9.8029,0.265,0.326,0.4442,-0.0036,0.4089,0.08,18.83,3.83,-50.32,278.06,1.55,0.35,48.843918,2.353316,95.2,NaN,,11.48,,0 / 20,,891,2022-01-10 18:59:31:684
0.1349,0.0664,10.1324,-0.0594,-0.2647,9.8029,0.265,0.326,0.4442,-0.0036,0.4089,0.08,18.83,3.83,-50.32,278.06,1.55,0.35,48.843918,2.353316,95.2,NaN,,11.48,,0 / 20,,896,2022-01-10 18:59:31:689
0.1349,0.0664,10.1324,-0.1657,-0.2628,9.8017,0.265,0.326,0.4442,-0.0036,0.4089,0.08,18.9,3.68,-49.95,278.06,1.55,0.35,48.843918,2.353316,95.2,NaN,,11.48,,0 / 20,,901,2022-01-10 18:59:31:694
0.0966,0.3589,9.5408,-0.1657,-0.2628,9.8017,0.265,0.326,0.4442,-0.0036,0.4089,0.08,18.9,3.68,-49.95,278.06,1.55,0.35,48.843918,2.353316,95.2,NaN,,11.48,,0 / 20,,905,2022-01-10 18:59:31:698
0.0966,0.3589,9.5408,-0.1657,-0.2628,9.8017,0.265,0.326,0.4442,-0.0036,0.4089,0.08,18.9,3.68,-49.95,278.06,1.55,0.35,48.843918,2.353316,95.2,NaN,,11.48,,0 / 20,,911,2022-01-10 18:59:31:704
0.0966,0.3589,9.5408,-0.1657,-0.2628,9.8017,0.314,0.6242,-0.1901,-0.0526,0.4547,-0.0873,18.9,3.68,-49.95,278.06,1.55,0.35,48.843918,2.353316,95.2,NaN,,11.48,,0 / 20,,916,2022-01-10 18:59:31:709
0.0966,0.3589,9.5408,-0.1657,-0.2628,9.8017,0.314,0.6242,-0.1901,-0.0526,0.4547,-0.0873,18.9,3.68,-49.95,278.06,1.55,0.35,48.843918,2.353316,95.2,NaN,,11.48,,0 / 20,,921,2022-01-10 18:59:31:714
0.0966,0.3589,9.5408,-0.1657,-0.2628,9.8017,0.314,0.6242,-0.1901,-0.0526,0.4547,-0.0873,18.9,3.68,-49.95,278.06,1.55,0.35,48.843918,2.353316,95.2,NaN,,11.48,,0 / 20,,926,2022-01-10 18:59:31:719
0.0966,0.3589,9.5408,-0.2921,-0.2759,9.7984,0.314,0.6242,-0.1901,-0.0526,0.4547,-0.0873,18.9,3.68,-49.95,278.06,1.55,0.35,48.843918,2.353316,95.2,NaN,,11.48,,0 / 20,,930,2022-01-10 18:59:31:723
-0.0541,-0.07,9.3012,-0.2921,-0.2759,9.7984,0.314,0.6242,-0.1901,-0.0526,0.4547,-0.0873,18.9,3.68,-49.95,278.06,1.55,0.35,48.843918,2.353316,95.2,NaN,,11.48,,0 / 20,,936,2022-01-10 18:59:31:729
-0.0541,-0.07,9.3012,-0.2921,-0.2759,9.7984,0.314,0.6242,-0.1901,-0.0526,0.4547,-0.0873,19.28,3.68,-49.8,278.37,1.61,1.71,48.843918,2.353316,95.2,NaN,,11.48,,0 / 20,,941,2022-01-10 18:59:31:734
-0.0541,-0.07,9.3012,-0.2921,-0.2759,9.7984,0.2173,0.2039,-0.196,-0.2007,0.312,-0.3068,19.28,3.68,-49.8,278.37,1.61,1.71,48.843918,2.353316,95.2,NaN,,11.48,,0 / 20,,946,2022-01-10 18:59:31:739
-0.0541,-0.07,9.3012,-0.2921,-0.2759,9.7984,0.2173,0.2039,-0.196,-0.2007,0.312,-0.3068,19.28,3.68,-49.8,278.37,1.61,1.71,48.843918,2.353316,95.2,NaN,,11.48,,0 / 20,,951,2022-01-10 18:59:31:744
-0.0541,-0.07,9.3012,-0.2921,-0.2759,9.7984,0.2173,0.2039,-0.196,-0.2007,0.312,-0.3068,19.28,3.68,-49.8,278.37,1.61,1.71,48.843918,2.353316,95.2,NaN,,11.48,,0 / 20,,956,2022-01-10 18:59:31:749
-0.3129,-0.1585,9.699,-0.3848,-0.3357,9.7933,0.2173,0.2039,-0.196,-0.2007,0.312,-0.3068,19.28,3.68,-49.8,278.37,1.61,1.71,48.843918,2.353316,95.2,NaN,,11.48,,0 / 20,,960,2022-01-10 18:59:31:753
-0.3129,-0.1585,9.699,-0.3848,-0.3357,9.7933,0.2173,0.2039,-0.196,-0.2007,0.312,-0.3068,19.28,3.68,-49.8,278.37,1.61,1.71,48.843918,2.353316,95.2,NaN,,11.48,,0 / 20,,966,2022-01-10 18:59:31:759
-0.3129,-0.1585,9.699,-0.3848,-0.3357,9.7933,0.2173,0.2039,-0.196,-0.2007,0.312,-0.3068,19.88,3.9,-50.4,278.37,1.61,1.71,48.843918,2.353316,95.2,NaN,,11.48,,0 / 20,,971,2022-01-10 18:59:31:764
-0.3129,-0.1585,9.699,-0.3848,-0.3357,9.7933,0.0234,0.1159,0.1876,-0.2891,0.3514,-0.3632,19.88,3.9,-50.4,278.37,1.61,1.71,48.843918,2.353316,95.2,NaN,,11.48,,0 / 20,,976,2022-01-10 18:59:31:769
-0.3129,-0.1585,9.699,-0.3848,-0.3357,9.7933,0.0234,0.1159,0.1876,-0.2891,0.3514,-0.3632,19.88,3.9,-50.4,278.37,1.61,1.71,48.843918,2.353316,95.2,NaN,,11.48,,0 / 20,,980,2022-01-10 18:59:31:773
-0.3129,-0.1585,9.699,-0.3848,-0.3357,9.7933,0.0234,0.1159,0.1876,-0.2891,0.3514,-0.3632,19.88,3.9,-50.4,278.37,1.61,1.71,48.843918,2.353316,95.2,NaN,,11.48,,0 / 20,,985,2022-01-10 18:59:31:778
-0.737,-0.6066,9.9072,-0.4816,-0.424,9.7856,0.0234,0.1159,0.1876,-0.2891,0.3514,-0.3632,19.88,3.9,-50.4,278.37,1.61,1.71,48.843918,2.353316,95.2,NaN,,11.48,,0 / 20,,990,2022-01-10 18:59:31:783
-0.737,-0.6066,9.9072,-0.4816,-0.424,9.7856,0.0234,0.1159,0.1876,-0.2891,0.3514,-0.3632,19.88,3.9,-50.4,278.37,1.61,1.71,48.843918,2.353316,95.2,NaN,,11.48,,0 / 20,,996,2022-01-10 18:59:31:789
-0.737,-0.6066,9.9072,-0.4816,-0.424,9.7856,0.0234,0.1159,0.1876,-0.2891,0.3514,-0.3632,19.88,3.9,-50.4,278.37,1.61,1.71,48.843918,2.353316,95.2,NaN,,11.48,,0 / 20,,1001,2022-01-10 18:59:31:794
-0.737,-0.6066,9.9072,-0.4816,-0.424,9.7856,-0.3939,-0.3813,0.0756,-0.2166,0.165,-0.2301,20.55,4.73,-50.7,278.46,2.48,2.82,48.843918,2.353316,95.2,NaN,,11.48,,0 / 20,,1005,2022-01-10 18:59:31:798
-0.737,-0.6066,9.9072,-0.4816,-0.424,9.7856,-0.3939,-0.3813,0.0756,-0.2166,0.165,-0.2301,20.55,4.73,-50.7,278.46,2.48,2.82,48.843918,2.353316,95.2,NaN,,11.48,,0 / 20,,1010,2022-01-10 18:59:31:803
-0.9431,-0.9586,9.6751,-0.4816,-0.424,9.7856,-0.3939,-0.3813,0.0756,-0.2166,0.165,-0.2301,20.55,4.73,-50.7,278.46,2.48,2.82,48.843918,2.353316,95.2,NaN,,11.48,,0 / 20,,1016,2022-01-10 18:59:31:809
-0.9431,-0.9586,9.6751,-0.5302,-0.4878,9.7801,-0.3939,-0.3813,0.0756,-0.2166,0.165,-0.2301,20.55,4.73,-50.7,278.46,2.48,2.82,48.843918,2.353316,95.2,NaN,,11.48,,0 / 20,,1023,2022-01-10 18:59:31:816
-0.9431,-0.9586,9.6751,-0.5302,-0.4878,9.7801,-0.3939,-0.3813,0.0756,-0.2166,0.165,-0.2301,20.55,4.73,-50.7,278.46,2.48,2.82,48.843918,2.353316,95.2,NaN,,11.48,,0 / 20,,1026,2022-01-10 18:59:31:819
-0.9431,-0.9586,9.6751,-0.5302,-0.4878,9.7801,-0.3939,-0.3813,0.0756,-0.2166,0.165,-0.2301,20.55,4.73,-50.7,278.46,2.48,2.82,48.843918,2.353316,95.2,NaN,,11.48,,0 / 20,,1031,2022-01-10 18:59:31:824
-0.9431,-0.9586,9.6751,-0.5302,-0.4878,9.7801,-0.3919,-0.3423,0.0751,-0.0174,-0.1429,-0.1055,20.55,4.73,-50.7,278.46,2.48,2.82,48.843918,2.353316,95.2,NaN,,11.48,,0 / 20,,1036,2022-01-10 18:59:31:829
-0.7035,-0.4798,9.8067,-0.5302,-0.4878,9.7801,-0.3919,-0.3423,0.0751,-0.0174,-0.1429,-0.1055,20.55,5.1,-50.1,278.46,2.48,2.82,48.843918,2.353316,95.2,NaN,,11.48,,0 / 20,,1040,2022-01-10 18:59:31:833
-0.7035,-0.4798,9.8067,-0.5075,-0.5087,9.7803,-0.3919,-0.3423,0.0751,-0.0174,-0.1429,-0.1055,20.55,5.1,-50.1,278.46,2.48,2.82,48.843918,2.353316,95.2,NaN,,11.48,,0 / 20,,1046,2022-01-10 18:59:31:839
-0.7035,-0.4798,9.8067,-0.5075,-0.5087,9.7803,-0.3919,-0.3423,0.0751,-0.0174,-0.1429,-0.1055,20.55,5.1,-50.1,278.46,2.48,2.82,48.843918,2.353316,95.2,NaN,,11.48,,0 / 20,,1051,2022-01-10 18:59:31:844
-0.7035,-0.4798,9.8067,-0.5075,-0.5087,9.7803,-0.3919,-0.3423,0.0751,-0.0174,-0.1429,-0.1055,20.55,5.1,-50.1,278.46,2.48,2.82,48.843918,2.353316,95.2,NaN,,11.48,,0 / 20,,1056,2022-01-10 18:59:31:849
-0.7035,-0.4798,9.8067,-0.5075,-0.5087,9.7803,-0.3919,-0.3423,0.0751,-0.0174,-0.1429,-0.1055,20.55,5.1,-50.1,278.46,2.48,2.82,48.843918,2.353316,95.2,NaN,,11.48,,0 / 20,,1061,2022-01-10 18:59:31:854
-0.7035,-0.4798,9.8067,-0.5075,-0.5087,9.7803,-0.3919,-0.3423,0.0751,-0.0174,-0.1429,-0.1055,20.55,5.1,-50.1,278.46,2.48,2.82,48.843918,2.353316,95.2,NaN,,11.48,,0 / 20,,1066,2022-01-10 18:59:31:859
-0.4424,-0.3885,9.6918,-0.5075,-0.5087,9.7803,0.0472,0.1183,0.1681,0.1104,-0.2047,-0.0831,20.78,5.18,-49.95,277.28,2.97,2.97,48.843918,2.353316,95.2,NaN,,11.48,,0 / 20,,1071,2022-01-10 18:59:31:864
-0.4424,-0.3885,9.6918,-0.5075,-0.5087,9.7803,0.0472,0.1183,0.1681,0.1104,-0.2047,-0.0831,20.78,5.18,-49.95,277.28,2.97,2.97,48.843918,2.353316,95.2,NaN,,11.48,,0 / 20,,1076,2022-01-10 18:59:31:869
-0.4424,-0.3885,9.6918,-0.4438,-0.4819,9.7847,0.0472,0.1183,0.1681,0.1104,-0.2047,-0.0831,20.78,5.18,-49.95,277.28,2.97,2.97,48.843918,2.353316,95.2,NaN,,11.48,,0 / 20,,1081,2022-01-10 18:59:31:874
-0.4424,-0.3885,9.6918,-0.4438,-0.4819,9.7847,0.0472,0.1183,0.1681,0.1104,-0.2047,-0.0831,20.78,5.18,-49.95,277.28,2.97,2.97,48.843918,2.353316,95.2,NaN,,11.48,,0 / 20,,1086,2022-01-10 18:59:31:879
-0.4424,-0.3885,9.6918,-0.4438,-0.4819,9.7847,0.0472,0.1183,0.1681,0.1104,-0.2047,-0.0831,20.78,5.18,-49.95,277.28,2.97,2.97,48.843918,2.353316,95.2,NaN,,11.48,,0 / 20,,1090,2022-01-10 18:59:31:883
-0.5381,-0.5803,9.6894,-0.4438,-0.4819,9.7847,-0.1167,-0.0756,0.0589,0.1104,-0.2047,-0.0831,20.78,5.18,-49.95,277.28,2.97,2.97,48.843918,2.353316,95.2,NaN,,11.48,,0 / 20,,1096,2022-01-10 18:59:31:889
-0.5381,-0.5803,9.6894,-0.4438,-0.4819,9.7847,-0.1167,-0.0756,0.0589,0.0358,-0.2558,0.0726,20.25,5.4,-49.8,277.28,2.97,2.97,48.843918,2.353316,95.2,NaN,,11.48,,0 / 20,,1102,2022-01-10 18:59:31:895
-0.5381,-0.5803,9.6894,-0.4438,-0.4819,9.7847,-0.1167,-0.0756,0.0589,0.0358,-0.2558,0.0726,20.25,5.4,-49.8,277.28,2.97,2.97,48.843918,2.353316,95.2,NaN,,11.48,,0 / 20,,1106,2022-01-10 18:59:31:899
-0.5381,-0.5803,9.6894,-0.3709,-0.4612,9.7888,-0.1167,-0.0756,0.0589,0.0358,-0.2558,0.0726,20.25,5.4,-49.8,277.28,2.97,2.97,48.843918,2.353316,95.2,NaN,,11.48,,0 / 20,,1111,2022-01-10 18:59:31:904
-0.5381,-0.5803,9.6894,-0.3709,-0.4612,9.7888,-0.1167,-0.0756,0.0589,0.0358,-0.2558,0.0726,20.25,5.4,-49.8,277.28,2.97,2.97,48.843918,2.353316,95.2,NaN,,11.48,,0 / 20,,1115,2022-01-10 18:59:31:908
-0.5381,-0.5803,9.6894,-0.3709,-0.4612,9.7888,-0.1167,-0.0756,0.0589,0.0358,-0.2558,0.0726,20.25,5.4,-49.8,277.28,2.97,2.97,48.843918,2.353316,95.2,NaN,,11.48,,0 / 20,,1120,2022-01-10 18:59:31:913
-0.3105,-0.4029,9.766,-0.3709,-0.4612,9.7888,0.0186,0.0106,0.0789,0.0358,-0.2558,0.0726,20.25,5.4,-49.8,277.28,2.97,2.97,48.843918,2.353316,95.2,NaN,,11.48,,0 / 20,,1127,2022-01-10 18:59:31:920
-0.3105,-0.4029,9.766,-0.3709,-0.4612,9.7888,0.0186,0.0106,0.0789,0.0358,-0.2558,0.0726,20.25,5.4,-49.8,277.28,2.97,2.97,48.843918,2.353316,95.2,NaN,,11.48,,0 / 20,,1130,2022-01-10 18:59:31:923
-0.3105,-0.4029,9.766,-0.3709,-0.4612,9.7888,0.0186,0.0106,0.0789,-0.0537,-0.1237,0.1216,20.25,5.4,-49.8,277.28,2.97,2.97,48.843918,2.353316,95.2,NaN,,11.48,,0 / 20,,1136,2022-01-10 18:59:31:929
-0.3105,-0.4029,9.766,-0.3165,-0.4715,9.7902,0.0186,0.0106,0.0789,-0.0537,-0.1237,0.1216,19.5,5.33,-49.95,277.93,2.76,1.85,48.843918,2.353316,95.2,NaN,,11.48,,0 / 20,,1142,2022-01-10 18:59:31:935
-0.3105,-0.4029,9.766,-0.3165,-0.4715,9.7902,0.0186,0.0106,0.0789,-0.0537,-0.1237,0.1216,19.5,5.33,-49.95,277.93,2.76,1.85,48.843918,2.353316,95.2,NaN,,11.48,,0 / 20,,1145,2022-01-10 18:59:31:938
-0.2315,-0.3311,10.0415,-0.3165,-0.4715,9.7902,0.0186,0.0106,0.0789,-0.0537,-0.1237,0.1216,19.5,5.33,-49.95,277.93,2.76,1.85,48.843918,2.353316,95.2,NaN,,11.48,,0 / 20,,1151,2022-01-10 18:59:31:944
-0.2315,-0.3311,10.0415,-0.3165,-0.4715,9.7902,0.0186,0.0106,0.0789,-0.0537,-0.1237,0.1216,19.5,5.33,-49.95,277.93,2.76,1.85,48.843918,2.353316,95.2,NaN,,11.48,,0 / 20,,1155,2022-01-10 18:59:31:948
-0.2315,-0.3311,10.0415,-0.3165,-0.4715,9.7902,0.0553,0.1587,0.3672,-0.0537,-0.1237,0.1216,19.5,5.33,-49.95,277.93,2.76,1.85,48.843918,2.353316,95.2,NaN,,11.48,,0 / 20,,1160,2022-01-10 18:59:31:953
-0.2315,-0.3311,10.0415,-0.3165,-0.4715,9.7902,0.0553,0.1587,0.3672,0.0539,0.1064,0.0417,19.5,5.33,-49.95,277.93,2.76,1.85,48.843918,2.353316,95.2,NaN,,11.48,,0 / 20,,1166,2022-01-10 18:59:31:959
-0.2315,-0.3311,10.0415,-0.3216,-0.4694,9.7901,0.0553,0.1587,0.3672,0.0539,0.1064,0.0417,19.5,5.33,-49.95,277.93,2.76,1.85,48.843918,2.353316,95.2,NaN,,11.48,,0 / 20,,1170,2022-01-10 18:59:31:963
-0.2315,-0.3311,10.0415,-0.3216,-0.4694,9.7901,0.0553,0.1587,0.3672,0.0539,0.1064,0.0417,19.5,5.33,-49.95,277.93,2.76,1.85,48.843918,2.353316,95.2,NaN,,11.48,,0 / 20,,1175,2022-01-10 18:59:31:968
-0.2602,-0.3909,9.9625,-0.3216,-0.4694,9.7901,0.0553,0.1587,0.3672,0.0539,0.1064,0.0417,19.28,5.55,-49.88,277.93,2.76,1.85,48.843918,2.353316,95.2,NaN,,11.48,,0 / 20,,1180,2022-01-10 18:59:31:973
-0.2602,-0.3909,9.9625,-0.3216,-0.4694,9.7901,0.0553,0.1587,0.3672,0.0539,0.1064,0.0417,19.28,5.55,-49.88,277.93,2.76,1.85,48.843918,2.353316,95.2,NaN,,11.48,,0 / 20,,1186,2022-01-10 18:59:31:979
-0.2602,-0.3909,9.9625,-0.3216,-0.4694,9.7901,0.0623,0.0171,0.2329,0.0539,0.1064,0.0417,19.28,5.55,-49.88,277.93,2.76,1.85,48.843918,2.353316,95.2,NaN,,11.48,,0 / 20,,1191,2022-01-10 18:59:31:984
-0.2602,-0.3909,9.9625,-0.3216,-0.4694,9.7901,0.0623,0.0171,0.2329,0.1615,0.2129,0.0246,19.28,5.55,-49.88,277.93,2.76,1.85,48.843918,2.353316,95.2,NaN,,11.48,,0 / 20,,1196,2022-01-10 18:59:31:989
-0.2602,-0.3909,9.9625,-0.3789,-0.4289,9.7899,0.0623,0.0171,0.2329,0.1615,0.2129,0.0246,19.28,5.55,-49.88,277.93,2.76,1.85,48.843918,2.353316,95.2,NaN,,11.48,,0 / 20,,1201,2022-01-10 18:59:31:994
-0.3538,-0.379,9.6365,-0.3789,-0.4289,9.7899,0.0623,0.0171,0.2329,0.1615,0.2129,0.0246,19.28,5.55,-49.88,277.93,2.76,1.85,48.843918,2.353316,95.2,NaN,,11.48,,0 / 20,,1206,2022-01-10 18:59:31:999
-0.3538,-0.379,9.6365,-0.3789,-0.4289,9.7899,0.0623,0.0171,0.2329,0.1615,0.2129,0.0246,19.73,5.63,-49.88,281.81,2.51,2.22,48.843918,2.353316,95.2,NaN,,11.48,,0 / 20,,1211,2022-01-10 18:59:32:004
-0.3538,-0.379,9.6365,-0.3789,-0.4289,9.7899,0.0623,0.0171,0.2329,0.1615,0.2129,0.0246,19.73,5.63,-49.88,281.81,2.51,2.22,48.843918,2.353316,95.2,NaN,,11.48,,0 / 20,,1215,2022-01-10 18:59:32:008
-0.3538,-0.379,9.6365,-0.3789,-0.4289,9.7899,0.0411,0.0521,-0.0596,0.1615,0.2129,0.0246,19.73,5.63,-49.88,281.81,2.51,2.22,48.843918,2.353316,95.2,NaN,,11.48,,0 / 20,,1221,2022-01-10 18:59:32:014
-0.3538,-0.379,9.6365,-0.3789,-0.4289,9.7899,0.0411,0.0521,-0.0596,0.1391,0.2193,0.0076,19.73,5.63,-49.88,281.81,2.51,2.22,48.843918,2.353316,95.2,NaN,,11.48,,0 / 20,,1226,2022-01-10 18:59:32:019
-0.3538,-0.379,9.6365,-0.4383,-0.3806,9.7895,0.0411,0.0521,-0.0596,0.1391,0.2193,0.0076,19.73,5.63,-49.88,281.81,2.51,2.22,48.843918,2.353316,95.2,NaN,,11.48,,0 / 20,,1231,2022-01-10 18:59:32:024
-0.3419,-0.3407,9.6174,-0.4383,-0.3806,9.7895,0.0411,0.0521,-0.0596,0.1391,0.2193,0.0076,19.73,5.63,-49.88,281.81,2.51,2.22,48.843918,2.353316,95.2,NaN,,11.48,,0 / 20,,1235,2022-01-10 18:59:32:028
-0.3419,-0.3407,9.6174,-0.4383,-0.3806,9.7895,0.0411,0.0521,-0.0596,0.1391,0.2193,0.0076,19.95,5.18,-49.57,281.81,2.51,2.22,48.843918,2.353316,95.2,NaN,,11.48,,0 / 20,,1240,2022-01-10 18:59:32:033
-0.3419,-0.3407,9.6174,-0.4383,-0.3806,9.7895,0.0411,0.0521,-0.0596,0.1391,0.2193,0.0076,19.95,5.18,-49.57,281.81,2.51,2.22,48.843918,2.353316,95.2,NaN,,11.48,,0 / 20,,1247,2022-01-10 18:59:32:040
-0.3419,-0.3407,9.6174,-0.4383,-0.3806,9.7895,0.0411,0.0521,-0.0596,0.1391,0.2193,0.0076,19.95,5.18,-49.57,281.81,2.51,2.22,48.843918,2.353316,95.2,NaN,,11.48,,0 / 20,,1250,2022-01-10 18:59:32:043
-0.3419,-0.3407,9.6174,-0.4383,-0.3806,9.7895,0.0668,-0.011,-0.0951,0.0433,0.2417,-0.0286,19.95,5.18,-49.57,281.81,2.51,2.22,48.843918,2.353316,95.2,NaN,,11.48,,0 / 20,,1256,2022-01-10 18:59:32:049
-0.3419,-0.3407,9.6174,-0.5041,-0.3561,9.7872,0.0668,-0.011,-0.0951,0.0433,0.2417,-0.0286,19.95,5.18,-49.57,281.81,2.51,2.22,48.843918,2.353316,95.2,NaN,,11.48,,0 / 20,,1260,2022-01-10 18:59:32:053
-0.5094,-0.4484,9.6437,-0.5041,-0.3561,9.7872,0.0668,-0.011,-0.0951,0.0433,0.2417,-0.0286,19.95,5.18,-49.57,281.81,2.51,2.22,48.843918,2.353316,95.2,NaN,,11.48,,0 / 20,,1266,2022-01-10 18:59:32:059
-0.5094,-0.4484,9.6437,-0.5041,-0.3561,9.7872,0.0668,-0.011,-0.0951,0.0433,0.2417,-0.0286,19.95,5.18,-49.57,281.81,2.51,2.22,48.843918,2.353316,95.2,NaN,,11.48,,0 / 20,,1271,2022-01-10 18:59:32:064
-0.5094,-0.4484,9.6437,-0.5041,-0.3561,9.7872,0.0668,-0.011,-0.0951,0.0433,0.2417,-0.0286,19.95,5.18,-49.57,281.81,2.51,2.22,48.843918,2.353316,95.2,NaN,,11.48,,0 / 20,,1277,2022-01-10 18:59:32:070
-0.5094,-0.4484,9.6437,-0.5041,-0.3561,9.7872,0.0668,-0.011,-0.0951,0.0433,0.2417,-0.0286,20.33,4.5,-49.8,280.25,2.08,2.95,48.843918,2.353316,95.2,NaN,,11.48,,0 / 20,,1281,2022-01-10 18:59:32:074
-0.5094,-0.4484,9.6437,-0.5041,-0.3561,9.7872,0.0227,0.0379,0.0783,0.0294,0.1628,-0.0095,20.33,4.5,-49.8,280.25,2.08,2.95,48.843918,2.353316,95.2,NaN,,11.48,,0 / 20,,1286,2022-01-10 18:59:32:079
-0.5213,-0.2737,9.7301,-0.5627,-0.3486,9.7843,0.0227,0.0379,0.0783,0.0294,0.1628,-0.0095,20.33,4.5,-49.8,280.25,2.08,2.95,48.843918,2.353316,95.2,NaN,,11.48,,0 / 20,,1290,2022-01-10 18:59:32:083
-0.5213,-0.2737,9.7301,-0.5627,-0.3486,9.7843,0.0227,0.0379,0.0783,0.0294,0.1628,-0.0095,20.33,4.5,-49.8,280.25,2.08,2.95,48.843918,2.353316,95.2,NaN,,11.48,,0 / 20,,1297,2022-01-10 18:59:32:090
-0.5213,-0.2737,9.7301,-0.5627,-0.3486,9.7843,0.0227,0.0379,0.0783,0.0294,0.1628,-0.0095,20.33,4.5,-49.8,280.25,2.08,2.95,48.843918,2.353316,95.2,NaN,,11.48,,0 / 20,,1301,2022-01-10 18:59:32:094
-0.5213,-0.2737,9.7301,-0.5627,-0.3486,9.7843,0.0227,0.0379,0.0783,0.0294,0.1628,-0.0095,20.33,4.5,-49.8,280.25,2.08,2.95,48.843918,2.353316,95.2,NaN,,11.48,,0 / 20,,1305,2022-01-10 18:59:32:098
-0.5213,-0.2737,9.7301,-0.5627,-0.3486,9.7843,0.0227,0.0379,0.0783,0.0294,0.1628,-0.0095,20.85,4.43,-50.32,280.25,2.08,2.95,48.843918,2.353316,95.2,NaN,,11.48,,0 / 20,,1310,2022-01-10 18:59:32:103
-0.6485,-0.233,9.5839,-0.5627,-0.3486,9.7843,0.0074,0.0694,-0.0821,0.1104,0.0595,0.0065,20.85,4.43,-50.32,280.25,2.08,2.95,48.843918,2.353316,95.2,NaN,,11.48,,0 / 20,,1316,2022-01-10 18:59:32:109
-0.6485,-0.233,9.5839,-0.5627,-0.3486,9.7843,0.0074,0.0694,-0.0821,0.1104,0.0595,0.0065,20.85,4.43,-50.32,280.25,2.08,2.95,48.843918,2.353316,95.2,NaN,,11.48,,0 / 20,,1320,2022-01-10 18:59:32:113
-0.6485,-0.233,9.5839,-0.5821,-0.3214,9.7841,0.0074,0.0694,-0.0821,0.1104,0.0595,0.0065,20.85,4.43,-50.32,280.25,2.08,2.95,48.843918,2.353316,95.2,NaN,,11.48,,0 / 20,,1326,2022-01-10 18:59:32:119
-0.6485,-0.233,9.5839,-0.5821,-0.3214,9.7841,0.0074,0.0694,-0.0821,0.1104,0.0595,0.0065,20.85,4.43,-50.32,280.25,2.08,2.95,48.843918,2.353316,95.2,NaN,,11.48,,0 / 20,,1331,2022-01-10 18:59:32:124
-0.6485,-0.233,9.5839,-0.5821,-0.3214,9.7841,0.0074,0.0694,-0.0821,0.1104,0.0595,0.0065,20.85,4.43,-50.32,280.25,2.08,2.95,48.843918,2.353316,95.2,NaN,,11.48,,0 / 20,,1335,2022-01-10 18:59:32:128
-0.6003,-0.2665,9.6078,-0.5821,-0.3214,9.7841,0.0074,0.0694,-0.0821,0.1104,0.0595,0.0065,20.85,4.43,-50.32,280.25,2.08,2.95,48.843918,2.353316,95.2,NaN,,11.48,,0 / 20,,1340,2022-01-10 18:59:32:133
-0.6003,-0.2665,9.6078,-0.5821,-0.3214,9.7841,0.0074,0.0694,-0.0821,0.1104,0.0595,0.0065,20.85,4.43,-50.32,280.25,2.08,2.95,48.843918,2.353316,95.2,NaN,,11.48,,0 / 20,,1345,2022-01-10 18:59:32:138
-0.6003,-0.2665,9.6078,-0.5965,-0.2862,9.7843,-0.0241,-0.0016,-0.0605,0.0774,-0.0182,0.0822,21.15,4.95,-50.02,280.46,1.88,3.4,48.843918,2.353316,95.2,NaN,,11.48,,0 / 20,,1350,2022-01-10 18:59:32:143
-0.6003,-0.2665,9.6078,-0.5965,-0.2862,9.7843,-0.0241,-0.0016,-0.0605,0.0774,-0.0182,0.0822,21.15,4.95,-50.02,280.46,1.88,3.4,48.843918,2.353316,95.2,NaN,,11.48,,0 / 20,,1356,2022-01-10 18:59:32:149
-0.6003,-0.2665,9.6078,-0.5965,-0.2862,9.7843,-0.0241,-0.0016,-0.0605,0.0774,-0.0182,0.0822,21.15,4.95,-50.02,280.46,1.88,3.4,48.843918,2.353316,95.2,NaN,,11.48,,0 / 20,,1362,2022-01-10 18:59:32:155
-0.6003,-0.2665,9.6078,-0.5965,-0.2862,9.7843,-0.0241,-0.0016,-0.0605,0.0774,-0.0182,0.0822,21.15,4.95,-50.02,280.46,1.88,3.4,48.843918,2.353316,95.2,NaN,,11.48,,0 / 20,,1365,2022-01-10 18:59:32:158
-0.5859,-0.3383,9.5169,-0.5965,-0.2862,9.7843,-0.0241,-0.0016,-0.0605,0.0774,-0.0182,0.0822,21.15,4.95,-50.02,280.46,1.88,3.4,48.843918,2.353316,95.2,NaN,,11.48,,0 / 20,,1371,2022-01-10 18:59:32:164
-0.5859,-0.3383,9.5169,-0.5965,-0.2862,9.7843,-0.0349,-0.0662,-0.1013,0.0774,-0.0182,0.0822,21.15,4.95,-50.02,280.46,1.88,3.4,48.843918,2.353316,95.2,NaN,,11.48,,0 / 20,,1376,2022-01-10 18:59:32:169
-0.5859,-0.3383,9.5169,-0.5965,-0.2862,9.7843,-0.0349,-0.0662,-0.1013,-0.0132,-0.0875,0.0257,20.55,4.65,-50.1,280.46,1.88,3.4,48.843918,2.353316,95.2,NaN,,11.48,,0 / 20,,1381,2022-01-10 18:59:32:174
-0.5859,-0.3383,9.5169,-0.5785,-0.2801,9.7856,-0.0349,-0.0662,-0.1013,-0.0132,-0.0875,0.0257,20.55,4.65,-50.1,280.46,1.88,3.4,48.843918,2.353316,95.2,NaN,,11.48,,0 / 20,,1386,2022-01-10 18:59:32:179
-0.5859,-0.3383,9.5169,-0.5785,-0.2801,9.7856,-0.0349,-0.0662,-0.1013,-0.0132,-0.0875,0.0257,20.55,4.65,-50.1,280.46,1.88,3.4,48.843918,2.353316,95.2,NaN,,11.48,,0 / 20,,1391,2022-01-10 18:59:32:184
-0.6508,-0.1801,9.845,-0.5785,-0.2801,9.7856,-0.0349,-0.0662,-0.1013,-0.0132,-0.0875,0.0257,20.55,4.65,-50.1,280.46,1.88,3.4,48.843918,2.353316,95.2,NaN,,11.48,,0 / 20,,1396,2022-01-10 18:59:32:189
-0.6508,-0.1801,9.845,-0.5785,-0.2801,9.7856,-0.0349,-0.0662,-0.1013,-0.0132,-0.0875,0.0257,20.55,4.65,-50.1,280.46,1.88,3.4,48.843918,2.353316,95.2,NaN,,11.48,,0 / 20,,1402,2022-01-10 18:59:32:195
-0.6508,-0.1801,9.845,-0.5785,-0.2801,9.7856,-0.0349,-0.0662,-0.1013,-0.0132,-0.0875,0.0257,20.55,4.65,-50.1,280.46,1.88,3.4,48.843918,2.353316,95.2,NaN,,11.48,,0 / 20,,1406,2022-01-10 18:59:32:199
-0.6508,-0.1801,9.845,-0.5485,-0.279,9.7873,-0.0352,0.098,0.2433,0.0198,-0.1024,-0.002,21.0,4.35,-50.25,278.02,1.64,3.38,48.843918,2.353316,95.2,NaN,,11.48,,0 / 20,,1411,2022-01-10 18:59:32:204
-0.6508,-0.1801,9.845,-0.5485,-0.279,9.7873,-0.0352,0.098,0.2433,0.0198,-0.1024,-0.002,21.0,4.35,-50.25,278.02,1.64,3.38,48.843918,2.353316,95.2,NaN,,11.48,,0 / 20,,1415,2022-01-10 18:59:32:208
-0.5381,-0.2521,9.8067,-0.5485,-0.279,9.7873,-0.0352,0.098,0.2433,0.0198,-0.1024,-0.002,21.0,4.35,-50.25,278.02,1.64,3.38,48.843918,2.353316,95.2,NaN,,11.48,,0 / 20,,1421,2022-01-10 18:59:32:214
-0.5381,-0.2521,9.8067,-0.5485,-0.279,9.7873,-0.0352,0.098,0.2433,0.0198,-0.1024,-0.002,21.0,4.35,-50.25,278.02,1.64,3.38,48.843918,2.353316,95.2,NaN,,11.48,,0 / 20,,1427,2022-01-10 18:59:32:220
-0.5381,-0.2521,9.8067,-0.5485,-0.279,9.7873,-0.0352,0.098,0.2433,0.0198,-0.1024,-0.002,21.0,4.35,-50.25,278.02,1.64,3.38,48.843918,2.353316,95.2,NaN,,11.48,,0 / 20,,1430,2022-01-10 18:59:32:223
-0.5381,-0.2521,9.8067,-0.5485,-0.279,9.7873,0.0314,0.0437,0.0227,0.0198,-0.1024,-0.002,21.0,4.35,-50.25,278.02,1.64,3.38,48.843918,2.353316,95.2,NaN,,11.48,,0 / 20,,1436,2022-01-10 18:59:32:229
-0.5381,-0.2521,9.8067,-0.5485,-0.279,9.7873,0.0314,0.0437,0.0227,0.0198,-0.1024,-0.002,20.48,4.35,-50.1,278.02,1.64,3.38,48.843918,2.353316,95.2,NaN,,11.48,,0 / 20,,1441,2022-01-10 18:59:32:234
-0.5381,-0.2521,9.8067,-0.5342,-0.265,9.7885,0.0314,0.0437,0.0227,0.0635,-0.0342,0.0108,20.48,4.35,-50.1,278.02,1.64,3.38,48.843918,2.353316,95.2,NaN,,11.48,,0 / 20,,1445,2022-01-10 18:59:32:238
-0.5883,-0.3144,9.6102,-0.5342,-0.265,9.7885,0.0314,0.0437,0.0227,0.0635,-0.0342,0.0108,20.48,4.35,-50.1,278.02,1.64,3.38,48.843918,2.353316,95.2,NaN,,11.48,,0 / 20,,1452,2022-01-10 18:59:32:245
-0.5883,-0.3144,9.6102,-0.5342,-0.265,9.7885,0.0314,0.0437,0.0227,0.0635,-0.0342,0.0108,20.48,4.35,-50.1,278.02,1.64,3.38,48.843918,2.353316,95.2,NaN,,11.48,,0 / 20,,1457,2022-01-10 18:59:32:250
-0.5883,-0.3144,9.6102,-0.5342,-0.265,9.7885,0.0314,0.0437,0.0227,0.0635,-0.0342,0.0108,20.48,4.35,-50.1,278.02,1.64,3.38,48.843918,2.353316,95.2,NaN,,11.48,,0 / 20,,1461,2022-01-10 18:59:32:254
-0.5883,-0.3144,9.6102,-0.5342,-0.265,9.7885,0.0314,0.0437,0.0227,0.0635,-0.0342,0.0108,20.48,4.35,-50.1,278.02,1.64,3.38,48.843918,2.353316,95.2,NaN,,11.48,,0 / 20,,1466,2022-01-10 18:59:32:259
-0.5883,-0.3144,9.6102,-0.5342,-0.265,9.7885,0.0027,0.0211,-0.1312,0.0635,-0.0342,0.0108,21.0,4.43,-50.1,278.17,1.55,3.12,48.843918,2.353316,95.2,NaN,,11.48,,0 / 20,,1470,2022-01-10 18:59:32:263
-0.5477,-0.082,9.4905,-0.5172,-0.244,9.79,0.0027,0.0211,-0.1312,0.0774,-0.0885,0.0395,21.0,4.43,-50.1,278.17,1.55,3.12,48.843918,2.353316,95.2,NaN,,11.48,,0 / 20,,1475,2022-01-10 18:59:32:268
-0.5477,-0.082,9.4905,-0.5172,-0.244,9.79,0.0027,0.0211,-0.1312,0.0774,-0.0885,0.0395,21.0,4.43,-50.1,278.17,1.55,3.12,48.843918,2.353316,95.2,NaN,,11.48,,0 / 20,,1481,2022-01-10 18:59:32:274
-0.5477,-0.082,9.4905,-0.5172,-0.244,9.79,0.0027,0.0211,-0.1312,0.0774,-0.0885,0.0395,21.0,4.43,-50.1,278.17,1.55,3.12,48.843918,2.353316,95.2,NaN,,11.48,,0 / 20,,1486,2022-01-10 18:59:32:279
-0.5477,-0.082,9.4905,-0.5172,-0.244,9.79,0.0027,0.0211,-0.1312,0.0774,-0.0885,0.0395,21.0,4.43,-50.1,278.17,1.55,3.12,48.843918,2.353316,95.2,NaN,,11.48,,0 / 20,,1492,2022-01-10 18:59:32:285
-0.5477,-0.082,9.4905,-0.5172,-0.244,9.79,0.0027,0.0211,-0.1312,0.0774,-0.0885,0.0395,21.0,4.43,-50.1,278.17,1.55,3.12,48.843918,2.353316,95.2,NaN,,11.48,,0 / 20,,1496,2022-01-10 18:59:32:289
-0.5477,-0.082,9.4905,-0.5172,-0.244,9.79,0.0027,0.0211,-0.1312,0.0774,-0.0885,0.0395,21.0,4.43,-50.1,278.17,1.55,3.12,48.843918,2.353316,95.2,NaN,,11.48,,0 / 20,,1500,2022-01-10 18:59:32:293
-0.4854,-0.2067,9.5216,-0.4975,-0.2219,9.7915,0.0143,0.0773,-0.1601,0.0316,-0.0694,0.0012,21.0,4.35,-49.72,278.17,1.55,3.12,48.843918,2.353316,95.2,NaN,,11.48,,0 / 20,,1506,2022-01-10 18:59:32:299
-0.4854,-0.2067,9.5216,-0.4975,-0.2219,9.7915,0.0143,0.0773,-0.1601,0.0316,-0.0694,0.0012,21.0,4.35,-49.72,278.17,1.55,3.12,48.843918,2.353316,95.2,NaN,,11.48,,0 / 20,,1511,2022-01-10 18:59:32:304
-0.4854,-0.2067,9.5216,-0.4975,-0.2219,9.7915,0.0143,0.0773,-0.1601,0.0316,-0.0694,0.0012,21.0,4.35,-49.72,278.17,1.55,3.12,48.843918,2.353316,95.2,NaN,,11.48,,0 / 20,,1516,2022-01-10 18:59:32:309
-0.4854,-0.2067,9.5216,-0.4975,-0.2219,9.7915,0.0143,0.0773,-0.1601,0.0316,-0.0694,0.0012,21.0,4.35,-49.72,278.17,1.55,3.12,48.843918,2.353316,95.2,NaN,,11.48,,0 / 20,,1522,2022-01-10 18:59:32:315
-0.4854,-0.2067,9.5216,-0.4975,-0.2219,9.7915,0.0143,0.0773,-0.1601,0.0316,-0.0694,0.0012,21.0,4.35,-49.72,278.17,1.55,3.12,48.843918,2.353316,95.2,NaN,,11.48,,0 / 20,,1525,2022-01-10 18:59:32:318
-0.4543,-0.2833,9.8043,-0.4837,-0.2273,9.7921,-0.0246,-0.0731,0.0769,0.0316,-0.0694,0.0012,21.0,4.35,-49.72,278.17,1.55,3.12,48.843918,2.353316,95.2,NaN,,11.48,,0 / 20,,1530,2022-01-10 18:59:32:323
-0.4543,-0.2833,9.8043,-0.4837,-0.2273,9.7921,-0.0246,-0.0731,0.0769,-0.0643,-0.0044,1.0E-4,21.0,4.35,-49.72,278.17,1.55,3.12,48.843918,2.353316,95.2,NaN,,11.48,,0 / 20,,1536,2022-01-10 18:59:32:329
-0.4543,-0.2833,9.8043,-0.4837,-0.2273,9.7921,-0.0246,-0.0731,0.0769,-0.0643,-0.0044,1.0E-4,21.3,4.2,-49.65,278.66,1.33,2.83,48.843918,2.353316,95.2,NaN,,11.48,,0 / 20,,1541,2022-01-10 18:59:32:334
-0.4543,-0.2833,9.8043,-0.4837,-0.2273,9.7921,-0.0246,-0.0731,0.0769,-0.0643,-0.0044,1.0E-4,21.3,4.2,-49.65,278.66,1.33,2.83,48.843918,2.353316,95.2,NaN,,11.48,,0 / 20,,1546,2022-01-10 18:59:32:339
-0.4543,-0.2833,9.8043,-0.4837,-0.2273,9.7921,-0.0246,-0.0731,0.0769,-0.0643,-0.0044,1.0E-4,21.3,4.2,-49.65,278.66,1.33,2.83,48.843918,2.353316,95.2,NaN,,11.48,,0 / 20,,1551,2022-01-10 18:59:32:344
-0.4543,-0.2833,9.8043,-0.4837,-0.2273,9.7921,-0.0246,-0.0731,0.0769,-0.0643,-0.0044,1.0E-4,21.3,4.2,-49.65,278.66,1.33,2.83,48.843918,2.353316,95.2,NaN,,11.48,,0 / 20,,1555,2022-01-10 18:59:32:348
-0.4232,-0.2282,9.7277,-0.4866,-0.2473,9.7915,0.0276,0.027,0.0704,-0.0643,-0.0044,1.0E-4,21.3,4.2,-49.65,278.66,1.33,2.83,48.843918,2.353316,95.2,NaN,,11.48,,0 / 20,,1561,2022-01-10 18:59:32:354
-0.4232,-0.2282,9.7277,-0.4866,-0.2473,9.7915,0.0276,0.027,0.0704,-0.0292,0.0318,-0.0116,21.3,4.2,-49.65,278.66,1.33,2.83,48.843918,2.353316,95.2,NaN,,11.48,,0 / 20,,1566,2022-01-10 18:59:32:359
-0.4232,-0.2282,9.7277,-0.4866,-0.2473,9.7915,0.0276,0.027,0.0704,-0.0292,0.0318,-0.0116,20.78,4.58,-50.1,278.66,1.33,2.83,48.843918,2.353316,95.2,NaN,,11.48,,0 / 20,,1571,2022-01-10 18:59:32:364
-0.4232,-0.2282,9.7277,-0.4866,-0.2473,9.7915,0.0276,0.027,0.0704,-0.0292,0.0318,-0.0116,20.78,4.58,-50.1,278.66,1.33,2.83,48.843918,2.353316,95.2,NaN,,11.48,,0 / 20,,1575,2022-01-10 18:59:32:368
-0.4232,-0.2282,9.7277,-0.4866,-0.2473,9.7915,0.0276,0.027,0.0704,-0.0292,0.0318,-0.0116,20.78,4.58,-50.1,278.66,1.33,2.83,48.843918,2.353316,95.2,NaN,,11.48,,0 / 20,,1581,2022-01-10 18:59:32:374
-0.5094,-0.2402,9.9191,-0.4866,-0.2473,9.7915,0.0276,0.027,0.0704,-0.0292,0.0318,-0.0116,20.78,4.58,-50.1,278.66,1.33,2.83,48.843918,2.353316,95.2,NaN,,11.48,,0 / 20,,1586,2022-01-10 18:59:32:379
-0.5094,-0.2402,9.9191,-0.4974,-0.2438,9.791,-0.0284,0.0274,0.2435,-0.0292,0.0318,-0.0116,20.78,4.58,-50.1,278.66,1.33,2.83,48.843918,2.353316,95.2,NaN,,11.48,,0 / 20,,1591,2022-01-10 18:59:32:384
-0.5094,-0.2402,9.9191,-0.4974,-0.2438,9.791,-0.0284,0.0274,0.2435,0.1083,0.0606,0.0108,20.78,4.58,-50.1,278.66,1.33,2.83,48.843918,2.353316,95.2,NaN,,11.48,,0 / 20,,1595,2022-01-10 18:59:32:388
-0.5094,-0.2402,9.9191,-0.4974,-0.2438,9.791,-0.0284,0.0274,0.2435,0.1083,0.0606,0.0108,20.33,4.43,-50.4,278.9,1.42,2.91,48.843918,2.353316,95.2,NaN,,11.48,,0 / 20,,1601,2022-01-10 18:59:32:394
-0.5094,-0.2402,9.9191,-0.4974,-0.2438,9.791,-0.0284,0.0274,0.2435,0.1083,0.0606,0.0108,20.33,4.43,-50.4,278.9,1.42,2.91,48.843918,2.353316,95.2,NaN,,11.48,,0 / 20,,1607,2022-01-10 18:59:32:400
-0.5094,-0.2402,9.9191,-0.4974,-0.2438,9.791,-0.0284,0.0274,0.2435,0.1083,0.0606,0.0108,20.33,4.43,-50.4,278.9,1.42,2.91,48.843918,2.353316,95.2,NaN,,11.48,,0 / 20,,1611,2022-01-10 18:59:32:404
-0.4639,-0.1872,9.9386,-0.4974,-0.2438,9.791,-0.0284,0.0274,0.2435,0.1083,0.0606,0.0108,20.33,4.43,-50.4,278.9,1.42,2.91,48.843918,2.353316,95.2,NaN,,11.48,,0 / 20,,1616,2022-01-10 18:59:32:409
-0.4639,-0.1872,9.9386,-0.5129,-0.2083,9.791,0.0216,0.0293,0.2293,0.1083,0.0606,0.0108,20.33,4.43,-50.4,278.9,1.42,2.91,48.843918,2.353316,95.2,NaN,,11.48,,0 / 20,,1620,2022-01-10 18:59:32:413
-0.4639,-0.1872,9.9386,-0.5129,-0.2083,9.791,0.0216,0.0293,0.2293,0.2233,0.0648,-0.0425,20.33,4.43,-50.4,278.9,1.42,2.91,48.843918,2.353316,95.2,NaN,,11.48,,0 / 20,,1625,2022-01-10 18:59:32:418
-0.4639,-0.1872,9.9386,-0.5129,-0.2083,9.791,0.0216,0.0293,0.2293,0.2233,0.0648,-0.0425,20.33,4.43,-50.4,278.9,1.42,2.91,48.843918,2.353316,95.2,NaN,,11.48,,0 / 20,,1631,2022-01-10 18:59:32:424
-0.4639,-0.1872,9.9386,-0.5129,-0.2083,9.791,0.0216,0.0293,0.2293,0.2233,0.0648,-0.0425,20.33,4.43,-50.4,278.9,1.42,2.91,48.843918,2.353316,95.2,NaN,,11.48,,0 / 20,,1636,2022-01-10 18:59:32:429
-0.3849,-0.0772,10.5996,-0.5129,-0.2083,9.791,0.0216,0.0293,0.2293,0.2233,0.0648,-0.0425,20.25,4.28,-50.32,278.9,1.42,2.91,48.843918,2.353316,95.2,NaN,,11.48,,0 / 20,,1641,2022-01-10 18:59:32:434
-0.3849,-0.0772,10.5996,-0.5303,-0.1317,9.7914,0.0216,0.0293,0.2293,0.2233,0.0648,-0.0425,20.25,4.28,-50.32,278.9,1.42,2.91,48.843918,2.353316,95.2,NaN,,11.48,,0 / 20,,1646,2022-01-10 18:59:32:439
-0.3849,-0.0772,10.5996,-0.5303,-0.1317,9.7914,0.0216,0.0293,0.2293,0.2233,0.0648,-0.0425,20.25,4.28,-50.32,278.9,1.42,2.91,48.843918,2.353316,95.2,NaN,,11.48,,0 / 20,,1650,2022-01-10 18:59:32:443
-0.3849,-0.0772,10.5996,-0.5303,-0.1317,9.7914,0.1202,0.0485,1.0278,0.5098,0.1383,-0.0435,20.25,4.28,-50.32,278.9,1.42,2.91,48.843918,2.353316,95.2,NaN,,11.48,,0 / 20,,1656,2022-01-10 18:59:32:449
-0.3849,-0.0772,10.5996,-0.5303,-0.1317,9.7914,0.1202,0.0485,1.0278,0.5098,0.1383,-0.0435,20.25,4.28,-50.32,278.9,1.42,2.91,48.843918,2.353316,95.2,NaN,,11.48,,0 / 20,,1660,2022-01-10 18:59:32:453
-0.3849,-0.0772,10.5996,-0.5303,-0.1317,9.7914,0.1202,0.0485,1.0278,0.5098,0.1383,-0.0435,20.25,4.28,-50.32,278.9,1.42,2.91,48.843918,2.353316,95.2,NaN,,11.48,,0 / 20,,1665,2022-01-10 18:59:32:458
-0.5429,0.2151,11.6345,-0.5303,-0.1317,9.7914,0.1202,0.0485,1.0278,0.5098,0.1383,-0.0435,20.7,4.28,-50.18,280.28,0.77,3.1,48.843918,2.353316,95.2,NaN,,11.48,,0 / 20,,1671,2022-01-10 18:59:32:464
-0.5429,0.2151,11.6345,-0.5303,-0.1317,9.7914,0.1202,0.0485,1.0278,0.5098,0.1383,-0.0435,20.7,4.28,-50.18,280.28,0.77,3.1,48.843918,2.353316,95.2,NaN,,11.48,,0 / 20,,1675,2022-01-10 18:59:32:468
-0.5429,0.2151,11.6345,-0.5682,0.0534,9.79,0.1202,0.0485,1.0278,0.5098,0.1383,-0.0435,20.7,4.28,-50.18,280.28,0.77,3.1,48.843918,2.353316,95.2,NaN,,11.48,,0 / 20,,1680,2022-01-10 18:59:32:473
-0.5429,0.2151,11.6345,-0.5682,0.0534,9.79,-0.0574,0.2603,2.282,1.1896,0.1831,-0.035,20.7,4.28,-50.18,280.28,0.77,3.1,48.843918,2.353316,95.2,NaN,,11.48,,0 / 20,,1686,2022-01-10 18:59:32:479
-0.5429,0.2151,11.6345,-0.5682,0.0534,9.79,-0.0574,0.2603,2.282,1.1896,0.1831,-0.035,20.7,4.28,-50.18,280.28,0.77,3.1,48.843918,2.353316,95.2,NaN,,11.48,,0 / 20,,1691,2022-01-10 18:59:32:484
-0.7226,0.3541,13.5126,-0.5682,0.0534,9.79,-0.0574,0.2603,2.282,1.1896,0.1831,-0.035,20.7,4.28,-50.18,280.28,0.77,3.1,48.843918,2.353316,95.2,NaN,,11.48,,0 / 20,,1696,2022-01-10 18:59:32:489
-0.7226,0.3541,13.5126,-0.5682,0.0534,9.79,-0.0574,0.2603,2.282,1.1896,0.1831,-0.035,20.85,4.05,-49.57,280.28,0.77,3.1,48.843918,2.353316,95.2,NaN,,11.48,,0 / 20,,1701,2022-01-10 18:59:32:494
-0.7226,0.3541,13.5126,-0.6285,0.544,9.7714,-0.0574,0.2603,2.282,1.1896,0.1831,-0.035,20.85,4.05,-49.57,280.28,0.77,3.1,48.843918,2.353316,95.2,NaN,,11.48,,0 / 20,,1706,2022-01-10 18:59:32:499
-0.7226,0.3541,13.5126,-0.6285,0.544,9.7714,-0.0574,0.2603,2.282,1.1896,0.1831,-0.035,20.85,4.05,-49.57,280.28,0.77,3.1,48.843918,2.353316,95.2,NaN,,11.48,,0 / 20,,1711,2022-01-10 18:59:32:504
-0.7226,0.3541,13.5126,-0.6285,0.544,9.7714,-0.0574,0.2603,2.282,1.1896,0.1831,-0.035,20.85,4.05,-49.57,280.28,0.77,3.1,48.843918,2.353316,95.2,NaN,,11.48,,0 / 20,,1716,2022-01-10 18:59:32:509
-0.7226,0.3541,13.5126,-0.6285,0.544,9.7714,-0.1827,-0.3412,3.6824,3.1262,0.2896,0.031,20.85,4.05,-49.57,280.28,0.77,3.1,48.843918,2.353316,95.2,NaN,,11.48,,0 / 20,,1720,2022-01-10 18:59:32:513
-0.7609,0.4379,13.2586,-0.6285,0.544,9.7714,-0.1827,-0.3412,3.6824,3.1262,0.2896,0.031,20.85,4.05,-49.57,280.28,0.77,3.1,48.843918,2.353316,95.2,NaN,,11.48,,0 / 20,,1726,2022-01-10 18:59:32:519
-0.7609,0.4379,13.2586,-0.6285,0.544,9.7714,-0.1827,-0.3412,3.6824,3.1262,0.2896,0.031,21.6,2.4,-49.2,284.28,-3.18,3.68,48.843918,2.353316,95.2,NaN,,11.48,,0 / 20,,1730,2022-01-10 18:59:32:523
-0.7609,0.4379,13.2586,-0.6917,1.3754,9.6851,-0.1827,-0.3412,3.6824,3.1262,0.2896,0.031,21.6,2.4,-49.2,284.28,-3.18,3.68,48.843918,2.353316,95.2,NaN,,11.48,,0 / 20,,1737,2022-01-10 18:59:32:530
-0.7609,0.4379,13.2586,-0.6917,1.3754,9.6851,-0.1827,-0.3412,3.6824,3.1262,0.2896,0.031,21.6,2.4,-49.2,284.28,-3.18,3.68,48.843918,2.353316,95.2,NaN,,11.48,,0 / 20,,1740,2022-01-10 18:59:32:533
-0.7609,0.4379,13.2586,-0.6917,1.3754,9.6851,-0.0616,-1.1247,2.8736,3.1262,0.2896,0.031,21.6,2.4,-49.2,284.28,-3.18,3.68,48.843918,2.353316,95.2,NaN,,11.48,,0 / 20,,1747,2022-01-10 18:59:32:540
-0.7609,0.4379,13.2586,-0.6917,1.3754,9.6851,-0.0616,-1.1247,2.8736,3.1262,0.2896,0.031,21.6,2.4,-49.2,284.28,-3.18,3.68,48.843918,2.353316,95.2,NaN,,11.48,,0 / 20,,1750,2022-01-10 18:59:32:543
-0.8566,1.1973,11.953,-0.6917,1.3754,9.6851,-0.0616,-1.1247,2.8736,5.0692,0.149,0.2856,21.6,2.4,-49.2,284.28,-3.18,3.68,48.843918,2.353316,95.2,NaN,,11.48,,0 / 20,,1755,2022-01-10 18:59:32:548
-0.8566,1.1973,11.953,-0.6917,1.3754,9.6851,-0.0616,-1.1247,2.8736,5.0692,0.149,0.2856,22.13,-0.6,-49.27,284.28,-3.18,3.68,48.843918,2.353316,95.2,NaN,,11.48,,0 / 20,,1761,2022-01-10 18:59:32:554
-0.8566,1.1973,11.953,-0.7244,2.7887,9.3738,-0.0616,-1.1247,2.8736,5.0692,0.149,0.2856,22.13,-0.6,-49.27,284.28,-3.18,3.68,48.843918,2.353316,95.2,NaN,,11.48,,0 / 20,,1765,2022-01-10 18:59:32:558
-0.8566,1.1973,11.953,-0.7244,2.7887,9.3738,-0.0616,-1.1247,2.8736,5.0692,0.149,0.2856,22.13,-0.6,-49.27,284.28,-3.18,3.68,48.843918,2.353316,95.2,NaN,,11.48,,0 / 20,,1770,2022-01-10 18:59:32:563
-0.8566,1.1973,11.953,-0.7244,2.7887,9.3738,-0.0616,-1.1247,2.8736,5.0692,0.149,0.2856,22.13,-0.6,-49.27,284.28,-3.18,3.68,48.843918,2.353316,95.2,NaN,,11.48,,0 / 20,,1776,2022-01-10 18:59:32:569
-0.8279,2.4571,9.2438,-0.7244,2.7887,9.3738,0.2745,-1.6348,0.6856,5.0692,0.149,0.2856,22.13,-0.6,-49.27,284.28,-3.18,3.68,48.843918,2.353316,95.2,NaN,,11.48,,0 / 20,,1781,2022-01-10 18:59:32:574
-0.8279,2.4571,9.2438,-0.7244,2.7887,9.3738,0.2745,-1.6348,0.6856,5.2856,0.2193,0.3059,22.13,-0.6,-49.27,284.28,-3.18,3.68,48.843918,2.353316,95.2,NaN,,11.48,,0 / 20,,1787,2022-01-10 18:59:32:580
-0.8279,2.4571,9.2438,-0.7244,2.7887,9.3738,0.2745,-1.6348,0.6856,5.2856,0.2193,0.3059,22.35,-5.02,-48.9,297.82,-16.52,4.42,48.843918,2.353316,95.2,NaN,,11.48,,0 / 20,,1790,2022-01-10 18:59:32:583
-0.8279,2.4571,9.2438,-0.7574,4.2604,8.8003,0.2745,-1.6348,0.6856,5.2856,0.2193,0.3059,22.35,-5.02,-48.9,297.82,-16.52,4.42,48.843918,2.353316,95.2,NaN,,11.48,,0 / 20,,1797,2022-01-10 18:59:32:590
-0.8279,2.4571,9.2438,-0.7574,4.2604,8.8003,0.2745,-1.6348,0.6856,5.2856,0.2193,0.3059,22.35,-5.02,-48.9,297.82,-16.52,4.42,48.843918,2.353316,95.2,NaN,,11.48,,0 / 20,,1801,2022-01-10 18:59:32:594
-0.6269,4.2108,7.4351,-0.7574,4.2604,8.8003,0.2745,-1.6348,0.6856,5.2856,0.2193,0.3059,22.35,-5.02,-48.9,297.82,-16.52,4.42,48.843918,2.353316,95.2,NaN,,11.48,,0 / 20,,1807,2022-01-10 18:59:32:600
-0.6269,4.2108,7.4351,-0.7574,4.2604,8.8003,-0.1661,-1.1524,-0.6294,5.2856,0.2193,0.3059,22.35,-5.02,-48.9,297.82,-16.52,4.42,48.843918,2.353316,95.2,NaN,,11.48,,0 / 20,,1811,2022-01-10 18:59:32:604
-0.6269,4.2108,7.4351,-0.7574,4.2604,8.8003,-0.1661,-1.1524,-0.6294,5.2856,0.2193,0.3059,22.35,-5.02,-48.9,297.82,-16.52,4.42,48.843918,2.353316,95.2,NaN,,11.48,,0 / 20,,1815,2022-01-10 18:59:32:608
-0.6269,4.2108,7.4351,-0.7574,4.2604,8.8003,-0.1661,-1.1524,-0.6294,4.2852,0.133,0.2995,22.35,-5.02,-48.9,297.82,-16.52,4.42,48.843918,2.353316,95.2,NaN,,11.48,,0 / 20,,1821,2022-01-10 18:59:32:614
-0.6269,4.2108,7.4351,-0.7329,5.4513,8.1189,-0.1661,-1.1524,-0.6294,4.2852,0.133,0.2995,22.35,-5.02,-48.9,297.82,-16.52,4.42,48.843918,2.353316,95.2,NaN,,11.48,,0 / 20,,1825,2022-01-10 18:59:32:618
-0.6269,4.2108,7.4351,-0.7329,5.4513,8.1189,-0.1661,-1.1524,-0.6294,4.2852,0.133,0.2995,22.43,-12.15,-46.27,297.82,-16.52,4.42,48.843918,2.353316,95.2,NaN,,11.48,,0 / 20,,1831,2022-01-10 18:59:32:624
-0.5166,4.9822,5.653,-0.7329,5.4513,8.1189,-0.1661,-1.1524,-0.6294,4.2852,0.133,0.2995,22.43,-12.15,-46.27,297.82,-16.52,4.42,48.843918,2.353316,95.2,NaN,,11.48,,0 / 20,,1835,2022-01-10 18:59:32:628
-0.5166,4.9822,5.653,-0.7329,5.4513,8.1189,0.2488,-1.0547,-2.1936,4.2852,0.133,0.2995,22.43,-12.15,-46.27,297.82,-16.52,4.42,48.843918,2.353316,95.2,NaN,,11.48,,0 / 20,,1841,2022-01-10 18:59:32:634
-0.5166,4.9822,5.653,-0.7329,5.4513,8.1189,0.2488,-1.0547,-2.1936,4.2852,0.133,0.2995,22.43,-12.15,-46.27,297.82,-16.52,4.42,48.843918,2.353316,95.2,NaN,,11.48,,0 / 20,,1846,2022-01-10 18:59:32:639
-0.5166,4.9822,5.653,-0.7329,5.4513,8.1189,0.2488,-1.0547,-2.1936,4.2852,0.133,0.2995,22.43,-12.15,-46.27,297.82,-16.52,4.42,48.843918,2.353316,95.2,NaN,,11.48,,0 / 20,,1850,2022-01-10 18:59:32:643
-0.5166,4.9822,5.653,-0.7548,6.1686,7.5861,0.2488,-1.0547,-2.1936,3.0665,0.2853,0.1397,22.43,-12.15,-46.27,297.82,-16.52,4.42,48.843918,2.353316,95.2,NaN,,11.48,,0 / 20,,1855,2022-01-10 18:59:32:648
-0.8447,5.648,6.58,-0.7548,6.1686,7.5861,0.2488,-1.0547,-2.1936,3.0665,0.2853,0.1397,22.95,-17.18,-40.57,306.4,-38.98,5.68,48.843918,2.353316,95.2,NaN,,11.48,,0 / 20,,1861,2022-01-10 18:59:32:654
-0.8447,5.648,6.58,-0.7548,6.1686,7.5861,0.2488,-1.0547,-2.1936,3.0665,0.2853,0.1397,22.95,-17.18,-40.57,306.4,-38.98,5.68,48.843918,2.353316,95.2,NaN,,11.48,,0 / 20,,1866,2022-01-10 18:59:32:659
-0.8447,5.648,6.58,-0.7548,6.1686,7.5861,-0.1628,-0.9242,-0.6434,3.0665,0.2853,0.1397,22.95,-17.18,-40.57,306.4,-38.98,5.68,48.843918,2.353316,95.2,NaN,,11.48,,0 / 20,,1871,2022-01-10 18:59:32:664
-0.8447,5.648,6.58,-0.7548,6.1686,7.5861,-0.1628,-0.9242,-0.6434,3.0665,0.2853,0.1397,22.95,-17.18,-40.57,306.4,-38.98,5.68,48.843918,2.353316,95.2,NaN,,11.48,,0 / 20,,1877,2022-01-10 18:59:32:670
-0.8447,5.648,6.58,-0.7816,6.7992,7.0235,-0.1628,-0.9242,-0.6434,3.0665,0.2853,0.1397,22.95,-17.18,-40.57,306.4,-38.98,5.68,48.843918,2.353316,95.2,NaN,,11.48,,0 / 20,,1880,2022-01-10 18:59:32:673
-0.8447,5.648,6.58,-0.7816,6.7992,7.0235,-0.1628,-0.9242,-0.6434,2.7129,-0.0555,0.1045,22.95,-17.18,-40.57,306.4,-38.98,5.68,48.843918,2.353316,95.2,NaN,,11.48,,0 / 20,,1886,2022-01-10 18:59:32:679
-1.1755,6.4816,6.5967,-0.7816,6.7992,7.0235,-0.1628,-0.9242,-0.6434,2.7129,-0.0555,0.1045,22.95,-17.18,-40.57,306.4,-38.98,5.68,48.843918,2.353316,95.2,NaN,,11.48,,0 / 20,,1890,2022-01-10 18:59:32:683
-1.1755,6.4816,6.5967,-0.7816,6.7992,7.0235,-0.1628,-0.9242,-0.6434,2.7129,-0.0555,0.1045,22.95,-17.18,-40.57,306.4,-38.98,5.68,48.843918,2.353316,95.2,NaN,,11.48,,0 / 20,,1895,2022-01-10 18:59:32:688
-1.1755,6.4816,6.5967,-0.7816,6.7992,7.0235,-0.3179,-0.854,-0.2392,2.7129,-0.0555,0.1045,23.7,-21.45,-37.43,306.4,-38.98,5.68,48.843918,2.353316,95.2,NaN,,11.48,,0 / 20,,1901,2022-01-10 18:59:32:694
-1.1755,6.4816,6.5967,-0.7816,6.7992,7.0235,-0.3179,-0.854,-0.2392,2.7129,-0.0555,0.1045,23.7,-21.45,-37.43,306.4,-38.98,5.68,48.843918,2.353316,95.2,NaN,,11.48,,0 / 20,,1906,2022-01-10 18:59:32:699
-1.1755,6.4816,6.5967,-0.6907,7.3709,6.4314,-0.3179,-0.854,-0.2392,2.7129,-0.0555,0.1045,23.7,-21.45,-37.43,306.4,-38.98,5.68,48.843918,2.353316,95.2,NaN,,11.48,,0 / 20,,1910,2022-01-10 18:59:32:703
-0.9861,6.2492,5.8038,-0.6907,7.3709,6.4314,-0.3179,-0.854,-0.2392,2.7129,-0.0555,0.1045,23.7,-21.45,-37.43,306.4,-38.98,5.68,48.843918,2.353316,95.2,NaN,,11.48,,0 / 20,,1917,2022-01-10 18:59:32:710
-0.9861,6.2492,5.8038,-0.6907,7.3709,6.4314,-0.3179,-0.854,-0.2392,2.9302,-0.7202,0.1802,23.7,-21.45,-37.43,306.4,-38.98,5.68,48.843918,2.353316,95.2,NaN,,11.48,,0 / 20,,1921,2022-01-10 18:59:32:714
-0.9861,6.2492,5.8038,-0.6907,7.3709,6.4314,-0.3179,-0.854,-0.2392,2.9302,-0.7202,0.1802,23.7,-21.45,-37.43,306.4,-38.98,5.68,48.843918,2.353316,95.2,NaN,,11.48,,0 / 20,,1926,2022-01-10 18:59:32:719
-0.9861,6.2492,5.8038,-0.6907,7.3709,6.4314,-0.2288,-1.5024,-0.8781,2.9302,-0.7202,0.1802,23.7,-21.45,-37.43,306.4,-38.98,5.68,48.843918,2.353316,95.2,NaN,,11.48,,0 / 20,,1930,2022-01-10 18:59:32:723
-0.9861,6.2492,5.8038,-0.6907,7.3709,6.4314,-0.2288,-1.5024,-0.8781,2.9302,-0.7202,0.1802,23.7,-21.45,-37.43,306.4,-38.98,5.68,48.843918,2.353316,95.2,NaN,,11.48,,0 / 20,,1937,2022-01-10 18:59:32:730
-0.5883,6.7666,4.8745,-0.5246,7.9155,5.7655,-0.2288,-1.5024,-0.8781,2.9302,-0.7202,0.1802,23.48,-24.07,-34.5,300.7,-48.73,6.13,48.843918,2.353316,95.2,NaN,,11.48,,0 / 20,,1940,2022-01-10 18:59:32:733
-0.5883,6.7666,4.8745,-0.5246,7.9155,5.7655,-0.2288,-1.5024,-0.8781,2.9302,-0.7202,0.1802,23.48,-24.07,-34.5,300.7,-48.73,6.13,48.843918,2.353316,95.2,NaN,,11.48,,0 / 20,,1946,2022-01-10 18:59:32:739
-0.5883,6.7666,4.8745,-0.5246,7.9155,5.7655,-0.2288,-1.5024,-0.8781,2.9302,-0.7202,0.1802,23.48,-24.07,-34.5,300.7,-48.73,6.13,48.843918,2.353316,95.2,NaN,,11.48,,0 / 20,,1950,2022-01-10 18:59:32:743
-0.5883,6.7666,4.8745,-0.5246,7.9155,5.7655,-0.2288,-1.5024,-0.8781,2.8247,-0.7298,0.0534,23.48,-24.07,-34.5,300.7,-48.73,6.13,48.843918,2.353316,95.2,NaN,,11.48,,0 / 20,,1956,2022-01-10 18:59:32:749
-0.5883,6.7666,4.8745,-0.5246,7.9155,5.7655,-0.1644,-1.3014,-0.6363,2.8247,-0.7298,0.0534,23.48,-24.07,-34.5,300.7,-48.73,6.13,48.843918,2.353316,95.2,NaN,,11.48,,0 / 20,,1961,2022-01-10 18:59:32:754
-0.5883,6.7666,4.8745,-0.5246,7.9155,5.7655,-0.1644,-1.3014,-0.6363,2.8247,-0.7298,0.0534,23.48,-24.07,-34.5,300.7,-48.73,6.13,48.843918,2.353316,95.2,NaN,,11.48,,0 / 20,,1966,2022-01-10 18:59:32:759
-0.4161,7.1764,4.4791,-0.4207,8.3064,5.1959,-0.1644,-1.3014,-0.6363,2.8247,-0.7298,0.0534,22.73,-26.25,-32.03,300.7,-48.73,6.13,48.843918,2.353316,95.2,NaN,,11.48,,0 / 20,,1971,2022-01-10 18:59:32:764
-0.4161,7.1764,4.4791,-0.4207,8.3064,5.1959,-0.1644,-1.3014,-0.6363,2.8247,-0.7298,0.0534,22.73,-26.25,-32.03,300.7,-48.73,6.13,48.843918,2.353316,95.2,NaN,,11.48,,0 / 20,,1976,2022-01-10 18:59:32:769
-0.4161,7.1764,4.4791,-0.4207,8.3064,5.1959,-0.1644,-1.3014,-0.6363,2.8247,-0.7298,0.0534,22.73,-26.25,-32.03,300.7,-48.73,6.13,48.843918,2.353316,95.2,NaN,,11.48,,0 / 20,,1981,2022-01-10 18:59:32:774
-0.4161,7.1764,4.4791,-0.4207,8.3064,5.1959,-0.1644,-1.3014,-0.6363,2.4199,-0.4667,0.0385,22.73,-26.25,-32.03,300.7,-48.73,6.13,48.843918,2.353316,95.2,NaN,,11.48,,0 / 20,,1985,2022-01-10 18:59:32:778
-0.4161,7.1764,4.4791,-0.4207,8.3064,5.1959,-0.1644,-1.3014,-0.6363,2.4199,-0.4667,0.0385,22.73,-26.25,-32.03,300.7,-48.73,6.13,48.843918,2.353316,95.2,NaN,,11.48,,0 / 20,,1990,2022-01-10 18:59:32:783
-0.6461,8.1272,3.248,-0.3421,8.6737,4.5628,-0.3849,-0.7922,-0.9445,2.4199,-0.4667,0.0385,22.73,-26.25,-32.03,300.7,-48.73,6.13,48.843918,2.353316,95.2,NaN,,11.48,,0 / 20,,1996,2022-01-10 18:59:32:789
-0.6461,8.1272,3.248,-0.3421,8.6737,4.5628,-0.3849,-0.7922,-0.9445,2.4199,-0.4667,0.0385,22.65,-28.42,-29.92,305.79,-62.19,4.29,48.843918,2.353316,95.2,NaN,,11.48,,0 / 20,,2001,2022-01-10 18:59:32:794
-0.6461,8.1272,3.248,-0.3421,8.6737,4.5628,-0.3849,-0.7922,-0.9445,2.4199,-0.4667,0.0385,22.65,-28.42,-29.92,305.79,-62.19,4.29,48.843918,2.353316,95.2,NaN,,11.48,,0 / 20,,2006,2022-01-10 18:59:32:799
-0.6461,8.1272,3.248,-0.3421,8.6737,4.5628,-0.3849,-0.7922,-0.9445,2.4199,-0.4667,0.0385,22.65,-28.42,-29.92,305.79,-62.19,4.29,48.843918,2.353316,95.2,NaN,,11.48,,0 / 20,,2011,2022-01-10 18:59:32:804
-0.6461,8.1272,3.248,-0.3421,8.6737,4.5628,-0.3849,-0.7922,-0.9445,1.4761,-0.4369,0.0736,22.65,-28.42,-29.92,305.79,-62.19,4.29,48.843918,2.353316,95.2,NaN,,11.48,,0 / 20,,2016,2022-01-10 18:59:32:809
-0.186,8.0913,2.8525,-0.2717,8.8652,4.184,0.1374,-0.8263,-1.5372,1.4761,-0.4369,0.0736,22.65,-28.42,-29.92,305.79,-62.19,4.29,48.843918,2.353316,95.2,NaN,,11.48,,0 / 20,,2022,2022-01-10 18:59:32:815
-0.186,8.0913,2.8525,-0.2717,8.8652,4.184,0.1374,-0.8263,-1.5372,1.4761,-0.4369,0.0736,22.65,-28.42,-29.92,305.79,-62.19,4.29,48.843918,2.353316,95.2,NaN,,11.48,,0 / 20,,2026,2022-01-10 18:59:32:819
-0.186,8.0913,2.8525,-0.2717,8.8652,4.184,0.1374,-0.8263,-1.5372,1.4761,-0.4369,0.0736,22.65,-28.42,-29.92,305.79,-62.19,4.29,48.843918,2.353316,95.2,NaN,,11.48,,0 / 20,,2032,2022-01-10 18:59:32:825
-0.186,8.0913,2.8525,-0.2717,8.8652,4.184,0.1374,-0.8263,-1.5372,1.4761,-0.4369,0.0736,22.65,-28.42,-29.92,305.79,-62.19,4.29,48.843918,2.353316,95.2,NaN,,11.48,,0 / 20,,2036,2022-01-10 18:59:32:829
-0.186,8.0913,2.8525,-0.2717,8.8652,4.184,0.1374,-0.8263,-1.5372,1.4761,-0.4369,0.0736,22.35,-30.67,-27.38,305.79,-62.19,4.29,48.843918,2.353316,95.2,NaN,,11.48,,0 / 20,,2041,2022-01-10 18:59:32:834
-0.186,8.0913,2.8525,-0.2717,8.8652,4.184,0.1374,-0.8263,-1.5372,0.7763,-0.3857,-0.0276,22.35,-30.67,-27.38,305.79,-62.19,4.29,48.843918,2.353316,95.2,NaN,,11.48,,0 / 20,,2045,2022-01-10 18:59:32:838
-0.186,8.0913,2.8525,-0.2717,8.8652,4.184,0.1374,-0.8263,-1.5372,0.7763,-0.3857,-0.0276,22.35,-30.67,-27.38,305.79,-62.19,4.29,48.843918,2.353316,95.2,NaN,,11.48,,0 / 20,,2051,2022-01-10 18:59:32:844
-0.2578,8.4772,3.2312,-0.2256,8.9842,3.9248,-0.037,-0.6451,-0.7611,0.7763,-0.3857,-0.0276,22.35,-30.67,-27.38,305.79,-62.19,4.29,48.843918,2.353316,95.2,NaN,,11.48,,0 / 20,,2056,2022-01-10 18:59:32:849
-0.2578,8.4772,3.2312,-0.2256,8.9842,3.9248,-0.037,-0.6451,-0.7611,0.7763,-0.3857,-0.0276,22.35,-30.67,-27.38,305.79,-62.19,4.29,48.843918,2.353316,95.2,NaN,,11.48,,0 / 20,,2060,2022-01-10 18:59:32:853
-0.2578,8.4772,3.2312,-0.2256,8.9842,3.9248,-0.037,-0.6451,-0.7611,0.7763,-0.3857,-0.0276,22.35,-30.67,-27.38,305.79,-62.19,4.29,48.843918,2.353316,95.2,NaN,,11.48,,0 / 20,,2066,2022-01-10 18:59:32:859
-0.2578,8.4772,3.2312,-0.2256,8.9842,3.9248,-0.037,-0.6451,-0.7611,0.7763,-0.3857,-0.0276,22.05,-31.42,-26.1,301.43,-66.37,3.29,48.843918,2.353316,95.2,NaN,,11.48,,0 / 20,,2071,2022-01-10 18:59:32:864
-0.2578,8.4772,3.2312,-0.2256,8.9842,3.9248,-0.037,-0.6451,-0.7611,0.3756,-0.3005,0.0065,22.05,-31.42,-26.1,301.43,-66.37,3.29,48.843918,2.353316,95.2,NaN,,11.48,,0 / 20,,2075,2022-01-10 18:59:32:868
-0.2578,8.4772,3.2312,-0.2256,8.9842,3.9248,-0.037,-0.6451,-0.7611,0.3756,-0.3005,0.0065,22.05,-31.42,-26.1,301.43,-66.37,3.29,48.843918,2.353316,95.2,NaN,,11.48,,0 / 20,,2081,2022-01-10 18:59:32:874
0.0081,8.7215,3.0682,-0.1853,9.0437,3.7879,0.1428,-0.3391,-0.7535,0.3756,-0.3005,0.0065,22.05,-31.42,-26.1,301.43,-66.37,3.29,48.843918,2.353316,95.2,NaN,,11.48,,0 / 20,,2085,2022-01-10 18:59:32:878
0.0081,8.7215,3.0682,-0.1853,9.0437,3.7879,0.1428,-0.3391,-0.7535,0.3756,-0.3005,0.0065,22.05,-31.42,-26.1,301.43,-66.37,3.29,48.843918,2.353316,95.2,NaN,,11.48,,0 / 20,,2091,2022-01-10 18:59:32:884
0.0081,8.7215,3.0682,-0.1853,9.0437,3.7879,0.1428,-0.3391,-0.7535,0.3756,-0.3005,0.0065,22.05,-31.42,-26.1,301.43,-66.37,3.29,48.843918,2.353316,95.2,NaN,,11.48,,0 / 20,,2096,2022-01-10 18:59:32:889
0.0081,8.7215,3.0682,-0.1853,9.0437,3.7879,0.1428,-0.3391,-0.7535,0.3756,-0.3005,0.0065,22.05,-31.42,-26.1,301.43,-66.37,3.29,48.843918,2.353316,95.2,NaN,,11.48,,0 / 20,,2100,2022-01-10 18:59:32:893
0.0081,8.7215,3.0682,-0.1853,9.0437,3.7879,0.1428,-0.3391,-0.7535,0.1242,-0.0566,-0.1502,21.45,-32.03,-25.13,301.43,-66.37,3.29,48.843918,2.353316,95.2,NaN,,11.48,,0 / 20,,2106,2022-01-10 18:59:32:899
-0.0278,8.9106,3.6191,-0.1853,9.0437,3.7879,0.1428,-0.3391,-0.7535,0.1242,-0.0566,-0.1502,21.45,-32.03,-25.13,301.43,-66.37,3.29,48.843918,2.353316,95.2,NaN,,11.48,,0 / 20,,2111,2022-01-10 18:59:32:904
-0.0278,8.9106,3.6191,-0.1967,9.0636,3.7393,0.195,-0.2362,-0.1619,0.1242,-0.0566,-0.1502,21.45,-32.03,-25.13,301.43,-66.37,3.29,48.843918,2.353316,95.2,NaN,,11.48,,0 / 20,,2117,2022-01-10 18:59:32:910
-0.0278,8.9106,3.6191,-0.1967,9.0636,3.7393,0.195,-0.2362,-0.1619,0.1242,-0.0566,-0.1502,21.45,-32.03,-25.13,301.43,-66.37,3.29,48.843918,2.353316,95.2,NaN,,11.48,,0 / 20,,2120,2022-01-10 18:59:32:913
-0.0278,8.9106,3.6191,-0.1967,9.0636,3.7393,0.195,-0.2362,-0.1619,0.1242,-0.0566,-0.1502,21.45,-32.03,-25.13,301.43,-66.37,3.29,48.843918,2.353316,95.2,NaN,,11.48,,0 / 20,,2126,2022-01-10 18:59:32:919
-0.0278,8.9106,3.6191,-0.1967,9.0636,3.7393,0.195,-0.2362,-0.1619,0.1242,-0.0566,-0.1502,21.45,-32.03,-25.13,301.43,-66.37,3.29,48.843918,2.353316,95.2,NaN,,11.48,,0 / 20,,2130,2022-01-10 18:59:32:923
-0.0278,8.9106,3.6191,-0.1967,9.0636,3.7393,0.195,-0.2362,-0.1619,0.2244,0.0638,-0.1694,21.45,-32.03,-25.13,301.43,-66.37,3.29,48.843918,2.353316,95.2,NaN,,11.48,,0 / 20,,2136,2022-01-10 18:59:32:929
-0.2626,8.9946,3.7319,-0.1967,9.0636,3.7393,0.195,-0.2362,-0.1619,0.2244,0.0638,-0.1694,20.78,-32.03,-24.6,301.14,-67.55,3.01,48.843918,2.353316,95.2,NaN,,11.48,,0 / 20,,2141,2022-01-10 18:59:32:934
-0.2626,8.9946,3.7319,-0.2489,9.0839,3.6865,0.0054,-0.1455,0.0173,0.2244,0.0638,-0.1694,20.78,-32.03,-24.6,301.14,-67.55,3.01,48.843918,2.353316,95.2,NaN,,11.48,,0 / 20,,2146,2022-01-10 18:59:32:939
-0.2626,8.9946,3.7319,-0.2489,9.0839,3.6865,0.0054,-0.1455,0.0173,0.2244,0.0638,-0.1694,20.78,-32.03,-24.6,301.14,-67.55,3.01,48.843918,2.353316,95.2,NaN,,11.48,,0 / 20,,2150,2022-01-10 18:59:32:943
-0.2626,8.9946,3.7319,-0.2489,9.0839,3.6865,0.0054,-0.1455,0.0173,0.2244,0.0638,-0.1694,20.78,-32.03,-24.6,301.14,-67.55,3.01,48.843918,2.353316,95.2,NaN,,11.48,,0 / 20,,2156,2022-01-10 18:59:32:949
-0.2626,8.9946,3.7319,-0.2489,9.0839,3.6865,0.0054,-0.1455,0.0173,0.2244,0.0638,-0.1694,20.78,-32.03,-24.6,301.14,-67.55,3.01,48.843918,2.353316,95.2,NaN,,11.48,,0 / 20,,2160,2022-01-10 18:59:32:953
-0.2626,8.9946,3.7319,-0.2489,9.0839,3.6865,0.0054,-0.1455,0.0173,0.2244,0.0638,-0.1694,20.78,-32.03,-24.6,301.14,-67.55,3.01,48.843918,2.353316,95.2,NaN,,11.48,,0 / 20,,2165,2022-01-10 18:59:32:958
-0.265,9.1621,3.8276,-0.2489,9.0839,3.6865,0.0054,-0.1455,0.0173,0.3735,0.0957,-0.0937,21.15,-32.03,-24.6,301.14,-67.55,3.01,48.843918,2.353316,95.2,NaN,,11.48,,0 / 20,,2171,2022-01-10 18:59:32:964
-0.265,9.1621,3.8276,-0.2867,9.1204,3.5926,0.0399,0.0118,0.2075,0.3735,0.0957,-0.0937,21.15,-32.03,-24.6,301.14,-67.55,3.01,48.843918,2.353316,95.2,NaN,,11.48,,0 / 20,,2175,2022-01-10 18:59:32:968
-0.265,9.1621,3.8276,-0.2867,9.1204,3.5926,0.0399,0.0118,0.2075,0.3735,0.0957,-0.0937,21.15,-32.03,-24.6,301.14,-67.55,3.01,48.843918,2.353316,95.2,NaN,,11.48,,0 / 20,,2180,2022-01-10 18:59:32:973
-0.265,9.1621,3.8276,-0.2867,9.1204,3.5926,0.0399,0.0118,0.2075,0.3735,0.0957,-0.0937,21.15,-32.03,-24.6,301.14,-67.55,3.01,48.843918,2.353316,95.2,NaN,,11.48,,0 / 20,,2186,2022-01-10 18:59:32:979
-0.265,9.1621,3.8276,-0.2867,9.1204,3.5926,0.0399,0.0118,0.2075,0.3735,0.0957,-0.0937,21.15,-32.03,-24.6,301.14,-67.55,3.01,48.843918,2.353316,95.2,NaN,,11.48,,0 / 20,,2191,2022-01-10 18:59:32:984
-0.4089,9.1669,3.2432,-0.2867,9.1204,3.5926,0.0399,0.0118,0.2075,0.3735,0.0957,-0.0937,21.15,-32.03,-24.6,301.14,-67.55,3.01,48.843918,2.353316,95.2,NaN,,11.48,,0 / 20,,2196,2022-01-10 18:59:32:989
-0.4089,9.1669,3.2432,-0.2867,9.1204,3.5926,0.0399,0.0118,0.2075,0.4118,0.1991,-0.0746,21.68,-31.95,-23.85,301.18,-68.44,4.56,48.843918,2.353316,95.2,NaN,,11.48,,0 / 20,,2201,2022-01-10 18:59:32:994
-0.4089,9.1669,3.2432,-0.3314,9.1639,3.476,-0.0842,-0.0606,-0.2766,0.4118,0.1991,-0.0746,21.68,-31.95,-23.85,301.18,-68.44,4.56,48.843918,2.353316,95.2,NaN,,11.48,,0 / 20,,2205,2022-01-10 18:59:32:998
-0.4089,9.1669,3.2432,-0.3314,9.1639,3.476,-0.0842,-0.0606,-0.2766,0.4118,0.1991,-0.0746,21.68,-31.95,-23.85,301.18,-68.44,4.56,48.843918,2.353316,95.2,NaN,,11.48,,0 / 20,,2212,2022-01-10 18:59:33:005
-0.4089,9.1669,3.2432,-0.3314,9.1639,3.476,-0.0842,-0.0606,-0.2766,0.4118,0.1991,-0.0746,21.68,-31.95,-23.85,301.18,-68.44,4.56,48.843918,2.353316,95.2,NaN,,11.48,,0 / 20,,2215,2022-01-10 18:59:33:008
-0.3873,9.1167,2.9653,-0.3314,9.1639,3.476,-0.0842,-0.0606,-0.2766,0.4118,0.1991,-0.0746,21.68,-31.95,-23.85,301.18,-68.44,4.56,48.843918,2.353316,95.2,NaN,,11.48,,0 / 20,,2222,2022-01-10 18:59:33:015
-0.3873,9.1167,2.9653,-0.3314,9.1639,3.476,-0.0842,-0.0606,-0.2766,0.4118,0.1991,-0.0746,21.68,-31.95,-23.85,301.18,-68.44,4.56,48.843918,2.353316,95.2,NaN,,11.48,,0 / 20,,2225,2022-01-10 18:59:33:018
-0.3873,9.1167,2.9653,-0.3575,9.1938,3.3936,-0.0842,-0.0606,-0.2766,0.4118,0.1991,-0.0746,21.68,-31.95,-23.85,301.18,-68.44,4.56,48.843918,2.353316,95.2,NaN,,11.48,,0 / 20,,2232,2022-01-10 18:59:33:025
-0.3873,9.1167,2.9653,-0.3575,9.1938,3.3936,-0.0842,-0.0606,-0.2766,0.2286,0.0329,-0.0361,21.68,-31.95,-23.85,301.18,-68.44,4.56,48.843918,2.353316,95.2,NaN,,11.48,,0 / 20,,2235,2022-01-10 18:59:33:028
-0.3873,9.1167,2.9653,-0.3575,9.1938,3.3936,-0.1271,-0.0845,-0.353,0.2286,0.0329,-0.0361,21.83,-32.32,-22.57,301.18,-68.44,4.56,48.843918,2.353316,95.2,NaN,,11.48,,0 / 20,,2241,2022-01-10 18:59:33:034
-0.3873,9.1167,2.9653,-0.3575,9.1938,3.3936,-0.1271,-0.0845,-0.353,0.2286,0.0329,-0.0361,21.83,-32.32,-22.57,301.18,-68.44,4.56,48.843918,2.353316,95.2,NaN,,11.48,,0 / 20,,2246,2022-01-10 18:59:33:039
-0.3873,9.1167,2.9653,-0.3575,9.1938,3.3936,-0.1271,-0.0845,-0.353,0.2286,0.0329,-0.0361,21.83,-32.32,-22.57,301.18,-68.44,4.56,48.843918,2.353316,95.2,NaN,,11.48,,0 / 20,,2251,2022-01-10 18:59:33:044
-0.3514,9.2821,3.2671,-0.3575,9.1938,3.3936,-0.1271,-0.0845,-0.353,0.2286,0.0329,-0.0361,21.83,-32.32,-22.57,301.18,-68.44,4.56,48.843918,2.353316,95.2,NaN,,11.48,,0 / 20,,2256,2022-01-10 18:59:33:049
-0.3514,9.2821,3.2671,-0.3587,9.2114,3.3455,-0.1271,-0.0845,-0.353,0.2286,0.0329,-0.0361,21.83,-32.32,-22.57,301.18,-68.44,4.56,48.843918,2.353316,95.2,NaN,,11.48,,0 / 20,,2261,2022-01-10 18:59:33:054
-0.3514,9.2821,3.2671,-0.3587,9.2114,3.3455,-0.1271,-0.0845,-0.353,0.2286,0.0329,-0.0361,21.83,-32.32,-22.57,301.18,-68.44,4.56,48.843918,2.353316,95.2,NaN,,11.48,,0 / 20,,2265,2022-01-10 18:59:33:058
-0.3514,9.2821,3.2671,-0.3587,9.2114,3.3455,-0.0143,0.0259,-0.064,0.1061,-0.0768,-0.0222,21.68,-32.32,-22.5,301.08,-69.93,6.12,48.843918,2.353316,95.2,NaN,,11.48,,0 / 20,,2271,2022-01-10 18:59:33:064
-0.3514,9.2821,3.2671,-0.3587,9.2114,3.3455,-0.0143,0.0259,-0.064,0.1061,-0.0768,-0.0222,21.68,-32.32,-22.5,301.08,-69.93,6.12,48.843918,2.353316,95.2,NaN,,11.48,,0 / 20,,2276,2022-01-10 18:59:33:069
-0.3826,9.0162,3.0514,-0.3587,9.2114,3.3455,-0.0143,0.0259,-0.064,0.1061,-0.0768,-0.0222,21.68,-32.32,-22.5,301.08,-69.93,6.12,48.843918,2.353316,95.2,NaN,,11.48,,0 / 20,,2281,2022-01-10 18:59:33:074
-0.3826,9.0162,3.0514,-0.3587,9.2114,3.3455,-0.0143,0.0259,-0.064,0.1061,-0.0768,-0.0222,21.68,-32.32,-22.5,301.08,-69.93,6.12,48.843918,2.353316,95.2,NaN,,11.48,,0 / 20,,2285,2022-01-10 18:59:33:078
-0.3826,9.0162,3.0514,-0.3618,9.2204,3.3202,-0.0143,0.0259,-0.064,0.1061,-0.0768,-0.0222,21.68,-32.32,-22.5,301.08,-69.93,6.12,48.843918,2.353316,95.2,NaN,,11.48,,0 / 20,,2290,2022-01-10 18:59:33:083
-0.3826,9.0162,3.0514,-0.3618,9.2204,3.3202,-0.0143,0.0259,-0.064,0.1061,-0.0768,-0.0222,21.68,-32.32,-22.5,301.08,-69.93,6.12,48.843918,2.353316,95.2,NaN,,11.48,,0 / 20,,2296,2022-01-10 18:59:33:089
-0.3826,9.0162,3.0514,-0.3618,9.2204,3.3202,-0.0143,0.0259,-0.064,0.0188,-1.0E-4,-9.0E-4,21.38,-32.4,-22.57,301.08,-69.93,6.12,48.843918,2.353316,95.2,NaN,,11.48,,0 / 20,,2301,2022-01-10 18:59:33:094
-0.3826,9.0162,3.0514,-0.3618,9.2204,3.3202,-0.1114,-0.3083,-0.2432,0.0188,-1.0E-4,-9.0E-4,21.38,-32.4,-22.57,301.08,-69.93,6.12,48.843918,2.353316,95.2,NaN,,11.48,,0 / 20,,2306,2022-01-10 18:59:33:099
-0.3562,9.0592,3.0873,-0.3618,9.2204,3.3202,-0.1114,-0.3083,-0.2432,0.0188,-1.0E-4,-9.0E-4,21.38,-32.4,-22.57,301.08,-69.93,6.12,48.843918,2.353316,95.2,NaN,,11.48,,0 / 20,,2311,2022-01-10 18:59:33:104
-0.3562,9.0592,3.0873,-0.3618,9.2204,3.3202,-0.1114,-0.3083,-0.2432,0.0188,-1.0E-4,-9.0E-4,21.38,-32.4,-22.57,301.08,-69.93,6.12,48.843918,2.353316,95.2,NaN,,11.48,,0 / 20,,2316,2022-01-10 18:59:33:109
-0.3562,9.0592,3.0873,-0.3628,9.2219,3.3158,-0.1114,-0.3083,-0.2432,0.0188,-1.0E-4,-9.0E-4,21.38,-32.4,-22.57,301.08,-69.93,6.12,48.843918,2.353316,95.2,NaN,,11.48,,0 / 20,,2321,2022-01-10 18:59:33:114
-0.3562,9.0592,3.0873,-0.3628,9.2219,3.3158,-0.1114,-0.3083,-0.2432,0.0188,-1.0E-4,-9.0E-4,21.38,-32.4,-22.57,301.08,-69.93,6.12,48.843918,2.353316,95.2,NaN,,11.48,,0 / 20,,2326,2022-01-10 18:59:33:119
-0.3562,9.0592,3.0873,-0.3628,9.2219,3.3158,-0.1114,-0.3083,-0.2432,0.0188,-1.0E-4,-9.0E-4,21.38,-32.4,-22.57,301.08,-69.93,6.12,48.843918,2.353316,95.2,NaN,,11.48,,0 / 20,,2330,2022-01-10 18:59:33:123
-0.3392,9.0999,2.9581,-0.3628,9.2219,3.3158,0.0279,-0.113,-0.2662,-0.0654,0.0116,-0.0158,21.38,-32.4,-22.57,301.08,-69.93,6.12,48.843918,2.353316,95.2,NaN,,11.48,,0 / 20,,2336,2022-01-10 18:59:33:129
-0.3392,9.0999,2.9581,-0.3628,9.2219,3.3158,0.0279,-0.113,-0.2662,-0.0654,0.0116,-0.0158,21.75,-32.78,-22.8,302.89,-70.11,6.24,48.843918,2.353316,95.2,NaN,,11.48,,0 / 20,,2341,2022-01-10 18:59:33:134
-0.3392,9.0999,2.9581,-0.3628,9.2219,3.3158,0.0279,-0.113,-0.2662,-0.0654,0.0116,-0.0158,21.75,-32.78,-22.8,302.89,-70.11,6.24,48.843918,2.353316,95.2,NaN,,11.48,,0 / 20,,2346,2022-01-10 18:59:33:139
-0.3392,9.0999,2.9581,-0.3679,9.2152,3.3339,0.0279,-0.113,-0.2662,-0.0654,0.0116,-0.0158,21.75,-32.78,-22.8,302.89,-70.11,6.24,48.843918,2.353316,95.2,NaN,,11.48,,0 / 20,,2350,2022-01-10 18:59:33:143
-0.3392,9.0999,2.9581,-0.3679,9.2152,3.3339,0.0279,-0.113,-0.2662,-0.0654,0.0116,-0.0158,21.75,-32.78,-22.8,302.89,-70.11,6.24,48.843918,2.353316,95.2,NaN,,11.48,,0 / 20,,2356,2022-01-10 18:59:33:149
-0.3392,9.0999,2.9581,-0.3679,9.2152,3.3339,0.0279,-0.113,-0.2662,-0.0654,0.0116,-0.0158,21.75,-32.78,-22.8,302.89,-70.11,6.24,48.843918,2.353316,95.2,NaN,,11.48,,0 / 20,,2361,2022-01-10 18:59:33:154
-0.3706,9.1669,2.8095,-0.3679,9.2152,3.3339,0.0279,-0.113,-0.2662,-0.4063,0.0073,-0.0531,21.75,-32.78,-22.8,302.89,-70.11,6.24,48.843918,2.353316,95.2,NaN,,11.48,,0 / 20,,2366,2022-01-10 18:59:33:159
-0.3706,9.1669,2.8095,-0.3679,9.2152,3.3339,0.0165,-0.0409,-0.5907,-0.4063,0.0073,-0.0531,21.83,-33.15,-22.42,302.89,-70.11,6.24,48.843918,2.353316,95.2,NaN,,11.48,,0 / 20,,2370,2022-01-10 18:59:33:163
-0.3706,9.1669,2.8095,-0.3679,9.2152,3.3339,0.0165,-0.0409,-0.5907,-0.4063,0.0073,-0.0531,21.83,-33.15,-22.42,302.89,-70.11,6.24,48.843918,2.353316,95.2,NaN,,11.48,,0 / 20,,2376,2022-01-10 18:59:33:169
-0.3706,9.1669,2.8095,-0.3823,9.1755,3.4401,0.0165,-0.0409,-0.5907,-0.4063,0.0073,-0.0531,21.83,-33.15,-22.42,302.89,-70.11,6.24,48.843918,2.353316,95.2,NaN,,11.48,,0 / 20,,2381,2022-01-10 18:59:33:174
-0.3706,9.1669,2.8095,-0.3823,9.1755,3.4401,0.0165,-0.0409,-0.5907,-0.4063,0.0073,-0.0531,21.83,-33.15,-22.42,302.89,-70.11,6.24,48.843918,2.353316,95.2,NaN,,11.48,,0 / 20,,2385,2022-01-10 18:59:33:178
-0.4543,9.1717,3.1519,-0.3823,9.1755,3.4401,0.0165,-0.0409,-0.5907,-0.4063,0.0073,-0.0531,21.83,-33.15,-22.42,302.89,-70.11,6.24,48.843918,2.353316,95.2,NaN,,11.48,,0 / 20,,2391,2022-01-10 18:59:33:184
-0.4543,9.1717,3.1519,-0.3823,9.1755,3.4401,0.0165,-0.0409,-0.5907,-0.8036,0.0574,-0.0286,21.83,-33.15,-22.42,302.89,-70.11,6.24,48.843918,2.353316,95.2,NaN,,11.48,,0 / 20,,2397,2022-01-10 18:59:33:190
-0.4543,9.1717,3.1519,-0.3823,9.1755,3.4401,0.0165,-0.0409,-0.5907,-0.8036,0.0574,-0.0286,21.83,-33.15,-22.42,302.89,-70.11,6.24,48.843918,2.353316,95.2,NaN,,11.48,,0 / 20,,2401,2022-01-10 18:59:33:194
-0.4543,9.1717,3.1519,-0.3963,9.108,3.6136,-0.0773,-0.061,-0.366,-0.8036,0.0574,-0.0286,21.68,-33.0,-23.1,301.87,-69.33,6.34,48.843918,2.353316,95.2,NaN,,11.48,,0 / 20,,2407,2022-01-10 18:59:33:200
-0.4543,9.1717,3.1519,-0.3963,9.108,3.6136,-0.0773,-0.061,-0.366,-0.8036,0.0574,-0.0286,21.68,-33.0,-23.1,301.87,-69.33,6.34,48.843918,2.353316,95.2,NaN,,11.48,,0 / 20,,2410,2022-01-10 18:59:33:203
-0.4543,9.1717,3.1519,-0.3963,9.108,3.6136,-0.0773,-0.061,-0.366,-0.8036,0.0574,-0.0286,21.68,-33.0,-23.1,301.87,-69.33,6.34,48.843918,2.353316,95.2,NaN,,11.48,,0 / 20,,2416,2022-01-10 18:59:33:209
-0.4878,8.9441,3.2862,-0.3963,9.108,3.6136,-0.0773,-0.061,-0.366,-0.8036,0.0574,-0.0286,21.68,-33.0,-23.1,301.87,-69.33,6.34,48.843918,2.353316,95.2,NaN,,11.48,,0 / 20,,2421,2022-01-10 18:59:33:214
-0.4878,8.9441,3.2862,-0.3963,9.108,3.6136,-0.0773,-0.061,-0.366,-1.055,0.0403,0.0481,21.68,-33.0,-23.1,301.87,-69.33,6.34,48.843918,2.353316,95.2,NaN,,11.48,,0 / 20,,2426,2022-01-10 18:59:33:219
-0.4878,8.9441,3.2862,-0.3963,9.108,3.6136,-0.0773,-0.061,-0.366,-1.055,0.0403,0.0481,21.68,-33.0,-23.1,301.87,-69.33,6.34,48.843918,2.353316,95.2,NaN,,11.48,,0 / 20,,2430,2022-01-10 18:59:33:223
-0.4878,8.9441,3.2862,-0.3929,8.9947,3.8874,0.0035,-0.1208,-0.5066,-1.055,0.0403,0.0481,21.68,-33.0,-23.1,301.87,-69.33,6.34,48.843918,2.353316,95.2,NaN,,11.48,,0 / 20,,2437,2022-01-10 18:59:33:230
-0.4878,8.9441,3.2862,-0.3929,8.9947,3.8874,0.0035,-0.1208,-0.5066,-1.055,0.0403,0.0481,21.38,-32.18,-23.47,301.87,-69.33,6.34,48.843918,2.353316,95.2,NaN,,11.48,,0 / 20,,2441,2022-01-10 18:59:33:234
-0.2626,8.7239,3.8133,-0.3929,8.9947,3.8874,0.0035,-0.1208,-0.5066,-1.055,0.0403,0.0481,21.38,-32.18,-23.47,301.87,-69.33,6.34,48.843918,2.353316,95.2,NaN,,11.48,,0 / 20,,2446,2022-01-10 18:59:33:239
-0.2626,8.7239,3.8133,-0.3929,8.9947,3.8874,0.0035,-0.1208,-0.5066,-1.055,0.0403,0.0481,21.38,-32.18,-23.47,301.87,-69.33,6.34,48.843918,2.353316,95.2,NaN,,11.48,,0 / 20,,2450,2022-01-10 18:59:33:243
-0.2626,8.7239,3.8133,-0.3929,8.9947,3.8874,0.0035,-0.1208,-0.5066,-1.2265,0.1778,-0.0031,21.38,-32.18,-23.47,301.87,-69.33,6.34,48.843918,2.353316,95.2,NaN,,11.48,,0 / 20,,2457,2022-01-10 18:59:33:250
-0.2626,8.7239,3.8133,-0.3929,8.9947,3.8874,0.0035,-0.1208,-0.5066,-1.2265,0.1778,-0.0031,21.38,-32.18,-23.47,301.87,-69.33,6.34,48.843918,2.353316,95.2,NaN,,11.48,,0 / 20,,2460,2022-01-10 18:59:33:253
-0.2626,8.7239,3.8133,-0.409,8.8463,4.2125,0.0625,-0.1882,-0.2447,-1.2265,0.1778,-0.0031,21.38,-32.18,-23.47,301.87,-69.33,6.34,48.843918,2.353316,95.2,NaN,,11.48,,0 / 20,,2466,2022-01-10 18:59:33:259
-0.2626,8.7239,3.8133,-0.409,8.8463,4.2125,0.0625,-0.1882,-0.2447,-1.2265,0.1778,-0.0031,21.53,-31.28,-24.67,299.42,-64.43,5.55,48.843918,2.353316,95.2,NaN,,11.48,,0 / 20,,2471,2022-01-10 18:59:33:264
-0.5405,8.6279,4.2538,-0.409,8.8463,4.2125,0.0625,-0.1882,-0.2447,-1.2265,0.1778,-0.0031,21.53,-31.28,-24.67,299.42,-64.43,5.55,48.843918,2.353316,95.2,NaN,,11.48,,0 / 20,,2476,2022-01-10 18:59:33:269
-0.5405,8.6279,4.2538,-0.409,8.8463,4.2125,0.0625,-0.1882,-0.2447,-1.2265,0.1778,-0.0031,21.53,-31.28,-24.67,299.42,-64.43,5.55,48.843918,2.353316,95.2,NaN,,11.48,,0 / 20,,2480,2022-01-10 18:59:33:273
-0.5405,8.6279,4.2538,-0.409,8.8463,4.2125,0.0625,-0.1882,-0.2447,-1.4225,0.1202,0.0278,21.53,-31.28,-24.67,299.42,-64.43,5.55,48.843918,2.353316,95.2,NaN,,11.48,,0 / 20,,2486,2022-01-10 18:59:33:279
-0.5405,8.6279,4.2538,-0.409,8.8463,4.2125,0.0625,-0.1882,-0.2447,-1.4225,0.1202,0.0278,21.53,-31.28,-24.67,299.42,-64.43,5.55,48.843918,2.353316,95.2,NaN,,11.48,,0 / 20,,2491,2022-01-10 18:59:33:284
-0.5405,8.6279,4.2538,-0.4273,8.6605,4.5809,-0.1808,-0.1409,-0.2138,-1.4225,0.1202,0.0278,21.53,-31.28,-24.67,299.42,-64.43,5.55,48.843918,2.353316,95.2,NaN,,11.48,,0 / 20,,2495,2022-01-10 18:59:33:288
-0.5405,8.6279,4.2538,-0.4273,8.6605,4.5809,-0.1808,-0.1409,-0.2138,-1.4225,0.1202,0.0278,21.53,-31.28,-24.67,299.42,-64.43,5.55,48.843918,2.353316,95.2,NaN,,11.48,,0 / 20,,2501,2022-01-10 18:59:33:294
-0.6556,8.4891,4.4982,-0.4273,8.6605,4.5809,-0.1808,-0.1409,-0.2138,-1.4225,0.1202,0.0278,21.53,-30.6,-26.1,299.42,-64.43,5.55,48.843918,2.353316,95.2,NaN,,11.48,,0 / 20,,2506,2022-01-10 18:59:33:299
-0.6556,8.4891,4.4982,-0.4273,8.6605,4.5809,-0.1808,-0.1409,-0.2138,-1.4225,0.1202,0.0278,21.53,-30.6,-26.1,299.42,-64.43,5.55,48.843918,2.353316,95.2,NaN,,11.48,,0 / 20,,2511,2022-01-10 18:59:33:304
-0.6556,8.4891,4.4982,-0.4273,8.6605,4.5809,-0.1808,-0.1409,-0.2138,-1.659,-0.161,0.1354,21.53,-30.6,-26.1,299.42,-64.43,5.55,48.843918,2.353316,95.2,NaN,,11.48,,0 / 20,,2516,2022-01-10 18:59:33:309
-0.6556,8.4891,4.4982,-0.4273,8.6605,4.5809,-0.1808,-0.1409,-0.2138,-1.659,-0.161,0.1354,21.53,-30.6,-26.1,299.42,-64.43,5.55,48.843918,2.353316,95.2,NaN,,11.48,,0 / 20,,2520,2022-01-10 18:59:33:313
-0.6556,8.4891,4.4982,-0.3826,8.4306,4.9949,0.0892,0.0018,-0.1077,-1.659,-0.161,0.1354,21.53,-30.6,-26.1,299.42,-64.43,5.55,48.843918,2.353316,95.2,NaN,,11.48,,0 / 20,,2525,2022-01-10 18:59:33:318
-0.2243,8.295,5.1595,-0.3826,8.4306,4.9949,0.0892,0.0018,-0.1077,-1.659,-0.161,0.1354,21.53,-30.6,-26.1,299.42,-64.43,5.55,48.843918,2.353316,95.2,NaN,,11.48,,0 / 20,,2531,2022-01-10 18:59:33:324
-0.2243,8.295,5.1595,-0.3826,8.4306,4.9949,0.0892,0.0018,-0.1077,-1.659,-0.161,0.1354,21.53,-30.6,-26.1,299.42,-64.43,5.55,48.843918,2.353316,95.2,NaN,,11.48,,0 / 20,,2535,2022-01-10 18:59:33:328
-0.2243,8.295,5.1595,-0.3826,8.4306,4.9949,0.0892,0.0018,-0.1077,-1.659,-0.161,0.1354,21.38,-29.47,-28.13,299.34,-59.28,4.38,48.843918,2.353316,95.2,NaN,,11.48,,0 / 20,,2540,2022-01-10 18:59:33:333
-0.2243,8.295,5.1595,-0.3826,8.4306,4.9949,0.0892,0.0018,-0.1077,-1.6366,0.0819,0.0087,21.38,-29.47,-28.13,299.34,-59.28,4.38,48.843918,2.353316,95.2,NaN,,11.48,,0 / 20,,2545,2022-01-10 18:59:33:338
-0.2243,8.295,5.1595,-0.3826,8.4306,4.9949,0.0892,0.0018,-0.1077,-1.6366,0.0819,0.0087,21.38,-29.47,-28.13,299.34,-59.28,4.38,48.843918,2.353316,95.2,NaN,,11.48,,0 / 20,,2551,2022-01-10 18:59:33:344
-0.4639,7.7608,5.1978,-0.367,8.2129,5.3463,0.0877,-0.2068,-0.2073,-1.6366,0.0819,0.0087,21.38,-29.47,-28.13,299.34,-59.28,4.38,48.843918,2.353316,95.2,NaN,,11.48,,0 / 20,,2557,2022-01-10 18:59:33:350
-0.4639,7.7608,5.1978,-0.367,8.2129,5.3463,0.0877,-0.2068,-0.2073,-1.6366,0.0819,0.0087,21.38,-29.47,-28.13,299.34,-59.28,4.38,48.843918,2.353316,95.2,NaN,,11.48,,0 / 20,,2560,2022-01-10 18:59:33:353
-0.4639,7.7608,5.1978,-0.367,8.2129,5.3463,0.0877,-0.2068,-0.2073,-1.6366,0.0819,0.0087,21.38,-29.47,-28.13,299.34,-59.28,4.38,48.843918,2.353316,95.2,NaN,,11.48,,0 / 20,,2566,2022-01-10 18:59:33:359
-0.4639,7.7608,5.1978,-0.367,8.2129,5.3463,0.0877,-0.2068,-0.2073,-1.6366,0.0819,0.0087,21.38,-29.17,-29.78,299.34,-59.28,4.38,48.843918,2.353316,95.2,NaN,,11.48,,0 / 20,,2571,2022-01-10 18:59:33:364
-0.4639,7.7608,5.1978,-0.367,8.2129,5.3463,0.0877,-0.2068,-0.2073,-1.6696,0.2353,0.0119,21.38,-29.17,-29.78,299.34,-59.28,4.38,48.843918,2.353316,95.2,NaN,,11.48,,0 / 20,,2576,2022-01-10 18:59:33:369
-0.4639,7.7608,5.1978,-0.4008,7.9383,5.7439,0.0877,-0.2068,-0.2073,-1.6696,0.2353,0.0119,21.38,-29.17,-29.78,299.34,-59.28,4.38,48.843918,2.353316,95.2,NaN,,11.48,,0 / 20,,2581,2022-01-10 18:59:33:374
-0.4878,7.459,5.3489,-0.4008,7.9383,5.7439,-0.0251,-0.3214,-0.5085,-1.6696,0.2353,0.0119,21.38,-29.17,-29.78,299.34,-59.28,4.38,48.843918,2.353316,95.2,NaN,,11.48,,0 / 20,,2590,2022-01-10 18:59:33:383
-0.4878,7.459,5.3489,-0.4008,7.9383,5.7439,-0.0251,-0.3214,-0.5085,-1.6696,0.2353,0.0119,21.38,-29.17,-29.78,299.34,-59.28,4.38,48.843918,2.353316,95.2,NaN,,11.48,,0 / 20,,2593,2022-01-10 18:59:33:386
-0.4878,7.459,5.3489,-0.4008,7.9383,5.7439,-0.0251,-0.3214,-0.5085,-1.6696,0.2353,0.0119,21.38,-29.17,-29.78,299.34,-59.28,4.38,48.843918,2.353316,95.2,NaN,,11.48,,0 / 20,,2596,2022-01-10 18:59:33:389
-0.4878,7.459,5.3489,-0.4008,7.9383,5.7439,-0.0251,-0.3214,-0.5085,-1.6696,0.2353,0.0119,21.38,-29.17,-29.78,299.34,-59.28,4.38,48.843918,2.353316,95.2,NaN,,11.48,,0 / 20,,2600,2022-01-10 18:59:33:393
-0.4878,7.459,5.3489,-0.4008,7.9383,5.7439,-0.0251,-0.3214,-0.5085,-1.9721,0.0893,0.0566,21.9,-28.13,-31.05,296.42,-54.05,3.99,48.843918,2.353316,95.2,NaN,,11.48,,0 / 20,,2607,2022-01-10 18:59:33:400
-0.4878,7.459,5.3489,-0.4224,7.6034,6.179,-0.0251,-0.3214,-0.5085,-1.9721,0.0893,0.0566,21.9,-28.13,-31.05,296.42,-54.05,3.99,48.843918,2.353316,95.2,NaN,,11.48,,0 / 20,,2611,2022-01-10 18:59:33:404
-0.5022,7.4782,6.108,-0.4224,7.6034,6.179,-0.0251,-0.3214,-0.5085,-1.9721,0.0893,0.0566,21.9,-28.13,-31.05,296.42,-54.05,3.99,48.843918,2.353316,95.2,NaN,,11.48,,0 / 20,,2616,2022-01-10 18:59:33:409
-0.5022,7.4782,6.108,-0.4224,7.6034,6.179,-0.1193,-0.0489,-0.1278,-1.9721,0.0893,0.0566,21.9,-28.13,-31.05,296.42,-54.05,3.99,48.843918,2.353316,95.2,NaN,,11.48,,0 / 20,,2620,2022-01-10 18:59:33:413
-0.5022,7.4782,6.108,-0.4224,7.6034,6.179,-0.1193,-0.0489,-0.1278,-1.9721,0.0893,0.0566,21.9,-28.13,-31.05,296.42,-54.05,3.99,48.843918,2.353316,95.2,NaN,,11.48,,0 / 20,,2626,2022-01-10 18:59:33:419
-0.5022,7.4782,6.108,-0.4224,7.6034,6.179,-0.1193,-0.0489,-0.1278,-1.9721,0.0893,0.0566,21.9,-28.13,-31.05,296.42,-54.05,3.99,48.843918,2.353316,95.2,NaN,,11.48,,0 / 20,,2630,2022-01-10 18:59:33:423
-0.5022,7.4782,6.108,-0.4224,7.6034,6.179,-0.1193,-0.0489,-0.1278,-2.1596,-0.063,1.0E-4,21.9,-28.13,-31.05,296.42,-54.05,3.99,48.843918,2.353316,95.2,NaN,,11.48,,0 / 20,,2636,2022-01-10 18:59:33:429
-0.3562,6.8722,6.2303,-0.4126,7.1919,6.6541,-0.1193,-0.0489,-0.1278,-2.1596,-0.063,1.0E-4,21.9,-26.25,-33.3,296.42,-54.05,3.99,48.843918,2.353316,95.2,NaN,,11.48,,0 / 20,,2641,2022-01-10 18:59:33:434
-0.3562,6.8722,6.2303,-0.4126,7.1919,6.6541,0.0793,-0.2638,-0.4599,-2.1596,-0.063,1.0E-4,21.9,-26.25,-33.3,296.42,-54.05,3.99,48.843918,2.353316,95.2,NaN,,11.48,,0 / 20,,2646,2022-01-10 18:59:33:439
-0.3562,6.8722,6.2303,-0.4126,7.1919,6.6541,0.0793,-0.2638,-0.4599,-2.1596,-0.063,1.0E-4,21.9,-26.25,-33.3,296.42,-54.05,3.99,48.843918,2.353316,95.2,NaN,,11.48,,0 / 20,,2652,2022-01-10 18:59:33:445
-0.3562,6.8722,6.2303,-0.4126,7.1919,6.6541,0.0793,-0.2638,-0.4599,-2.1596,-0.063,1.0E-4,21.9,-26.25,-33.3,296.42,-54.05,3.99,48.843918,2.353316,95.2,NaN,,11.48,,0 / 20,,2656,2022-01-10 18:59:33:449
-0.3562,6.8722,6.2303,-0.4126,7.1919,6.6541,0.0793,-0.2638,-0.4599,-2.1596,-0.063,1.0E-4,21.9,-26.25,-33.3,296.42,-54.05,3.99,48.843918,2.353316,95.2,NaN,,11.48,,0 / 20,,2661,2022-01-10 18:59:33:454
-0.3562,6.8722,6.2303,-0.4126,7.1919,6.6541,0.0793,-0.2638,-0.4599,-2.1596,-0.063,1.0E-4,21.9,-26.25,-33.3,296.42,-54.05,3.99,48.843918,2.353316,95.2,NaN,,11.48,,0 / 20,,2666,2022-01-10 18:59:33:459
-0.4017,6.1271,6.7789,-0.3941,6.7941,7.0608,0.0793,-0.2638,-0.4599,-2.3578,-0.1162,-0.0084,21.9,-24.53,-35.18,289.36,-43.85,3.19,48.843918,2.353316,95.2,NaN,,11.48,,0 / 20,,2671,2022-01-10 18:59:33:464
-0.4017,6.1271,6.7789,-0.3941,6.7941,7.0608,-0.0278,-0.5188,-0.2442,-2.3578,-0.1162,-0.0084,21.9,-24.53,-35.18,289.36,-43.85,3.19,48.843918,2.353316,95.2,NaN,,11.48,,0 / 20,,2676,2022-01-10 18:59:33:469
-0.4017,6.1271,6.7789,-0.3941,6.7941,7.0608,-0.0278,-0.5188,-0.2442,-2.3578,-0.1162,-0.0084,21.9,-24.53,-35.18,289.36,-43.85,3.19,48.843918,2.353316,95.2,NaN,,11.48,,0 / 20,,2681,2022-01-10 18:59:33:474
-0.4017,6.1271,6.7789,-0.3941,6.7941,7.0608,-0.0278,-0.5188,-0.2442,-2.3578,-0.1162,-0.0084,21.9,-24.53,-35.18,289.36,-43.85,3.19,48.843918,2.353316,95.2,NaN,,11.48,,0 / 20,,2686,2022-01-10 18:59:33:479
-0.4017,6.1271,6.7789,-0.3941,6.7941,7.0608,-0.0278,-0.5188,-0.2442,-2.3578,-0.1162,-0.0084,21.9,-24.53,-35.18,289.36,-43.85,3.19,48.843918,2.353316,95.2,NaN,,11.48,,0 / 20,,2691,2022-01-10 18:59:33:484
-0.4017,6.1271,6.7789,-0.3941,6.7941,7.0608,-0.0278,-0.5188,-0.2442,-2.3578,-0.1162,-0.0084,21.9,-24.53,-35.18,289.36,-43.85,3.19,48.843918,2.353316,95.2,NaN,,11.48,,0 / 20,,2695,2022-01-10 18:59:33:488
-0.4352,5.8421,7.4447,-0.4041,6.2734,7.5268,-0.0278,-0.5188,-0.2442,-2.3578,-0.1162,-0.0084,22.28,-22.72,-36.9,289.36,-43.85,3.19,48.843918,2.353316,95.2,NaN,,11.48,,0 / 20,,2701,2022-01-10 18:59:33:494
-0.4352,5.8421,7.4447,-0.4041,6.2734,7.5268,-0.0278,-0.5188,-0.2442,-2.2779,0.2566,-0.0126,22.28,-22.72,-36.9,289.36,-43.85,3.19,48.843918,2.353316,95.2,NaN,,11.48,,0 / 20,,2706,2022-01-10 18:59:33:499
-0.4352,5.8421,7.4447,-0.4041,6.2734,7.5268,-0.0215,-0.3236,-0.2225,-2.2779,0.2566,-0.0126,22.28,-22.72,-36.9,289.36,-43.85,3.19,48.843918,2.353316,95.2,NaN,,11.48,,0 / 20,,2711,2022-01-10 18:59:33:504
-0.4352,5.8421,7.4447,-0.4041,6.2734,7.5268,-0.0215,-0.3236,-0.2225,-2.2779,0.2566,-0.0126,22.28,-22.72,-36.9,289.36,-43.85,3.19,48.843918,2.353316,95.2,NaN,,11.48,,0 / 20,,2716,2022-01-10 18:59:33:509
-0.4352,5.8421,7.4447,-0.4041,6.2734,7.5268,-0.0215,-0.3236,-0.2225,-2.2779,0.2566,-0.0126,22.28,-22.72,-36.9,289.36,-43.85,3.19,48.843918,2.353316,95.2,NaN,,11.48,,0 / 20,,2720,2022-01-10 18:59:33:513
-0.3921,5.327,7.1285,-0.4041,6.2734,7.5268,-0.0215,-0.3236,-0.2225,-2.2779,0.2566,-0.0126,22.28,-22.72,-36.9,289.36,-43.85,3.19,48.843918,2.353316,95.2,NaN,,11.48,,0 / 20,,2725,2022-01-10 18:59:33:518
-0.3921,5.327,7.1285,-0.4857,5.7297,7.9439,-0.0215,-0.3236,-0.2225,-2.2779,0.2566,-0.0126,22.28,-22.72,-36.9,289.36,-43.85,3.19,48.843918,2.353316,95.2,NaN,,11.48,,0 / 20,,2730,2022-01-10 18:59:33:523
-0.3921,5.327,7.1285,-0.4857,5.7297,7.9439,0.1524,-0.3162,-0.8338,-2.4547,0.3184,-0.0905,22.28,-22.72,-36.9,289.36,-43.85,3.19,48.843918,2.353316,95.2,NaN,,11.48,,0 / 20,,2736,2022-01-10 18:59:33:529
-0.3921,5.327,7.1285,-0.4857,5.7297,7.9439,0.1524,-0.3162,-0.8338,-2.4547,0.3184,-0.0905,21.83,-20.18,-39.0,290.44,-35.75,3.5,48.843918,2.353316,95.2,NaN,,11.48,,0 / 20,,2741,2022-01-10 18:59:33:534
-0.3921,5.327,7.1285,-0.4857,5.7297,7.9439,0.1524,-0.3162,-0.8338,-2.4547,0.3184,-0.0905,21.83,-20.18,-39.0,290.44,-35.75,3.5,48.843918,2.353316,95.2,NaN,,11.48,,0 / 20,,2746,2022-01-10 18:59:33:539
-0.3921,5.327,7.1285,-0.4857,5.7297,7.9439,0.1524,-0.3162,-0.8338,-2.4547,0.3184,-0.0905,21.83,-20.18,-39.0,290.44,-35.75,3.5,48.843918,2.353316,95.2,NaN,,11.48,,0 / 20,,2751,2022-01-10 18:59:33:544
-0.6245,5.0037,7.7803,-0.4857,5.7297,7.9439,0.1524,-0.3162,-0.8338,-2.4547,0.3184,-0.0905,21.83,-20.18,-39.0,290.44,-35.75,3.5,48.843918,2.353316,95.2,NaN,,11.48,,0 / 20,,2755,2022-01-10 18:59:33:548
-0.6245,5.0037,7.7803,-0.5636,5.1005,8.3569,0.1524,-0.3162,-0.8338,-2.4547,0.3184,-0.0905,21.83,-20.18,-39.0,290.44,-35.75,3.5,48.843918,2.353316,95.2,NaN,,11.48,,0 / 20,,2760,2022-01-10 18:59:33:553
-0.6245,5.0037,7.7803,-0.5636,5.1005,8.3569,-0.1068,-0.2648,-0.4601,-2.4547,0.3184,-0.0905,21.83,-20.18,-39.0,290.44,-35.75,3.5,48.843918,2.353316,95.2,NaN,,11.48,,0 / 20,,2767,2022-01-10 18:59:33:560
-0.6245,5.0037,7.7803,-0.5636,5.1005,8.3569,-0.1068,-0.2648,-0.4601,-2.6422,0.1554,-0.0244,21.9,-17.78,-40.65,290.44,-35.75,3.5,48.843918,2.353316,95.2,NaN,,11.48,,0 / 20,,2771,2022-01-10 18:59:33:564
-0.6245,5.0037,7.7803,-0.5636,5.1005,8.3569,-0.1068,-0.2648,-0.4601,-2.6422,0.1554,-0.0244,21.9,-17.78,-40.65,290.44,-35.75,3.5,48.843918,2.353316,95.2,NaN,,11.48,,0 / 20,,2775,2022-01-10 18:59:33:568
-0.6245,5.0037,7.7803,-0.5636,5.1005,8.3569,-0.1068,-0.2648,-0.4601,-2.6422,0.1554,-0.0244,21.9,-17.78,-40.65,290.44,-35.75,3.5,48.843918,2.353316,95.2,NaN,,11.48,,0 / 20,,2780,2022-01-10 18:59:33:573
-0.6245,4.098,8.1754,-0.5636,5.1005,8.3569,-0.1068,-0.2648,-0.4601,-2.6422,0.1554,-0.0244,21.9,-17.78,-40.65,290.44,-35.75,3.5,48.843918,2.353316,95.2,NaN,,11.48,,0 / 20,,2785,2022-01-10 18:59:33:578
-0.6245,4.098,8.1754,-0.5961,4.409,8.7393,-0.1068,-0.2648,-0.4601,-2.6422,0.1554,-0.0244,21.9,-17.78,-40.65,290.44,-35.75,3.5,48.843918,2.353316,95.2,NaN,,11.48,,0 / 20,,2791,2022-01-10 18:59:33:584
-0.6245,4.098,8.1754,-0.5961,4.409,8.7393,0.0573,-0.3451,-0.5642,-2.6422,0.1554,-0.0244,21.9,-17.78,-40.65,290.44,-35.75,3.5,48.843918,2.353316,95.2,NaN,,11.48,,0 / 20,,2797,2022-01-10 18:59:33:590
-0.6245,4.098,8.1754,-0.5961,4.409,8.7393,0.0573,-0.3451,-0.5642,-2.6422,0.1554,-0.0244,21.9,-17.78,-40.65,290.44,-35.75,3.5,48.843918,2.353316,95.2,NaN,,11.48,,0 / 20,,2801,2022-01-10 18:59:33:594
-0.6245,4.098,8.1754,-0.5961,4.409,8.7393,0.0573,-0.3451,-0.5642,-2.639,-0.1429,-0.1417,22.13,-15.38,-42.0,287.76,-26.72,3.9,48.843918,2.353316,95.2,NaN,,11.48,,0 / 20,,2806,2022-01-10 18:59:33:599
-0.6221,3.2572,8.8173,-0.5961,4.409,8.7393,0.0573,-0.3451,-0.5642,-2.639,-0.1429,-0.1417,22.13,-15.38,-42.0,287.76,-26.72,3.9,48.843918,2.353316,95.2,NaN,,11.48,,0 / 20,,2812,2022-01-10 18:59:33:605
-0.6221,3.2572,8.8173,-0.5961,4.409,8.7393,0.0573,-0.3451,-0.5642,-2.639,-0.1429,-0.1417,22.13,-15.38,-42.0,287.76,-26.72,3.9,48.843918,2.353316,95.2,NaN,,11.48,,0 / 20,,2816,2022-01-10 18:59:33:609
-0.6221,3.2572,8.8173,-0.5799,3.8095,9.0179,0.0573,-0.3451,-0.5642,-2.639,-0.1429,-0.1417,22.13,-15.38,-42.0,287.76,-26.72,3.9,48.843918,2.353316,95.2,NaN,,11.48,,0 / 20,,2820,2022-01-10 18:59:33:613
-0.6221,3.2572,8.8173,-0.5799,3.8095,9.0179,-0.0022,-0.4646,-0.0169,-2.639,-0.1429,-0.1417,22.13,-15.38,-42.0,287.76,-26.72,3.9,48.843918,2.353316,95.2,NaN,,11.48,,0 / 20,,2825,2022-01-10 18:59:33:618
-0.6221,3.2572,8.8173,-0.5799,3.8095,9.0179,-0.0022,-0.4646,-0.0169,-2.639,-0.1429,-0.1417,22.13,-15.38,-42.0,287.76,-26.72,3.9,48.843918,2.353316,95.2,NaN,,11.48,,0 / 20,,2831,2022-01-10 18:59:33:624
-0.6221,3.2572,8.8173,-0.5799,3.8095,9.0179,-0.0022,-0.4646,-0.0169,-2.5175,-0.1354,-0.2407,22.13,-15.38,-42.0,287.76,-26.72,3.9,48.843918,2.353316,95.2,NaN,,11.48,,0 / 20,,2836,2022-01-10 18:59:33:629
-0.4783,2.8525,9.4714,-0.5799,3.8095,9.0179,-0.0022,-0.4646,-0.0169,-2.5175,-0.1354,-0.2407,21.9,-12.0,-43.5,287.76,-26.72,3.9,48.843918,2.353316,95.2,NaN,,11.48,,0 / 20,,2841,2022-01-10 18:59:33:634
-0.4783,2.8525,9.4714,-0.5799,3.8095,9.0179,-0.0022,-0.4646,-0.0169,-2.5175,-0.1354,-0.2407,21.9,-12.0,-43.5,287.76,-26.72,3.9,48.843918,2.353316,95.2,NaN,,11.48,,0 / 20,,2845,2022-01-10 18:59:33:638
-0.4783,2.8525,9.4714,-0.5799,3.8095,9.0179,-0.0022,-0.4646,-0.0169,-2.5175,-0.1354,-0.2407,21.9,-12.0,-43.5,287.76,-26.72,3.9,48.843918,2.353316,95.2,NaN,,11.48,,0 / 20,,2852,2022-01-10 18:59:33:645
-0.4783,2.8525,9.4714,-0.5627,2.981,9.3256,0.009,-0.2284,0.2128,-2.5175,-0.1354,-0.2407,21.9,-12.0,-43.5,287.76,-26.72,3.9,48.843918,2.353316,95.2,NaN,,11.48,,0 / 20,,2856,2022-01-10 18:59:33:649
-0.4783,2.8525,9.4714,-0.5627,2.981,9.3256,0.009,-0.2284,0.2128,-2.5175,-0.1354,-0.2407,21.9,-12.0,-43.5,287.76,-26.72,3.9,48.843918,2.353316,95.2,NaN,,11.48,,0 / 20,,2860,2022-01-10 18:59:33:653
-0.4783,2.8525,9.4714,-0.5627,2.981,9.3256,0.009,-0.2284,0.2128,-2.5175,-0.1354,-0.2407,21.9,-12.0,-43.5,287.76,-26.72,3.9,48.843918,2.353316,95.2,NaN,,11.48,,0 / 20,,2865,2022-01-10 18:59:33:658
-0.5477,2.3303,9.5719,-0.5627,2.981,9.3256,0.009,-0.2284,0.2128,-2.2459,-0.1652,-0.1758,21.9,-12.0,-43.5,287.76,-26.72,3.9,48.843918,2.353316,95.2,NaN,,11.48,,0 / 20,,2871,2022-01-10 18:59:33:664
-0.5477,2.3303,9.5719,-0.5627,2.981,9.3256,0.009,-0.2284,0.2128,-2.2459,-0.1652,-0.1758,21.9,-12.0,-43.5,287.76,-26.72,3.9,48.843918,2.353316,95.2,NaN,,11.48,,0 / 20,,2875,2022-01-10 18:59:33:668
-0.5477,2.3303,9.5719,-0.5343,2.3275,9.5115,0.009,-0.2284,0.2128,-2.2459,-0.1652,-0.1758,21.53,-8.1,-45.22,288.49,-17.7,3.45,48.843918,2.353316,95.2,NaN,,11.48,,0 / 20,,2881,2022-01-10 18:59:33:674
-0.5477,2.3303,9.5719,-0.5343,2.3275,9.5115,0.009,-0.2284,0.2128,-2.2459,-0.1652,-0.1758,21.53,-8.1,-45.22,288.49,-17.7,3.45,48.843918,2.353316,95.2,NaN,,11.48,,0 / 20,,2885,2022-01-10 18:59:33:678
-0.5477,2.3303,9.5719,-0.5343,2.3275,9.5115,-0.0291,-0.117,-0.0171,-2.2459,-0.1652,-0.1758,21.53,-8.1,-45.22,288.49,-17.7,3.45,48.843918,2.353316,95.2,NaN,,11.48,,0 / 20,,2891,2022-01-10 18:59:33:684
-0.5333,1.7339,9.2988,-0.5343,2.3275,9.5115,-0.0291,-0.117,-0.0171,-2.2459,-0.1652,-0.1758,21.53,-8.1,-45.22,288.49,-17.7,3.45,48.843918,2.353316,95.2,NaN,,11.48,,0 / 20,,2896,2022-01-10 18:59:33:689
-0.5333,1.7339,9.2988,-0.5343,2.3275,9.5115,-0.0291,-0.117,-0.0171,-2.2459,-0.1652,-0.1758,21.53,-8.1,-45.22,288.49,-17.7,3.45,48.843918,2.353316,95.2,NaN,,11.48,,0 / 20,,2901,2022-01-10 18:59:33:694
-0.5333,1.7339,9.2988,-0.5343,2.3275,9.5115,-0.0291,-0.117,-0.0171,-2.1128,-0.2494,-0.1246,21.53,-8.1,-45.22,288.49,-17.7,3.45,48.843918,2.353316,95.2,NaN,,11.48,,0 / 20,,2908,2022-01-10 18:59:33:701
-0.5333,1.7339,9.2988,-0.5343,2.3275,9.5115,-0.0291,-0.117,-0.0171,-2.1128,-0.2494,-0.1246,21.6,-5.48,-46.12,288.49,-17.7,3.45,48.843918,2.353316,95.2,NaN,,11.48,,0 / 20,,2910,2022-01-10 18:59:33:703
-0.5333,1.7339,9.2988,-0.4724,1.7048,9.6458,-0.0291,-0.117,-0.0171,-2.1128,-0.2494,-0.1246,21.6,-5.48,-46.12,288.49,-17.7,3.45,48.843918,2.353316,95.2,NaN,,11.48,,0 / 20,,2916,2022-01-10 18:59:33:709
-0.1597,1.0845,9.1409,-0.4724,1.7048,9.6458,0.2994,-0.2676,-0.4523,-2.1128,-0.2494,-0.1246,21.6,-5.48,-46.12,288.49,-17.7,3.45,48.843918,2.353316,95.2,NaN,,11.48,,0 / 20,,2921,2022-01-10 18:59:33:714
-0.1597,1.0845,9.1409,-0.4724,1.7048,9.6458,0.2994,-0.2676,-0.4523,-2.1128,-0.2494,-0.1246,21.6,-5.48,-46.12,288.49,-17.7,3.45,48.843918,2.353316,95.2,NaN,,11.48,,0 / 20,,2925,2022-01-10 18:59:33:718
-0.1597,1.0845,9.1409,-0.4724,1.7048,9.6458,0.2994,-0.2676,-0.4523,-2.1128,-0.2494,-0.1246,21.6,-5.48,-46.12,288.49,-17.7,3.45,48.843918,2.353316,95.2,NaN,,11.48,,0 / 20,,2931,2022-01-10 18:59:33:724
-0.1597,1.0845,9.1409,-0.4724,1.7048,9.6458,0.2994,-0.2676,-0.4523,-2.3418,-0.1855,-0.1214,21.6,-5.48,-46.12,288.49,-17.7,3.45,48.843918,2.353316,95.2,NaN,,11.48,,0 / 20,,2936,2022-01-10 18:59:33:729
-0.1597,1.0845,9.1409,-0.4164,1.0253,9.744,0.2994,-0.2676,-0.4523,-2.3418,-0.1855,-0.1214,21.45,-2.85,-46.43,285.55,-10.01,2.8,48.843918,2.353316,95.2,NaN,,11.48,,0 / 20,,2941,2022-01-10 18:59:33:734
-0.1597,1.0845,9.1409,-0.4164,1.0253,9.744,0.2994,-0.2676,-0.4523,-2.3418,-0.1855,-0.1214,21.45,-2.85,-46.43,285.55,-10.01,2.8,48.843918,2.353316,95.2,NaN,,11.48,,0 / 20,,2946,2022-01-10 18:59:33:739
-0.1597,1.0845,9.1409,-0.4164,1.0253,9.744,0.2994,-0.2676,-0.4523,-2.3418,-0.1855,-0.1214,21.45,-2.85,-46.43,285.55,-10.01,2.8,48.843918,2.353316,95.2,NaN,,11.48,,0 / 20,,2951,2022-01-10 18:59:33:744
-0.5859,0.644,10.2619,-0.4164,1.0253,9.744,-0.2325,-0.1309,0.3577,-2.3418,-0.1855,-0.1214,21.45,-2.85,-46.43,285.55,-10.01,2.8,48.843918,2.353316,95.2,NaN,,11.48,,0 / 20,,2956,2022-01-10 18:59:33:749
-0.5859,0.644,10.2619,-0.4164,1.0253,9.744,-0.2325,-0.1309,0.3577,-2.3418,-0.1855,-0.1214,21.45,-2.85,-46.43,285.55,-10.01,2.8,48.843918,2.353316,95.2,NaN,,11.48,,0 / 20,,2961,2022-01-10 18:59:33:754
-0.5859,0.644,10.2619,-0.4164,1.0253,9.744,-0.2325,-0.1309,0.3577,-2.3418,-0.1855,-0.1214,21.45,-2.85,-46.43,285.55,-10.01,2.8,48.843918,2.353316,95.2,NaN,,11.48,,0 / 20,,2965,2022-01-10 18:59:33:758
-0.5859,0.644,10.2619,-0.3803,0.4711,9.7879,-0.2325,-0.1309,0.3577,-1.9871,-0.0566,-0.0212,21.3,-0.6,-46.57,285.55,-10.01,2.8,48.843918,2.353316,95.2,NaN,,11.48,,0 / 20,,2970,2022-01-10 18:59:33:763
-0.3873,0.2246,10.8918,-0.3803,0.4711,9.7879,-0.2325,-0.1309,0.3577,-1.9871,-0.0566,-0.0212,21.3,-0.6,-46.57,285.55,-10.01,2.8,48.843918,2.353316,95.2,NaN,,11.48,,0 / 20,,2976,2022-01-10 18:59:33:769
-0.3873,0.2246,10.8918,-0.3803,0.4711,9.7879,-0.2325,-0.1309,0.3577,-1.9871,-0.0566,-0.0212,21.3,-0.6,-46.57,285.55,-10.01,2.8,48.843918,2.353316,95.2,NaN,,11.48,,0 / 20,,2981,2022-01-10 18:59:33:774
-0.3873,0.2246,10.8918,-0.3803,0.4711,9.7879,-0.0037,0.0258,1.1576,-1.9871,-0.0566,-0.0212,21.3,-0.6,-46.57,285.55,-10.01,2.8,48.843918,2.353316,95.2,NaN,,11.48,,0 / 20,,2986,2022-01-10 18:59:33:779
-0.3873,0.2246,10.8918,-0.3803,0.4711,9.7879,-0.0037,0.0258,1.1576,-1.9871,-0.0566,-0.0212,21.3,-0.6,-46.57,285.55,-10.01,2.8,48.843918,2.353316,95.2,NaN,,11.48,,0 / 20,,2991,2022-01-10 18:59:33:784
-0.3873,0.2246,10.8918,-0.3803,0.4711,9.7879,-0.0037,0.0258,1.1576,-1.9871,-0.0566,-0.0212,21.3,-0.6,-46.57,285.55,-10.01,2.8,48.843918,2.353316,95.2,NaN,,11.48,,0 / 20,,2996,2022-01-10 18:59:33:789
-0.3873,0.2246,10.8918,-0.402,-0.0199,9.7984,-0.0037,0.0258,1.1576,-1.9871,-0.0566,-0.0212,21.3,-0.6,-46.57,285.55,-10.01,2.8,48.843918,2.353316,95.2,NaN,,11.48,,0 / 20,,3001,2022-01-10 18:59:33:794
-0.4065,-0.0867,10.736,-0.402,-0.0199,9.7984,-0.0037,0.0258,1.1576,-1.202,0.2491,-0.0884,20.7,1.58,-46.57,275.7,0.12,2.35,48.843918,2.353316,95.2,NaN,,11.48,,0 / 20,,3006,2022-01-10 18:59:33:799
-0.4065,-0.0867,10.736,-0.402,-0.0199,9.7984,-0.0037,0.0258,1.1576,-1.202,0.2491,-0.0884,20.7,1.58,-46.57,275.7,0.12,2.35,48.843918,2.353316,95.2,NaN,,11.48,,0 / 20,,3010,2022-01-10 18:59:33:803
-0.4065,-0.0867,10.736,-0.402,-0.0199,9.7984,-0.0037,0.0258,1.1576,-1.202,0.2491,-0.0884,20.7,1.58,-46.57,275.7,0.12,2.35,48.843918,2.353316,95.2,NaN,,11.48,,0 / 20,,3016,2022-01-10 18:59:33:809
-0.4065,-0.0867,10.736,-0.402,-0.0199,9.7984,0.0219,-0.1041,1.0806,-1.202,0.2491,-0.0884,20.7,1.58,-46.57,275.7,0.12,2.35,48.843918,2.353316,95.2,NaN,,11.48,,0 / 20,,3023,2022-01-10 18:59:33:816
-0.4065,-0.0867,10.736,-0.402,-0.0199,9.7984,0.0219,-0.1041,1.0806,-1.202,0.2491,-0.0884,20.7,1.58,-46.57,275.7,0.12,2.35,48.843918,2.353316,95.2,NaN,,11.48,,0 / 20,,3027,2022-01-10 18:59:33:820
-0.4065,-0.0867,10.736,-0.402,-0.0199,9.7984,0.0219,-0.1041,1.0806,-1.202,0.2491,-0.0884,20.7,1.58,-46.57,275.7,0.12,2.35,48.843918,2.353316,95.2,NaN,,11.48,,0 / 20,,3031,2022-01-10 18:59:33:824
-0.4065,-0.0867,10.736,-0.402,-0.0199,9.7984,0.0219,-0.1041,1.0806,-1.202,0.2491,-0.0884,20.7,1.58,-46.57,275.7,0.12,2.35,48.843918,2.353316,95.2,NaN,,11.48,,0 / 20,,3035,2022-01-10 18:59:33:828
-0.4065,-0.0867,10.736,-0.402,-0.0199,9.7984,0.0219,-0.1041,1.0806,-1.202,0.2491,-0.0884,20.7,1.58,-46.57,275.7,0.12,2.35,48.843918,2.353316,95.2,NaN,,11.48,,0 / 20,,3041,2022-01-10 18:59:33:834
