ACCELEROMETER X (m/s²),ACCELEROMETER Y (m/s²),ACCELEROMETER Z (m/s²),GRAVITY X (m/s²),GRAVITY Y (m/s²),GRAVITY Z (m/s²),LINEAR ACCELERATION X (m/s²),LINEAR ACCELERATION Y (m/s²),LINEAR ACCELERATION Z (m/s²),GYROSCOPE X (rad/s),GYROSCOPE Y (rad/s),GYROSCOPE Z (rad/s),MAGNETIC FIELD X (μT),MAGNETIC FIELD Y (μT),MAGNETIC FIELD Z (μT),ORIENTATION Z (azimuth °),ORIENTATION X (pitch °),ORIENTATION Y (roll °),LOCATION Latitude : ,LOCATION Longitude : ,LOCATION Altitude ( m),LOCATION Altitude-google ( m),LOCATION Speed ( Kmh),LOCATION Accuracy ( m),LOCATION ORIENTATION (°),Satellites in range,GPS NMEA,Time since start in ms ,YYYY-MO-DD HH-MI-SS_SSS
-0.7394,0.7277,9.7349,-0.5724,0.6739,9.7667,-0.1667,-0.0044,0.1577,-0.0356,0.0052,-0.0425,15.6,0.45,-40.12,281.7,-3.98,3.25,48.843895,2.353354,95.2,NaN,,12.854,,0 / 20,,16,2022-01-10 19:24:25:314
-0.7394,0.7277,9.7349,-0.5724,0.6739,9.7667,-0.2279,0.0711,0.0062,-0.0356,0.0052,-0.0425,15.6,0.45,-40.12,281.7,-3.98,3.25,48.843895,2.353354,95.2,NaN,,12.854,,0 / 20,,22,2022-01-10 19:24:25:320
-0.7394,0.7277,9.7349,-0.5724,0.6739,9.7667,-0.2279,0.0711,0.0062,-0.0356,0.0052,-0.0425,15.6,0.45,-40.12,281.7,-3.98,3.25,48.843895,2.353354,95.2,NaN,,12.854,,0 / 20,,26,2022-01-10 19:24:25:324
-0.7011,0.7205,9.6799,-0.5724,0.6739,9.7667,-0.2279,0.0711,0.0062,-0.0356,0.0052,-0.0425,15.6,0.45,-40.12,281.7,-3.98,3.25,48.843895,2.353354,95.2,NaN,,12.854,,0 / 20,,32,2022-01-10 19:24:25:330
-0.7011,0.7205,9.6799,-0.5724,0.6739,9.7667,-0.2279,0.0711,0.0062,-0.076,0.0105,-0.0148,15.6,0.45,-40.12,281.7,-3.98,3.25,48.843895,2.353354,95.2,NaN,,12.854,,0 / 20,,37,2022-01-10 19:24:25:335
-0.7011,0.7205,9.6799,-0.5724,0.6739,9.7667,-0.2279,0.0711,0.0062,-0.076,0.0105,-0.0148,15.38,1.05,-40.2,281.7,-3.98,3.25,48.843895,2.353354,95.2,NaN,,12.854,,0 / 20,,41,2022-01-10 19:24:25:339
-0.7011,0.7205,9.6799,-0.5898,0.6587,9.7667,-0.2279,0.0711,0.0062,-0.076,0.0105,-0.0148,15.38,1.05,-40.2,281.7,-3.98,3.25,48.843895,2.353354,95.2,NaN,,12.854,,0 / 20,,47,2022-01-10 19:24:25:345
-0.7011,0.7205,9.6799,-0.5898,0.6587,9.7667,-0.1029,0.1329,-0.0114,-0.076,0.0105,-0.0148,15.38,1.05,-40.2,281.7,-3.98,3.25,48.843895,2.353354,95.2,NaN,,12.854,,0 / 20,,52,2022-01-10 19:24:25:350
-0.6389,0.7516,9.6966,-0.5898,0.6587,9.7667,-0.1029,0.1329,-0.0114,-0.076,0.0105,-0.0148,15.38,1.05,-40.2,281.7,-3.98,3.25,48.843895,2.353354,95.2,NaN,,12.854,,0 / 20,,57,2022-01-10 19:24:25:355
-0.6389,0.7516,9.6966,-0.5898,0.6587,9.7667,-0.1029,0.1329,-0.0114,-0.076,0.0105,-0.0148,15.38,1.05,-40.2,281.7,-3.98,3.25,48.843895,2.353354,95.2,NaN,,12.854,,0 / 20,,63,2022-01-10 19:24:25:361
-0.6389,0.7516,9.6966,-0.5898,0.6587,9.7667,-0.1029,0.1329,-0.0114,-0.076,0.0105,-0.0148,15.38,1.05,-40.2,281.7,-3.98,3.25,48.843895,2.353354,95.2,NaN,,12.854,,0 / 20,,67,2022-01-10 19:24:25:365
-0.6389,0.7516,9.6966,-0.5898,0.6587,9.7667,-0.1029,0.1329,-0.0114,-0.0654,0.0095,-0.0201,15.38,1.05,-40.2,281.7,-3.98,3.25,48.843895,2.353354,95.2,NaN,,12.854,,0 / 20,,72,2022-01-10 19:24:25:370
-0.6389,0.7516,9.6966,-0.5916,0.6425,9.7677,-0.1029,0.1329,-0.0114,-0.0654,0.0095,-0.0201,14.93,1.2,-40.43,286.58,-3.85,3.46,48.843895,2.353354,95.2,NaN,,12.854,,0 / 20,,77,2022-01-10 19:24:25:375
-0.6389,0.7516,9.6966,-0.5916,0.6425,9.7677,0.0323,0.011,0.04,-0.0654,0.0095,-0.0201,14.93,1.2,-40.43,286.58,-3.85,3.46,48.843895,2.353354,95.2,NaN,,12.854,,0 / 20,,81,2022-01-10 19:24:25:379
-0.5261,0.6105,9.6727,-0.5916,0.6425,9.7677,0.0323,0.011,0.04,-0.0654,0.0095,-0.0201,14.93,1.2,-40.43,286.58,-3.85,3.46,48.843895,2.353354,95.2,NaN,,12.854,,0 / 28,,86,2022-01-10 19:24:25:384
-0.5261,0.6105,9.6727,-0.5916,0.6425,9.7677,0.0323,0.011,0.04,-0.0654,0.0095,-0.0201,14.93,1.2,-40.43,286.58,-3.85,3.46,48.843895,2.353354,95.2,NaN,,12.854,,0 / 28,,91,2022-01-10 19:24:25:389
-0.5261,0.6105,9.6727,-0.5916,0.6425,9.7677,0.0323,0.011,0.04,-0.0654,0.0095,-0.0201,14.93,1.2,-40.43,286.58,-3.85,3.46,48.843895,2.353354,95.2,NaN,,12.854,,0 / 28,,96,2022-01-10 19:24:25:394
-0.5261,0.6105,9.6727,-0.5916,0.6425,9.7677,0.0323,0.011,0.04,-0.0654,0.0095,-0.0201,14.93,1.2,-40.43,286.58,-3.85,3.46,48.843895,2.353354,95.2,NaN,,12.854,,0 / 28,,102,2022-01-10 19:24:25:400
-0.5261,0.6105,9.6727,-0.599,0.6305,9.768,0.0323,0.011,0.04,-0.0292,0.0467,-0.0041,15.3,1.28,-40.5,286.58,-3.85,3.46,48.843895,2.353354,95.2,NaN,,12.854,,0 / 28,,107,2022-01-10 19:24:25:405
-0.6003,0.6248,9.7517,-0.599,0.6305,9.768,-0.0036,-0.0453,0.0289,-0.0292,0.0467,-0.0041,15.3,1.28,-40.5,286.58,-3.85,3.46,48.843895,2.353354,95.2,NaN,,12.854,,0 / 28,,112,2022-01-10 19:24:25:410
-0.6003,0.6248,9.7517,-0.599,0.6305,9.768,-0.0036,-0.0453,0.0289,-0.0292,0.0467,-0.0041,15.3,1.28,-40.5,286.58,-3.85,3.46,48.843895,2.353354,95.2,NaN,,12.854,,0 / 28,,116,2022-01-10 19:24:25:414
-0.6003,0.6248,9.7517,-0.599,0.6305,9.768,-0.0036,-0.0453,0.0289,-0.0292,0.0467,-0.0041,15.3,1.28,-40.5,286.58,-3.85,3.46,48.843895,2.353354,95.2,NaN,,12.854,,0 / 28,,121,2022-01-10 19:24:25:419
-0.6003,0.6248,9.7517,-0.599,0.6305,9.768,-0.0036,-0.0453,0.0289,-0.0292,0.0467,-0.0041,15.3,1.28,-40.5,286.58,-3.85,3.46,48.843895,2.353354,95.2,NaN,,12.854,,0 / 28,,127,2022-01-10 19:24:25:425
-0.6003,0.6248,9.7517,-0.599,0.6305,9.768,-0.0036,-0.0453,0.0289,-0.0292,0.0467,-0.0041,15.3,1.28,-40.5,286.58,-3.85,3.46,48.843895,2.353354,95.2,NaN,,12.854,,0 / 28,,132,2022-01-10 19:24:25:430
-0.6003,0.6248,9.7517,-0.6136,0.6242,9.7675,-0.0036,-0.0453,0.0289,-0.0153,0.0595,-0.0031,15.75,1.65,-40.12,288.87,-3.65,3.59,48.843895,2.353354,95.2,NaN,,12.854,,0 / 28,,136,2022-01-10 19:24:25:434
-0.4854,0.5264,9.6413,-0.6136,0.6242,9.7675,0.1089,-0.0725,-0.0397,-0.0153,0.0595,-0.0031,15.75,1.65,-40.12,288.87,-3.65,3.59,48.843895,2.353354,95.2,NaN,,12.854,,0 / 28,,141,2022-01-10 19:24:25:439
-0.4854,0.5264,9.6413,-0.6136,0.6242,9.7675,0.1089,-0.0725,-0.0397,-0.0153,0.0595,-0.0031,15.75,1.65,-40.12,288.87,-3.65,3.59,48.843895,2.353354,95.2,NaN,,12.854,,0 / 28,,147,2022-01-10 19:24:25:445
-0.4854,0.5264,9.6413,-0.6136,0.6242,9.7675,0.1089,-0.0725,-0.0397,-0.0153,0.0595,-0.0031,15.75,1.65,-40.12,288.87,-3.65,3.59,48.843895,2.353354,95.2,NaN,,12.854,,0 / 28,,151,2022-01-10 19:24:25:449
-0.4854,0.5264,9.6413,-0.6136,0.6242,9.7675,0.1089,-0.0725,-0.0397,-0.0153,0.0595,-0.0031,15.75,1.65,-40.12,288.87,-3.65,3.59,48.843895,2.353354,95.2,NaN,,12.854,,0 / 28,,156,2022-01-10 19:24:25:454
-0.4854,0.5264,9.6413,-0.6136,0.6242,9.7675,0.1089,-0.0725,-0.0397,-0.0153,0.0595,-0.0031,15.75,1.65,-40.12,288.87,-3.65,3.59,48.843895,2.353354,95.2,NaN,,12.854,,0 / 28,,162,2022-01-10 19:24:25:460
-0.5405,0.4618,9.6703,-0.6136,0.6242,9.7675,0.1089,-0.0725,-0.0397,-0.0153,0.0595,-0.0031,15.75,1.65,-40.12,288.87,-3.65,3.59,48.843895,2.353354,95.2,NaN,,12.854,,0 / 28,,166,2022-01-10 19:24:25:464
-0.5405,0.4618,9.6703,-0.6256,0.6075,9.7678,0.0887,-0.1372,2.0E-4,-0.0345,0.0329,-0.019,15.6,1.28,-39.68,288.87,-3.65,3.59,48.843895,2.353354,95.2,NaN,,12.854,,0 / 28,,171,2022-01-10 19:24:25:469
-0.5405,0.4618,9.6703,-0.6256,0.6075,9.7678,0.0887,-0.1372,2.0E-4,-0.0345,0.0329,-0.019,15.6,1.28,-39.68,288.87,-3.65,3.59,48.843895,2.353354,95.2,NaN,,12.854,,0 / 28,,177,2022-01-10 19:24:25:475
-0.5405,0.4618,9.6703,-0.6256,0.6075,9.7678,0.0887,-0.1372,2.0E-4,-0.0345,0.0329,-0.019,15.6,1.28,-39.68,288.87,-3.65,3.59,48.843895,2.353354,95.2,NaN,,12.854,,0 / 28,,182,2022-01-10 19:24:25:480
-0.5405,0.4618,9.6703,-0.6256,0.6075,9.7678,0.0887,-0.1372,2.0E-4,-0.0345,0.0329,-0.019,15.6,1.28,-39.68,288.87,-3.65,3.59,48.843895,2.353354,95.2,NaN,,12.854,,0 / 28,,187,2022-01-10 19:24:25:485
-0.5405,0.4618,9.6703,-0.6256,0.6075,9.7678,0.0887,-0.1372,2.0E-4,-0.0345,0.0329,-0.019,15.6,1.28,-39.68,288.87,-3.65,3.59,48.843895,2.353354,95.2,NaN,,12.854,,0 / 28,,192,2022-01-10 19:24:25:490
-0.6051,0.5121,9.7182,-0.6256,0.6075,9.7678,0.0887,-0.1372,2.0E-4,-0.0345,0.0329,-0.019,15.6,1.28,-39.68,288.87,-3.65,3.59,48.843895,2.353354,95.2,NaN,,12.854,,0 / 28,,197,2022-01-10 19:24:25:495
-0.6051,0.5121,9.7182,-0.6284,0.5914,9.7686,0.0887,-0.1372,2.0E-4,-0.027,-0.0033,-0.0521,15.45,1.5,-39.68,289.79,-3.46,3.68,48.843895,2.353354,95.2,NaN,,12.854,,0 / 28,,202,2022-01-10 19:24:25:500
-0.6051,0.5121,9.7182,-0.6284,0.5914,9.7686,0.0091,-0.1324,0.0549,-0.027,-0.0033,-0.0521,15.45,1.5,-39.68,289.79,-3.46,3.68,48.843895,2.353354,95.2,NaN,,12.854,,0 / 28,,206,2022-01-10 19:24:25:504
-0.6051,0.5121,9.7182,-0.6284,0.5914,9.7686,0.0091,-0.1324,0.0549,-0.027,-0.0033,-0.0521,15.45,1.5,-39.68,289.79,-3.46,3.68,48.843895,2.353354,95.2,NaN,,12.854,,0 / 28,,212,2022-01-10 19:24:25:510
-0.6051,0.5121,9.7182,-0.6284,0.5914,9.7686,0.0091,-0.1324,0.0549,-0.027,-0.0033,-0.0521,15.45,1.5,-39.68,289.79,-3.46,3.68,48.843895,2.353354,95.2,NaN,,12.854,,0 / 28,,217,2022-01-10 19:24:25:515
-0.6461,0.4977,9.711,-0.6284,0.5914,9.7686,0.0091,-0.1324,0.0549,-0.027,-0.0033,-0.0521,15.45,1.5,-39.68,289.79,-3.46,3.68,48.843895,2.353354,95.2,NaN,,12.854,,0 / 28,,221,2022-01-10 19:24:25:519
-0.6461,0.4977,9.711,-0.6284,0.5914,9.7686,0.0091,-0.1324,0.0549,-0.0111,-0.0236,-0.0467,15.45,1.5,-39.68,289.79,-3.46,3.68,48.843895,2.353354,95.2,NaN,,12.854,,0 / 28,,227,2022-01-10 19:24:25:525
-0.6461,0.4977,9.711,-0.6277,0.5781,9.7694,0.0091,-0.1324,0.0549,-0.0111,-0.0236,-0.0467,15.45,1.5,-39.68,289.79,-3.46,3.68,48.843895,2.353354,95.2,NaN,,12.854,,0 / 28,,232,2022-01-10 19:24:25:530
-0.6461,0.4977,9.711,-0.6277,0.5781,9.7694,-0.0459,-0.0608,0.0128,-0.0111,-0.0236,-0.0467,14.93,1.35,-39.75,289.79,-3.46,3.68,48.843895,2.353354,95.2,NaN,,12.854,,0 / 28,,237,2022-01-10 19:24:25:535
-0.6461,0.4977,9.711,-0.6277,0.5781,9.7694,-0.0459,-0.0608,0.0128,-0.0111,-0.0236,-0.0467,14.93,1.35,-39.75,289.79,-3.46,3.68,48.843895,2.353354,95.2,NaN,,12.854,,0 / 28,,242,2022-01-10 19:24:25:540
-0.6437,0.5982,9.7182,-0.6277,0.5781,9.7694,-0.0459,-0.0608,0.0128,-0.0111,-0.0236,-0.0467,14.93,1.35,-39.75,289.79,-3.46,3.68,48.843895,2.353354,95.2,NaN,,12.854,,0 / 28,,246,2022-01-10 19:24:25:544
-0.6437,0.5982,9.7182,-0.6277,0.5781,9.7694,-0.0459,-0.0608,0.0128,-0.0111,-0.0236,-0.0467,14.93,1.35,-39.75,289.79,-3.46,3.68,48.843895,2.353354,95.2,NaN,,12.854,,0 / 28,,252,2022-01-10 19:24:25:550
-0.6437,0.5982,9.7182,-0.6277,0.5781,9.7694,-0.0459,-0.0608,0.0128,-0.0111,-0.0236,-0.0467,14.93,1.35,-39.75,289.79,-3.46,3.68,48.843895,2.353354,95.2,NaN,,12.854,,0 / 28,,256,2022-01-10 19:24:25:554
-0.6437,0.5982,9.7182,-0.6337,0.5793,9.769,-0.0459,-0.0608,0.0128,0.0294,0.0659,-0.0201,14.93,1.35,-39.75,289.79,-3.46,3.68,48.843895,2.353354,95.2,NaN,,12.854,,0 / 28,,261,2022-01-10 19:24:25:559
-0.6437,0.5982,9.7182,-0.6337,0.5793,9.769,-0.0879,0.0606,0.0423,0.0294,0.0659,-0.0201,14.93,1.35,-39.75,289.79,-3.46,3.68,48.843895,2.353354,95.2,NaN,,12.854,,0 / 28,,267,2022-01-10 19:24:25:565
-0.6437,0.5982,9.7182,-0.6337,0.5793,9.769,-0.0879,0.0606,0.0423,0.0294,0.0659,-0.0201,14.93,1.35,-39.75,289.79,-3.46,3.68,48.843895,2.353354,95.2,NaN,,12.854,,0 / 28,,271,2022-01-10 19:24:25:569
-0.816,0.7229,10.0152,-0.6337,0.5793,9.769,-0.0879,0.0606,0.0423,0.0294,0.0659,-0.0201,15.08,1.8,-40.28,289.61,-3.39,3.71,48.843895,2.353354,95.2,NaN,,12.854,,0 / 28,,277,2022-01-10 19:24:25:575
-0.816,0.7229,10.0152,-0.6337,0.5793,9.769,-0.0879,0.0606,0.0423,0.0294,0.0659,-0.0201,15.08,1.8,-40.28,289.61,-3.39,3.71,48.843895,2.353354,95.2,NaN,,12.854,,0 / 28,,281,2022-01-10 19:24:25:579
-0.816,0.7229,10.0152,-0.6337,0.5793,9.769,-0.0879,0.0606,0.0423,0.0294,0.0659,-0.0201,15.08,1.8,-40.28,289.61,-3.39,3.71,48.843895,2.353354,95.2,NaN,,12.854,,0 / 28,,286,2022-01-10 19:24:25:584
-0.816,0.7229,10.0152,-0.6136,0.5983,9.7691,-0.0879,0.0606,0.0423,0.072,-0.3154,0.0119,15.08,1.8,-40.28,289.61,-3.39,3.71,48.843895,2.353354,95.2,NaN,,12.854,,0 / 28,,292,2022-01-10 19:24:25:590
-0.816,0.7229,10.0152,-0.6136,0.5983,9.7691,-0.1989,0.2017,0.3156,0.072,-0.3154,0.0119,15.08,1.8,-40.28,289.61,-3.39,3.71,48.843895,2.353354,95.2,NaN,,12.854,,0 / 28,,296,2022-01-10 19:24:25:594
-0.816,0.7229,10.0152,-0.6136,0.5983,9.7691,-0.1989,0.2017,0.3156,0.072,-0.3154,0.0119,15.08,1.8,-40.28,289.61,-3.39,3.71,48.843895,2.353354,95.2,NaN,,12.854,,0 / 28,,301,2022-01-10 19:24:25:599
-0.6987,0.6751,9.7732,-0.6136,0.5983,9.7691,-0.1989,0.2017,0.3156,0.072,-0.3154,0.0119,15.3,1.88,-40.05,289.61,-3.39,3.71,48.843895,2.353354,95.2,NaN,,12.854,,0 / 28,,306,2022-01-10 19:24:25:604
-0.6987,0.6751,9.7732,-0.6136,0.5983,9.7691,-0.1989,0.2017,0.3156,0.072,-0.3154,0.0119,15.3,1.88,-40.05,289.61,-3.39,3.71,48.843895,2.353354,95.2,NaN,,12.854,,0 / 28,,312,2022-01-10 19:24:25:610
-0.6987,0.6751,9.7732,-0.6136,0.5983,9.7691,-0.1989,0.2017,0.3156,0.072,-0.3154,0.0119,15.3,1.88,-40.05,289.61,-3.39,3.71,48.843895,2.353354,95.2,NaN,,12.854,,0 / 28,,317,2022-01-10 19:24:25:615
-0.6987,0.6751,9.7732,-0.536,0.6196,9.7724,-0.1989,0.2017,0.3156,0.0603,-0.3016,-0.0031,15.3,1.88,-40.05,289.61,-3.39,3.71,48.843895,2.353354,95.2,NaN,,12.854,,0 / 28,,322,2022-01-10 19:24:25:620
-0.6987,0.6751,9.7732,-0.536,0.6196,9.7724,-0.0522,-0.0118,-0.0832,0.0603,-0.3016,-0.0031,15.3,1.88,-40.05,289.61,-3.39,3.71,48.843895,2.353354,95.2,NaN,,12.854,,0 / 28,,327,2022-01-10 19:24:25:625
-0.3873,0.699,9.5958,-0.536,0.6196,9.7724,-0.0522,-0.0118,-0.0832,0.0603,-0.3016,-0.0031,15.3,1.88,-40.05,289.61,-3.39,3.71,48.843895,2.353354,95.2,NaN,,12.854,,0 / 28,,332,2022-01-10 19:24:25:630
-0.3873,0.699,9.5958,-0.536,0.6196,9.7724,-0.0522,-0.0118,-0.0832,0.0603,-0.3016,-0.0031,15.3,1.88,-40.05,289.61,-3.39,3.71,48.843895,2.353354,95.2,NaN,,12.854,,0 / 28,,337,2022-01-10 19:24:25:635
-0.3873,0.699,9.5958,-0.536,0.6196,9.7724,-0.0522,-0.0118,-0.0832,0.0603,-0.3016,-0.0031,14.63,2.1,-40.35,289.67,-3.62,3.14,48.843895,2.353354,95.2,NaN,,12.854,,0 / 28,,342,2022-01-10 19:24:25:640
-0.3873,0.699,9.5958,-0.4734,0.6348,9.7746,-0.0522,-0.0118,-0.0832,0.0603,-0.3016,-0.0031,14.63,2.1,-40.35,289.67,-3.62,3.14,48.843895,2.353354,95.2,NaN,,12.854,,0 / 28,,347,2022-01-10 19:24:25:645
-0.3873,0.699,9.5958,-0.4734,0.6348,9.7746,-0.0522,-0.0118,-0.0832,0.0603,-0.3016,-0.0031,14.63,2.1,-40.35,289.67,-3.62,3.14,48.843895,2.353354,95.2,NaN,,12.854,,0 / 28,,352,2022-01-10 19:24:25:650
-0.495,0.7205,9.6894,-0.4734,0.6348,9.7746,0.0332,0.1363,-0.0995,0.0188,-0.0917,-0.0244,14.63,2.1,-40.35,289.67,-3.62,3.14,48.843895,2.353354,95.2,NaN,,12.854,,0 / 28,,357,2022-01-10 19:24:25:655
-0.495,0.7205,9.6894,-0.4734,0.6348,9.7746,0.0332,0.1363,-0.0995,0.0188,-0.0917,-0.0244,14.63,2.1,-40.35,289.67,-3.62,3.14,48.843895,2.353354,95.2,NaN,,12.854,,0 / 28,,362,2022-01-10 19:24:25:660
-0.495,0.7205,9.6894,-0.4734,0.6348,9.7746,0.0332,0.1363,-0.0995,0.0188,-0.0917,-0.0244,14.63,2.1,-40.35,289.67,-3.62,3.14,48.843895,2.353354,95.2,NaN,,12.854,,0 / 28,,366,2022-01-10 19:24:25:664
-0.495,0.7205,9.6894,-0.4734,0.6348,9.7746,0.0332,0.1363,-0.0995,0.0188,-0.0917,-0.0244,14.48,1.73,-40.5,289.67,-3.62,3.14,48.843895,2.353354,95.2,NaN,,12.854,,0 / 28,,371,2022-01-10 19:24:25:669
-0.495,0.7205,9.6894,-0.4551,0.6466,9.7747,0.0332,0.1363,-0.0995,0.0188,-0.0917,-0.0244,14.48,1.73,-40.5,289.67,-3.62,3.14,48.843895,2.353354,95.2,NaN,,12.854,,0 / 28,,377,2022-01-10 19:24:25:675
-0.495,0.7205,9.6894,-0.4551,0.6466,9.7747,-0.0279,0.047,0.0114,0.0188,-0.0917,-0.0244,14.48,1.73,-40.5,289.67,-3.62,3.14,48.843895,2.353354,95.2,NaN,,12.854,,0 / 28,,381,2022-01-10 19:24:25:679
-0.4137,0.6368,9.6532,-0.4551,0.6466,9.7747,-0.0279,0.047,0.0114,0.0614,-0.0076,-0.0158,14.48,1.73,-40.5,289.67,-3.62,3.14,48.843895,2.353354,95.2,NaN,,12.854,,0 / 28,,386,2022-01-10 19:24:25:684
-0.4137,0.6368,9.6532,-0.4551,0.6466,9.7747,-0.0279,0.047,0.0114,0.0614,-0.0076,-0.0158,14.48,1.73,-40.5,289.67,-3.62,3.14,48.843895,2.353354,95.2,NaN,,12.854,,0 / 28,,392,2022-01-10 19:24:25:690
-0.4137,0.6368,9.6532,-0.4551,0.6466,9.7747,-0.0279,0.047,0.0114,0.0614,-0.0076,-0.0158,14.48,1.73,-40.5,289.67,-3.62,3.14,48.843895,2.353354,95.2,NaN,,12.854,,0 / 28,,397,2022-01-10 19:24:25:695
-0.4137,0.6368,9.6532,-0.4506,0.6619,9.7739,-0.0279,0.047,0.0114,0.0614,-0.0076,-0.0158,14.48,1.88,-40.5,291.31,-3.87,2.64,48.843895,2.353354,95.2,NaN,,12.854,,0 / 28,,402,2022-01-10 19:24:25:700
-0.4137,0.6368,9.6532,-0.4506,0.6619,9.7739,-0.0279,0.047,0.0114,0.0614,-0.0076,-0.0158,14.48,1.88,-40.5,291.31,-3.87,2.64,48.843895,2.353354,95.2,NaN,,12.854,,0 / 28,,407,2022-01-10 19:24:25:705
-0.3945,0.632,9.6054,-0.4506,0.6619,9.7739,0.0149,-0.002,0.029,0.0614,-0.0076,-0.0158,14.48,1.88,-40.5,291.31,-3.87,2.64,48.843895,2.353354,95.2,NaN,,12.854,,0 / 28,,412,2022-01-10 19:24:25:710
-0.3945,0.632,9.6054,-0.4506,0.6619,9.7739,0.0149,-0.002,0.029,0.0614,-0.0076,-0.0158,14.48,1.88,-40.5,291.31,-3.87,2.64,48.843895,2.353354,95.2,NaN,,12.854,,0 / 28,,417,2022-01-10 19:24:25:715
-0.3945,0.632,9.6054,-0.4506,0.6619,9.7739,0.0149,-0.002,0.029,0.0284,-0.0225,-0.0457,14.48,1.88,-40.5,291.31,-3.87,2.64,48.843895,2.353354,95.2,NaN,,12.854,,0 / 28,,421,2022-01-10 19:24:25:719
-0.3945,0.632,9.6054,-0.4506,0.6619,9.7739,0.0149,-0.002,0.029,0.0284,-0.0225,-0.0457,14.48,1.88,-40.5,291.31,-3.87,2.64,48.843895,2.353354,95.2,NaN,,12.854,,0 / 28,,427,2022-01-10 19:24:25:725
-0.3945,0.632,9.6054,-0.4428,0.6704,9.7737,0.0149,-0.002,0.029,0.0284,-0.0225,-0.0457,14.48,1.88,-40.5,291.31,-3.87,2.64,48.843895,2.353354,95.2,NaN,,12.854,,0 / 28,,431,2022-01-10 19:24:25:729
-0.3945,0.632,9.6054,-0.4428,0.6704,9.7737,0.0149,-0.002,0.029,0.0284,-0.0225,-0.0457,14.48,1.88,-40.5,291.31,-3.87,2.64,48.843895,2.353354,95.2,NaN,,12.854,,0 / 28,,436,2022-01-10 19:24:25:734
-0.4089,0.5815,9.6126,-0.4428,0.6704,9.7737,0.0615,-0.0288,-0.1276,0.0284,-0.0225,-0.0457,14.55,1.65,-40.5,291.31,-3.87,2.64,48.843895,2.353354,95.2,NaN,,12.854,,0 / 28,,442,2022-01-10 19:24:25:740
-0.4089,0.5815,9.6126,-0.4428,0.6704,9.7737,0.0615,-0.0288,-0.1276,0.0284,-0.0225,-0.0457,14.55,1.65,-40.5,291.31,-3.87,2.64,48.843895,2.353354,95.2,NaN,,12.854,,0 / 28,,447,2022-01-10 19:24:25:745
-0.4089,0.5815,9.6126,-0.4428,0.6704,9.7737,0.0615,-0.0288,-0.1276,0.0028,0.0489,-0.0169,14.55,1.65,-40.5,291.31,-3.87,2.64,48.843895,2.353354,95.2,NaN,,12.854,,0 / 28,,451,2022-01-10 19:24:25:749
-0.4089,0.5815,9.6126,-0.4428,0.6704,9.7737,0.0615,-0.0288,-0.1276,0.0028,0.0489,-0.0169,14.55,1.65,-40.5,291.31,-3.87,2.64,48.843895,2.353354,95.2,NaN,,12.854,,0 / 28,,456,2022-01-10 19:24:25:754
-0.4089,0.5815,9.6126,-0.4428,0.6704,9.7737,0.0615,-0.0288,-0.1276,0.0028,0.0489,-0.0169,14.55,1.65,-40.5,291.31,-3.87,2.64,48.843895,2.353354,95.2,NaN,,12.854,,0 / 28,,462,2022-01-10 19:24:25:760
-0.4089,0.5815,9.6126,-0.4501,0.6691,9.7734,0.0615,-0.0288,-0.1276,0.0028,0.0489,-0.0169,14.55,1.65,-40.5,291.31,-3.87,2.64,48.843895,2.353354,95.2,NaN,,12.854,,0 / 28,,466,2022-01-10 19:24:25:764
-0.4663,0.6368,9.7899,-0.4501,0.6691,9.7734,-0.0209,-0.0409,0.1166,0.0028,0.0489,-0.0169,14.33,1.2,-40.57,287.59,-3.91,2.64,48.843895,2.353354,95.2,NaN,,12.854,,0 / 28,,476,2022-01-10 19:24:25:774
-0.4663,0.6368,9.7899,-0.4501,0.6691,9.7734,-0.0209,-0.0409,0.1166,0.0028,0.0489,-0.0169,14.33,1.2,-40.57,287.59,-3.91,2.64,48.843895,2.353354,95.2,NaN,,12.854,,0 / 28,,477,2022-01-10 19:24:25:775
-0.4663,0.6368,9.7899,-0.4501,0.6691,9.7734,-0.0209,-0.0409,0.1166,0.0028,0.0489,-0.0169,14.33,1.2,-40.57,287.59,-3.91,2.64,48.843895,2.353354,95.2,NaN,,12.854,,0 / 28,,483,2022-01-10 19:24:25:781
-0.4663,0.6368,9.7899,-0.4501,0.6691,9.7734,-0.0209,-0.0409,0.1166,0.0028,0.0489,-0.0169,14.33,1.2,-40.57,287.59,-3.91,2.64,48.843895,2.353354,95.2,NaN,,12.854,,0 / 28,,486,2022-01-10 19:24:25:784
-0.4663,0.6368,9.7899,-0.4485,0.6792,9.7728,-0.0209,-0.0409,0.1166,0.0507,-0.064,-0.0308,14.33,1.2,-40.57,287.59,-3.91,2.64,48.843895,2.353354,95.2,NaN,,12.854,,0 / 28,,491,2022-01-10 19:24:25:789
-0.4663,0.6368,9.7899,-0.4485,0.6792,9.7728,-0.0209,-0.0409,0.1166,0.0507,-0.064,-0.0308,14.33,1.2,-40.57,287.59,-3.91,2.64,48.843895,2.353354,95.2,NaN,,12.854,,0 / 28,,497,2022-01-10 19:24:25:795
-0.3224,0.6799,9.6894,-0.4485,0.6792,9.7728,0.0165,-0.0055,0.0148,0.0507,-0.064,-0.0308,14.33,1.2,-40.57,287.59,-3.91,2.64,48.843895,2.353354,95.2,NaN,,12.854,,0 / 28,,501,2022-01-10 19:24:25:799
-0.3224,0.6799,9.6894,-0.4485,0.6792,9.7728,0.0165,-0.0055,0.0148,0.0507,-0.064,-0.0308,14.48,0.98,-40.28,287.59,-3.91,2.64,48.843895,2.353354,95.2,NaN,,12.854,,0 / 28,,506,2022-01-10 19:24:25:804
-0.3224,0.6799,9.6894,-0.4485,0.6792,9.7728,0.0165,-0.0055,0.0148,0.0507,-0.064,-0.0308,14.48,0.98,-40.28,287.59,-3.91,2.64,48.843895,2.353354,95.2,NaN,,12.854,,0 / 28,,512,2022-01-10 19:24:25:810
-0.5094,0.7828,9.9096,-0.4346,0.693,9.7725,-0.072,0.0716,0.175,0.0646,-0.0768,0.0097,15.15,1.28,-39.9,286.15,-3.99,2.54,48.843895,2.353354,95.2,NaN,,12.854,,0 / 28,,568,2022-01-10 19:24:25:866
-0.5094,0.7828,9.9096,-0.4346,0.693,9.7725,-0.072,0.0716,0.175,0.0646,-0.0768,0.0097,15.15,1.28,-39.9,286.15,-3.99,2.54,48.843895,2.353354,95.2,NaN,,12.854,,0 / 28,,569,2022-01-10 19:24:25:867
-0.5094,0.7828,9.9096,-0.4346,0.693,9.7725,-0.072,0.0716,0.175,0.0646,-0.0768,0.0097,15.15,1.28,-39.9,286.15,-3.99,2.54,48.843895,2.353354,95.2,NaN,,12.854,,0 / 28,,569,2022-01-10 19:24:25:867
-0.5094,0.7828,9.9096,-0.4346,0.693,9.7725,-0.072,0.0716,0.175,0.0646,-0.0768,0.0097,15.15,1.28,-39.9,286.15,-3.99,2.54,48.843895,2.353354,95.2,NaN,,12.854,,0 / 28,,569,2022-01-10 19:24:25:867
-0.5094,0.7828,9.9096,-0.4346,0.693,9.7725,-0.072,0.0716,0.175,0.0646,-0.0768,0.0097,15.15,1.28,-39.9,286.15,-3.99,2.54,48.843895,2.353354,95.2,NaN,,12.854,,0 / 28,,569,2022-01-10 19:24:25:867
-0.5094,0.7828,9.9096,-0.4346,0.693,9.7725,-0.072,0.0716,0.175,0.0646,-0.0768,0.0097,15.15,1.28,-39.9,286.15,-3.99,2.54,48.843895,2.353354,95.2,NaN,,12.854,,0 / 28,,570,2022-01-10 19:24:25:868
-0.5094,0.7828,9.9096,-0.4346,0.693,9.7725,-0.072,0.0716,0.175,0.0646,-0.0768,0.0097,15.15,1.28,-39.9,286.15,-3.99,2.54,48.843895,2.353354,95.2,NaN,,12.854,,0 / 28,,570,2022-01-10 19:24:25:868
-0.5094,0.7828,9.9096,-0.4346,0.693,9.7725,-0.072,0.0716,0.175,0.0646,-0.0768,0.0097,15.15,1.28,-39.9,286.15,-3.99,2.54,48.843895,2.353354,95.2,NaN,,12.854,,0 / 28,,570,2022-01-10 19:24:25:868
-0.5094,0.7828,9.9096,-0.4346,0.693,9.7725,-0.072,0.0716,0.175,0.0646,-0.0768,0.0097,15.15,1.28,-39.9,286.15,-3.99,2.54,48.843895,2.353354,95.2,NaN,,12.854,,0 / 28,,570,2022-01-10 19:24:25:868
-0.5094,0.7828,9.9096,-0.4346,0.693,9.7725,-0.072,0.0716,0.175,0.0646,-0.0768,0.0097,15.15,1.28,-39.9,286.15,-3.99,2.54,48.843895,2.353354,95.2,NaN,,12.854,,0 / 28,,570,2022-01-10 19:24:25:868
-0.5094,0.7828,9.9096,-0.4346,0.693,9.7725,-0.072,0.0716,0.175,0.0646,-0.0768,0.0097,15.15,1.28,-39.9,286.15,-3.99,2.54,48.843895,2.353354,95.2,NaN,,12.854,,0 / 28,,570,2022-01-10 19:24:25:868
-0.5094,0.7828,9.9096,-0.4346,0.693,9.7725,-0.072,0.0716,0.175,0.0646,-0.0768,0.0097,15.08,1.8,-39.53,286.15,-3.99,2.54,48.843895,2.353354,95.2,NaN,,12.854,,0 / 28,,572,2022-01-10 19:24:25:870
-0.5094,0.7828,9.9096,-0.4346,0.693,9.7725,-0.072,0.0716,0.175,0.0646,-0.0768,0.0097,15.08,1.8,-39.53,286.15,-3.99,2.54,48.843895,2.353354,95.2,NaN,,12.854,,0 / 28,,577,2022-01-10 19:24:25:875
-0.5094,0.7828,9.9096,-0.4346,0.693,9.7725,-0.072,0.0716,0.175,0.1477,0.0318,1.0E-4,15.08,1.8,-39.53,286.15,-3.99,2.54,48.843895,2.353354,95.2,NaN,,12.854,,0 / 28,,581,2022-01-10 19:24:25:879
-0.3514,0.591,9.7756,-0.4218,0.7245,9.7708,-0.072,0.0716,0.175,0.1477,0.0318,1.0E-4,15.08,1.8,-39.53,286.15,-3.99,2.54,48.843895,2.353354,95.2,NaN,,12.854,,0 / 28,,587,2022-01-10 19:24:25:885
-0.3514,0.591,9.7756,-0.4218,0.7245,9.7708,0.0789,-0.1262,0.0999,0.1477,0.0318,1.0E-4,15.08,1.8,-39.53,286.15,-3.99,2.54,48.843895,2.353354,95.2,NaN,,12.854,,0 / 28,,591,2022-01-10 19:24:25:889
-0.3514,0.591,9.7756,-0.4218,0.7245,9.7708,0.0789,-0.1262,0.0999,0.1477,0.0318,1.0E-4,15.08,1.8,-39.53,286.15,-3.99,2.54,48.843895,2.353354,95.2,NaN,,12.854,,0 / 28,,597,2022-01-10 19:24:25:895
-0.3514,0.591,9.7756,-0.4218,0.7245,9.7708,0.0789,-0.1262,0.0999,0.1477,0.0318,1.0E-4,14.63,1.5,-39.75,290.64,-4.24,2.47,48.843895,2.353354,95.2,NaN,,12.854,,0 / 28,,603,2022-01-10 19:24:25:901
-0.3514,0.591,9.7756,-0.4218,0.7245,9.7708,0.0789,-0.1262,0.0999,0.1477,0.0318,1.0E-4,14.63,1.5,-39.75,290.64,-4.24,2.47,48.843895,2.353354,95.2,NaN,,12.854,,0 / 28,,607,2022-01-10 19:24:25:905
-0.6051,0.6894,10.2021,-0.4218,0.7245,9.7708,0.0789,-0.1262,0.0999,0.2563,0.083,0.0033,14.63,1.5,-39.75,290.64,-4.24,2.47,48.843895,2.353354,95.2,NaN,,12.854,,0 / 28,,611,2022-01-10 19:24:25:909
-0.6051,0.6894,10.2021,-0.4446,0.7773,9.7657,0.0789,-0.1262,0.0999,0.2563,0.083,0.0033,14.63,1.5,-39.75,290.64,-4.24,2.47,48.843895,2.353354,95.2,NaN,,12.854,,0 / 28,,617,2022-01-10 19:24:25:915
-0.6051,0.6894,10.2021,-0.4446,0.7773,9.7657,-0.126,-0.077,0.4839,0.2563,0.083,0.0033,14.63,1.5,-39.75,290.64,-4.24,2.47,48.843895,2.353354,95.2,NaN,,12.854,,0 / 28,,622,2022-01-10 19:24:25:920
-0.6051,0.6894,10.2021,-0.4446,0.7773,9.7657,-0.126,-0.077,0.4839,0.2563,0.083,0.0033,14.63,1.5,-39.75,290.64,-4.24,2.47,48.843895,2.353354,95.2,NaN,,12.854,,0 / 28,,627,2022-01-10 19:24:25:925
-0.6051,0.6894,10.2021,-0.4446,0.7773,9.7657,-0.126,-0.077,0.4839,0.2563,0.083,0.0033,14.63,1.5,-39.75,290.64,-4.24,2.47,48.843895,2.353354,95.2,NaN,,12.854,,0 / 28,,631,2022-01-10 19:24:25:929
-0.6051,0.6894,10.2021,-0.4446,0.7773,9.7657,-0.126,-0.077,0.4839,0.2563,0.083,0.0033,14.63,1.5,-39.75,290.64,-4.24,2.47,48.843895,2.353354,95.2,NaN,,12.854,,0 / 28,,637,2022-01-10 19:24:25:935
-0.3802,0.8067,10.0104,-0.4446,0.7773,9.7657,-0.126,-0.077,0.4839,0.4907,0.0798,-0.018,14.33,1.05,-39.98,290.64,-4.24,2.47,48.843895,2.353354,95.2,NaN,,12.854,,0 / 28,,641,2022-01-10 19:24:25:939
-0.3802,0.8067,10.0104,-0.4656,0.8849,9.7555,-0.126,-0.077,0.4839,0.4907,0.0798,-0.018,14.33,1.05,-39.98,290.64,-4.24,2.47,48.843895,2.353354,95.2,NaN,,12.854,,0 / 28,,647,2022-01-10 19:24:25:945
-0.3802,0.8067,10.0104,-0.4656,0.8849,9.7555,0.0899,-0.0618,0.3044,0.4907,0.0798,-0.018,14.33,1.05,-39.98,290.64,-4.24,2.47,48.843895,2.353354,95.2,NaN,,12.854,,0 / 28,,651,2022-01-10 19:24:25:949
-0.3802,0.8067,10.0104,-0.4656,0.8849,9.7555,0.0899,-0.0618,0.3044,0.4907,0.0798,-0.018,14.33,1.05,-39.98,290.64,-4.24,2.47,48.843895,2.353354,95.2,NaN,,12.854,,0 / 28,,657,2022-01-10 19:24:25:955
-0.3802,0.8067,10.0104,-0.4656,0.8849,9.7555,0.0899,-0.0618,0.3044,0.4907,0.0798,-0.018,14.33,1.05,-39.98,290.64,-4.24,2.47,48.843895,2.353354,95.2,NaN,,12.854,,0 / 28,,661,2022-01-10 19:24:25:959
-0.3802,0.8067,10.0104,-0.4656,0.8849,9.7555,0.0899,-0.0618,0.3044,0.4907,0.0798,-0.018,14.33,1.05,-39.98,290.64,-4.24,2.47,48.843895,2.353354,95.2,NaN,,12.854,,0 / 28,,667,2022-01-10 19:24:25:965
-0.3344,1.0056,9.8426,-0.4656,0.8849,9.7555,0.0899,-0.0618,0.3044,0.7315,0.0617,-0.0063,15.15,0.38,-40.12,285.68,-5.18,2.73,48.843895,2.353354,95.2,NaN,,12.854,,0 / 28,,672,2022-01-10 19:24:25:970
-0.3344,1.0056,9.8426,-0.4656,0.8849,9.7555,0.0899,-0.0618,0.3044,0.7315,0.0617,-0.0063,15.15,0.38,-40.12,285.68,-5.18,2.73,48.843895,2.353354,95.2,NaN,,12.854,,0 / 28,,676,2022-01-10 19:24:25:974
-0.3344,1.0056,9.8426,-0.4832,1.0659,9.7366,0.1415,-0.0541,0.1551,0.7315,0.0617,-0.0063,15.15,0.38,-40.12,285.68,-5.18,2.73,48.843895,2.353354,95.2,NaN,,12.854,,0 / 28,,681,2022-01-10 19:24:25:979
-0.3344,1.0056,9.8426,-0.4832,1.0659,9.7366,0.1415,-0.0541,0.1551,0.7315,0.0617,-0.0063,15.15,0.38,-40.12,285.68,-5.18,2.73,48.843895,2.353354,95.2,NaN,,12.854,,0 / 28,,686,2022-01-10 19:24:25:984
-0.3344,1.0056,9.8426,-0.4832,1.0659,9.7366,0.1415,-0.0541,0.1551,0.7315,0.0617,-0.0063,15.15,0.38,-40.12,285.68,-5.18,2.73,48.843895,2.353354,95.2,NaN,,12.854,,0 / 28,,691,2022-01-10 19:24:25:989
-0.4663,1.1758,10.6235,-0.4832,1.0659,9.7366,0.1415,-0.0541,0.1551,0.7315,0.0617,-0.0063,15.15,0.38,-40.12,285.68,-5.18,2.73,48.843895,2.353354,95.2,NaN,,12.854,,0 / 28,,696,2022-01-10 19:24:25:994
-0.4663,1.1758,10.6235,-0.4832,1.0659,9.7366,0.1415,-0.0541,0.1551,1.1491,0.2353,-0.0244,16.05,-0.3,-40.35,285.68,-5.18,2.73,48.843895,2.353354,95.2,NaN,,12.854,,0 / 28,,702,2022-01-10 19:24:26:000
-0.4663,1.1758,10.6235,-0.5256,1.3339,9.7013,-0.0133,-0.1066,0.8974,1.1491,0.2353,-0.0244,16.05,-0.3,-40.35,285.68,-5.18,2.73,48.843895,2.353354,95.2,NaN,,12.854,,0 / 28,,706,2022-01-10 19:24:26:004
-0.4663,1.1758,10.6235,-0.5256,1.3339,9.7013,-0.0133,-0.1066,0.8974,1.1491,0.2353,-0.0244,16.05,-0.3,-40.35,285.68,-5.18,2.73,48.843895,2.353354,95.2,NaN,,12.854,,0 / 28,,712,2022-01-10 19:24:26:010
-0.4663,1.1758,10.6235,-0.5256,1.3339,9.7013,-0.0133,-0.1066,0.8974,1.1491,0.2353,-0.0244,16.05,-0.3,-40.35,285.68,-5.18,2.73,48.843895,2.353354,95.2,NaN,,12.854,,0 / 28,,716,2022-01-10 19:24:26:014
-0.7418,1.5613,10.3528,-0.5256,1.3339,9.7013,-0.0133,-0.1066,0.8974,1.1491,0.2353,-0.0244,16.05,-0.3,-40.35,285.68,-5.18,2.73,48.843895,2.353354,95.2,NaN,,12.854,,0 / 28,,722,2022-01-10 19:24:26:020
-0.7418,1.5613,10.3528,-0.5256,1.3339,9.7013,-0.0133,-0.1066,0.8974,1.1491,0.2353,-0.0244,16.05,-0.3,-40.35,285.68,-5.18,2.73,48.843895,2.353354,95.2,NaN,,12.854,,0 / 28,,727,2022-01-10 19:24:26:025
-0.7418,1.5613,10.3528,-0.5256,1.3339,9.7013,-0.0133,-0.1066,0.8974,1.474,0.2704,0.0246,16.05,-1.12,-40.5,288.27,-7.82,3.1,48.843895,2.353354,95.2,NaN,,12.854,,0 / 28,,732,2022-01-10 19:24:26:030
-0.7418,1.5613,10.3528,-0.5978,1.7258,9.6351,-0.078,-0.0399,0.5064,1.474,0.2704,0.0246,16.05,-1.12,-40.5,288.27,-7.82,3.1,48.843895,2.353354,95.2,NaN,,12.854,,0 / 28,,736,2022-01-10 19:24:26:034
-0.7418,1.5613,10.3528,-0.5978,1.7258,9.6351,-0.078,-0.0399,0.5064,1.474,0.2704,0.0246,16.05,-1.12,-40.5,288.27,-7.82,3.1,48.843895,2.353354,95.2,NaN,,12.854,,0 / 28,,741,2022-01-10 19:24:26:039
-0.7418,1.5613,10.3528,-0.5978,1.7258,9.6351,-0.078,-0.0399,0.5064,1.474,0.2704,0.0246,16.05,-1.12,-40.5,288.27,-7.82,3.1,48.843895,2.353354,95.2,NaN,,12.854,,0 / 28,,747,2022-01-10 19:24:26:045
-0.5812,1.8464,10.0295,-0.5978,1.7258,9.6351,-0.078,-0.0399,0.5064,1.474,0.2704,0.0246,16.05,-1.12,-40.5,288.27,-7.82,3.1,48.843895,2.353354,95.2,NaN,,12.854,,0 / 28,,752,2022-01-10 19:24:26:050
-0.5812,1.8464,10.0295,-0.5978,1.7258,9.6351,-0.078,-0.0399,0.5064,1.474,0.2704,0.0246,16.05,-1.12,-40.5,288.27,-7.82,3.1,48.843895,2.353354,95.2,NaN,,12.854,,0 / 28,,756,2022-01-10 19:24:26:054
-0.5812,1.8464,10.0295,-0.5978,1.7258,9.6351,-0.078,-0.0399,0.5064,1.6285,0.3418,0.0161,15.83,-2.25,-39.45,288.27,-7.82,3.1,48.843895,2.353354,95.2,NaN,,12.854,,0 / 28,,762,2022-01-10 19:24:26:060
-0.5812,1.8464,10.0295,-0.5978,1.7258,9.6351,-0.078,-0.0399,0.5064,1.6285,0.3418,0.0161,15.83,-2.25,-39.45,288.27,-7.82,3.1,48.843895,2.353354,95.2,NaN,,12.854,,0 / 28,,766,2022-01-10 19:24:26:064
-0.5812,1.8464,10.0295,-0.6937,2.1664,9.5392,0.1238,-0.2744,0.4494,1.6285,0.3418,0.0161,15.83,-2.25,-39.45,288.27,-7.82,3.1,48.843895,2.353354,95.2,NaN,,12.854,,0 / 28,,771,2022-01-10 19:24:26:069
-0.6772,2.2298,10.1755,-0.6937,2.1664,9.5392,0.1238,-0.2744,0.4494,1.6285,0.3418,0.0161,15.83,-2.25,-39.45,288.27,-7.82,3.1,48.843895,2.353354,95.2,NaN,,12.854,,0 / 28,,776,2022-01-10 19:24:26:074
-0.6772,2.2298,10.1755,-0.6937,2.1664,9.5392,0.1238,-0.2744,0.4494,1.6285,0.3418,0.0161,15.83,-2.25,-39.45,288.27,-7.82,3.1,48.843895,2.353354,95.2,NaN,,12.854,,0 / 28,,782,2022-01-10 19:24:26:080
-0.6772,2.2298,10.1755,-0.6937,2.1664,9.5392,0.1238,-0.2744,0.4494,1.6285,0.3418,0.0161,15.83,-2.25,-39.45,288.27,-7.82,3.1,48.843895,2.353354,95.2,NaN,,12.854,,0 / 28,,786,2022-01-10 19:24:26:084
-0.6772,2.2298,10.1755,-0.6937,2.1664,9.5392,0.1238,-0.2744,0.4494,1.9779,-0.0182,0.0214,15.9,-3.45,-38.85,294.28,-12.76,4.16,48.843895,2.353354,95.2,NaN,,12.854,,0 / 28,,791,2022-01-10 19:24:26:089
-0.6772,2.2298,10.1755,-0.7241,2.6743,9.4071,-0.0824,-0.1709,0.373,1.9779,-0.0182,0.0214,15.9,-3.45,-38.85,294.28,-12.76,4.16,48.843895,2.353354,95.2,NaN,,12.854,,0 / 28,,797,2022-01-10 19:24:26:095
-0.8183,2.7039,9.7014,-0.7241,2.6743,9.4071,-0.0824,-0.1709,0.373,1.9779,-0.0182,0.0214,15.9,-3.45,-38.85,294.28,-12.76,4.16,48.843895,2.353354,95.2,NaN,,12.854,,0 / 28,,802,2022-01-10 19:24:26:100
-0.8183,2.7039,9.7014,-0.7241,2.6743,9.4071,-0.0824,-0.1709,0.373,1.9779,-0.0182,0.0214,15.9,-3.45,-38.85,294.28,-12.76,4.16,48.843895,2.353354,95.2,NaN,,12.854,,0 / 28,,807,2022-01-10 19:24:26:105
-0.8183,2.7039,9.7014,-0.7241,2.6743,9.4071,-0.0824,-0.1709,0.373,1.9779,-0.0182,0.0214,15.9,-3.45,-38.85,294.28,-12.76,4.16,48.843895,2.353354,95.2,NaN,,12.854,,0 / 28,,811,2022-01-10 19:24:26:109
-0.8183,2.7039,9.7014,-0.7241,2.6743,9.4071,-0.0824,-0.1709,0.373,1.9779,-0.0182,0.0214,15.9,-3.45,-38.85,294.28,-12.76,4.16,48.843895,2.353354,95.2,NaN,,12.854,,0 / 28,,817,2022-01-10 19:24:26:115
-0.8183,2.7039,9.7014,-0.7241,2.6743,9.4071,-0.0824,-0.1709,0.373,2.257,0.1383,0.0917,16.58,-5.4,-38.18,294.28,-12.76,4.16,48.843895,2.353354,95.2,NaN,,12.854,,0 / 28,,821,2022-01-10 19:24:26:119
-0.8183,2.7039,9.7014,-0.7241,2.6743,9.4071,-0.0824,-0.1709,0.373,2.257,0.1383,0.0917,16.58,-5.4,-38.18,294.28,-12.76,4.16,48.843895,2.353354,95.2,NaN,,12.854,,0 / 28,,827,2022-01-10 19:24:26:125
-0.8566,3.3365,9.7062,-0.7288,3.2661,9.218,-0.0788,-0.0893,0.5109,2.257,0.1383,0.0917,16.58,-5.4,-38.18,294.28,-12.76,4.16,48.843895,2.353354,95.2,NaN,,12.854,,0 / 28,,831,2022-01-10 19:24:26:129
-0.8566,3.3365,9.7062,-0.7288,3.2661,9.218,-0.0788,-0.0893,0.5109,2.257,0.1383,0.0917,16.58,-5.4,-38.18,294.28,-12.76,4.16,48.843895,2.353354,95.2,NaN,,12.854,,0 / 28,,836,2022-01-10 19:24:26:134
-0.8566,3.3365,9.7062,-0.7288,3.2661,9.218,-0.0788,-0.0893,0.5109,2.257,0.1383,0.0917,16.58,-5.4,-38.18,294.28,-12.76,4.16,48.843895,2.353354,95.2,NaN,,12.854,,0 / 28,,841,2022-01-10 19:24:26:139
-0.8566,3.3365,9.7062,-0.7288,3.2661,9.218,-0.0788,-0.0893,0.5109,2.257,0.1383,0.0917,16.58,-5.4,-38.18,294.28,-12.76,4.16,48.843895,2.353354,95.2,NaN,,12.854,,0 / 28,,847,2022-01-10 19:24:26:145
-0.8566,3.3365,9.7062,-0.7288,3.2661,9.218,-0.0788,-0.0893,0.5109,2.257,0.1383,0.0917,16.95,-7.73,-37.8,291.58,-19.45,4.52,48.843895,2.353354,95.2,NaN,,12.854,,0 / 28,,852,2022-01-10 19:24:26:150
-0.9168,3.6048,8.9779,-0.7288,3.2661,9.218,-0.0788,-0.0893,0.5109,2.5552,0.1788,0.1375,16.95,-7.73,-37.8,291.58,-19.45,4.52,48.843895,2.353354,95.2,NaN,,12.854,,0 / 28,,857,2022-01-10 19:24:26:155
-0.9168,3.6048,8.9779,-0.7815,3.94,8.9463,-0.1125,-0.4307,0.0761,2.5552,0.1788,0.1375,16.95,-7.73,-37.8,291.58,-19.45,4.52,48.843895,2.353354,95.2,NaN,,12.854,,0 / 28,,861,2022-01-10 19:24:26:159
-0.9168,3.6048,8.9779,-0.7815,3.94,8.9463,-0.1125,-0.4307,0.0761,2.5552,0.1788,0.1375,16.95,-7.73,-37.8,291.58,-19.45,4.52,48.843895,2.353354,95.2,NaN,,12.854,,0 / 28,,867,2022-01-10 19:24:26:165
-0.9168,3.6048,8.9779,-0.7815,3.94,8.9463,-0.1125,-0.4307,0.0761,2.5552,0.1788,0.1375,16.95,-7.73,-37.8,291.58,-19.45,4.52,48.843895,2.353354,95.2,NaN,,12.854,,0 / 28,,872,2022-01-10 19:24:26:170
-0.9168,3.6048,8.9779,-0.7815,3.94,8.9463,-0.1125,-0.4307,0.0761,2.5552,0.1788,0.1375,16.95,-7.73,-37.8,291.58,-19.45,4.52,48.843895,2.353354,95.2,NaN,,12.854,,0 / 28,,877,2022-01-10 19:24:26:175
-0.7992,4.4216,8.846,-0.7815,3.94,8.9463,-0.1125,-0.4307,0.0761,2.5552,0.1788,0.1375,16.95,-7.73,-37.8,291.58,-19.45,4.52,48.843895,2.353354,95.2,NaN,,12.854,,0 / 28,,881,2022-01-10 19:24:26:179
-0.7992,4.4216,8.846,-0.7538,4.5143,8.6731,-0.0759,-0.2525,0.0633,2.5297,-0.2824,0.0811,16.95,-7.73,-37.8,291.58,-19.45,4.52,48.843895,2.353354,95.2,NaN,,12.854,,0 / 28,,887,2022-01-10 19:24:26:185
-0.7992,4.4216,8.846,-0.7538,4.5143,8.6731,-0.0759,-0.2525,0.0633,2.5297,-0.2824,0.0811,17.25,-11.17,-36.68,291.58,-19.45,4.52,48.843895,2.353354,95.2,NaN,,12.854,,0 / 28,,892,2022-01-10 19:24:26:190
-0.7992,4.4216,8.846,-0.7538,4.5143,8.6731,-0.0759,-0.2525,0.0633,2.5297,-0.2824,0.0811,17.25,-11.17,-36.68,291.58,-19.45,4.52,48.843895,2.353354,95.2,NaN,,12.854,,0 / 28,,896,2022-01-10 19:24:26:194
-0.7992,4.4216,8.846,-0.7538,4.5143,8.6731,-0.0759,-0.2525,0.0633,2.5297,-0.2824,0.0811,17.25,-11.17,-36.68,291.58,-19.45,4.52,48.843895,2.353354,95.2,NaN,,12.854,,0 / 28,,901,2022-01-10 19:24:26:199
-0.7992,4.4216,8.846,-0.7538,4.5143,8.6731,-0.0759,-0.2525,0.0633,2.5297,-0.2824,0.0811,17.25,-11.17,-36.68,291.58,-19.45,4.52,48.843895,2.353354,95.2,NaN,,12.854,,0 / 28,,907,2022-01-10 19:24:26:205
-0.9215,4.8215,9.0784,-0.7538,4.5143,8.6731,-0.0759,-0.2525,0.0633,2.5297,-0.2824,0.0811,17.25,-11.17,-36.68,291.58,-19.45,4.52,48.843895,2.353354,95.2,NaN,,12.854,,0 / 28,,911,2022-01-10 19:24:26:209
-0.9215,4.8215,9.0784,-0.6404,5.1849,8.2993,-0.2838,-0.4472,0.7425,2.9025,-0.6137,0.0992,17.25,-11.17,-36.68,291.58,-19.45,4.52,48.843895,2.353354,95.2,NaN,,12.854,,0 / 28,,917,2022-01-10 19:24:26:215
-0.9215,4.8215,9.0784,-0.6404,5.1849,8.2993,-0.2838,-0.4472,0.7425,2.9025,-0.6137,0.0992,17.18,-13.88,-35.03,296.98,-31.92,4.41,48.843895,2.353354,95.2,NaN,,12.854,,0 / 28,,921,2022-01-10 19:24:26:219
-0.9215,4.8215,9.0784,-0.6404,5.1849,8.2993,-0.2838,-0.4472,0.7425,2.9025,-0.6137,0.0992,17.18,-13.88,-35.03,296.98,-31.92,4.41,48.843895,2.353354,95.2,NaN,,12.854,,0 / 28,,926,2022-01-10 19:24:26:224
-0.9215,4.8215,9.0784,-0.6404,5.1849,8.2993,-0.2838,-0.4472,0.7425,2.9025,-0.6137,0.0992,17.18,-13.88,-35.03,296.98,-31.92,4.41,48.843895,2.353354,95.2,NaN,,12.854,,0 / 28,,932,2022-01-10 19:24:26:230
-0.5189,5.0276,8.0076,-0.6404,5.1849,8.2993,-0.2838,-0.4472,0.7425,2.9025,-0.6137,0.0992,17.18,-13.88,-35.03,296.98,-31.92,4.41,48.843895,2.353354,95.2,NaN,,12.854,,0 / 28,,936,2022-01-10 19:24:26:234
-0.5189,5.0276,8.0076,-0.6404,5.1849,8.2993,-0.2838,-0.4472,0.7425,2.9025,-0.6137,0.0992,17.18,-13.88,-35.03,296.98,-31.92,4.41,48.843895,2.353354,95.2,NaN,,12.854,,0 / 28,,942,2022-01-10 19:24:26:240
-0.5189,5.0276,8.0076,-0.4608,5.9401,7.7893,-0.0737,-0.9104,0.0357,3.5395,-0.6446,0.2036,17.18,-13.88,-35.03,296.98,-31.92,4.41,48.843895,2.353354,95.2,NaN,,12.854,,0 / 28,,947,2022-01-10 19:24:26:245
-0.5189,5.0276,8.0076,-0.4608,5.9401,7.7893,-0.0737,-0.9104,0.0357,3.5395,-0.6446,0.2036,17.18,-13.88,-35.03,296.98,-31.92,4.41,48.843895,2.353354,95.2,NaN,,12.854,,0 / 28,,951,2022-01-10 19:24:26:249
-0.5189,5.0276,8.0076,-0.4608,5.9401,7.7893,-0.0737,-0.9104,0.0357,3.5395,-0.6446,0.2036,16.35,-16.65,-33.6,296.98,-31.92,4.41,48.843895,2.353354,95.2,NaN,,12.854,,0 / 28,,956,2022-01-10 19:24:26:254
-0.5979,5.6815,7.8832,-0.4608,5.9401,7.7893,-0.0737,-0.9104,0.0357,3.5395,-0.6446,0.2036,16.35,-16.65,-33.6,296.98,-31.92,4.41,48.843895,2.353354,95.2,NaN,,12.854,,0 / 28,,962,2022-01-10 19:24:26:260
-0.5979,5.6815,7.8832,-0.4608,5.9401,7.7893,-0.0737,-0.9104,0.0357,3.5395,-0.6446,0.2036,16.35,-16.65,-33.6,296.98,-31.92,4.41,48.843895,2.353354,95.2,NaN,,12.854,,0 / 28,,966,2022-01-10 19:24:26:264
-0.5979,5.6815,7.8832,-0.4608,5.9401,7.7893,-0.0737,-0.9104,0.0357,3.5395,-0.6446,0.2036,16.35,-16.65,-33.6,296.98,-31.92,4.41,48.843895,2.353354,95.2,NaN,,12.854,,0 / 28,,972,2022-01-10 19:24:26:270
-0.5979,5.6815,7.8832,-0.2852,6.7849,7.0749,-0.2644,-0.9956,0.5033,3.5395,-0.6446,0.2036,16.35,-16.65,-33.6,296.98,-31.92,4.41,48.843895,2.353354,95.2,NaN,,12.854,,0 / 28,,976,2022-01-10 19:24:26:274
-0.5979,5.6815,7.8832,-0.2852,6.7849,7.0749,-0.2644,-0.9956,0.5033,4.2117,-0.5871,0.0907,16.35,-16.65,-33.6,296.98,-31.92,4.41,48.843895,2.353354,95.2,NaN,,12.854,,0 / 28,,982,2022-01-10 19:24:26:280
-0.5979,5.6815,7.8832,-0.2852,6.7849,7.0749,-0.2644,-0.9956,0.5033,4.2117,-0.5871,0.0907,16.35,-16.65,-33.6,296.98,-31.92,4.41,48.843895,2.353354,95.2,NaN,,12.854,,0 / 28,,986,2022-01-10 19:24:26:284
-0.4376,6.3787,6.7119,-0.2852,6.7849,7.0749,-0.2644,-0.9956,0.5033,4.2117,-0.5871,0.0907,15.53,-20.03,-31.2,296.77,-43.78,2.31,48.843895,2.353354,95.2,NaN,,12.854,,0 / 28,,992,2022-01-10 19:24:26:290
-0.4376,6.3787,6.7119,-0.2852,6.7849,7.0749,-0.2644,-0.9956,0.5033,4.2117,-0.5871,0.0907,15.53,-20.03,-31.2,296.77,-43.78,2.31,48.843895,2.353354,95.2,NaN,,12.854,,0 / 28,,996,2022-01-10 19:24:26:294
-0.4376,6.3787,6.7119,-0.2852,6.7849,7.0749,-0.2644,-0.9956,0.5033,4.2117,-0.5871,0.0907,15.53,-20.03,-31.2,296.77,-43.78,2.31,48.843895,2.353354,95.2,NaN,,12.854,,0 / 28,,1002,2022-01-10 19:24:26:300
-0.4376,6.3787,6.7119,-0.1385,7.6513,6.1326,-0.4091,-1.0987,0.2554,4.2117,-0.5871,0.0907,15.53,-20.03,-31.2,296.77,-43.78,2.31,48.843895,2.353354,95.2,NaN,,12.854,,0 / 28,,1006,2022-01-10 19:24:26:304
-0.4376,6.3787,6.7119,-0.1385,7.6513,6.1326,-0.4091,-1.0987,0.2554,4.4183,-1.0291,0.0768,15.53,-20.03,-31.2,296.77,-43.78,2.31,48.843895,2.353354,95.2,NaN,,12.854,,0 / 28,,1012,2022-01-10 19:24:26:310
-0.2841,7.4518,5.9955,-0.1385,7.6513,6.1326,-0.4091,-1.0987,0.2554,4.4183,-1.0291,0.0768,15.53,-20.03,-31.2,296.77,-43.78,2.31,48.843895,2.353354,95.2,NaN,,12.854,,0 / 28,,1017,2022-01-10 19:24:26:315
-0.2841,7.4518,5.9955,-0.1385,7.6513,6.1326,-0.4091,-1.0987,0.2554,4.4183,-1.0291,0.0768,15.53,-20.03,-31.2,296.77,-43.78,2.31,48.843895,2.353354,95.2,NaN,,12.854,,0 / 28,,1021,2022-01-10 19:24:26:319
-0.2841,7.4518,5.9955,-0.1385,7.6513,6.1326,-0.4091,-1.0987,0.2554,4.4183,-1.0291,0.0768,15.15,-23.47,-28.42,296.77,-43.78,2.31,48.843895,2.353354,95.2,NaN,,12.854,,0 / 28,,1027,2022-01-10 19:24:26:325
-0.2841,7.4518,5.9955,-0.1385,7.6513,6.1326,-0.4091,-1.0987,0.2554,4.4183,-1.0291,0.0768,15.15,-23.47,-28.42,296.77,-43.78,2.31,48.843895,2.353354,95.2,NaN,,12.854,,0 / 28,,1032,2022-01-10 19:24:26:330
-0.2841,7.4518,5.9955,0.0265,8.2867,5.244,-0.0643,-0.6076,0.4114,4.4183,-1.0291,0.0768,15.15,-23.47,-28.42,296.77,-43.78,2.31,48.843895,2.353354,95.2,NaN,,12.854,,0 / 28,,1037,2022-01-10 19:24:26:335
0.6523,7.8326,4.3211,0.0265,8.2867,5.244,-0.0643,-0.6076,0.4114,4.3107,-0.831,-0.212,15.15,-23.47,-28.42,296.77,-43.78,2.31,48.843895,2.353354,95.2,NaN,,12.854,,0 / 28,,1042,2022-01-10 19:24:26:340
0.6523,7.8326,4.3211,0.0265,8.2867,5.244,-0.0643,-0.6076,0.4114,4.3107,-0.831,-0.212,15.15,-23.47,-28.42,296.77,-43.78,2.31,48.843895,2.353354,95.2,NaN,,12.854,,0 / 28,,1046,2022-01-10 19:24:26:344
0.6523,7.8326,4.3211,0.0265,8.2867,5.244,-0.0643,-0.6076,0.4114,4.3107,-0.831,-0.212,14.93,-27.45,-24.82,293.65,-57.67,-0.29,48.843895,2.353354,95.2,NaN,,12.854,,0 / 28,,1052,2022-01-10 19:24:26:350
0.6523,7.8326,4.3211,0.0265,8.2867,5.244,-0.0643,-0.6076,0.4114,4.3107,-0.831,-0.212,14.93,-27.45,-24.82,293.65,-57.67,-0.29,48.843895,2.353354,95.2,NaN,,12.854,,0 / 28,,1057,2022-01-10 19:24:26:355
0.6523,7.8326,4.3211,0.0265,8.2867,5.244,-0.0643,-0.6076,0.4114,4.3107,-0.831,-0.212,14.93,-27.45,-24.82,293.65,-57.67,-0.29,48.843895,2.353354,95.2,NaN,,12.854,,0 / 28,,1061,2022-01-10 19:24:26:359
0.6523,7.8326,4.3211,0.0265,8.2867,5.244,-0.0643,-0.6076,0.4114,4.3107,-0.831,-0.212,14.93,-27.45,-24.82,293.65,-57.67,-0.29,48.843895,2.353354,95.2,NaN,,12.854,,0 / 28,,1067,2022-01-10 19:24:26:365
0.2094,8.0985,2.8358,0.0506,8.9786,3.9438,0.236,-1.0895,-0.7935,3.939,-0.276,-0.5156,14.93,-27.45,-24.82,293.65,-57.67,-0.29,48.843895,2.353354,95.2,NaN,,12.854,,0 / 28,,1072,2022-01-10 19:24:26:370
0.2094,8.0985,2.8358,0.0506,8.9786,3.9438,0.236,-1.0895,-0.7935,3.939,-0.276,-0.5156,14.93,-27.45,-24.82,293.65,-57.67,-0.29,48.843895,2.353354,95.2,NaN,,12.854,,0 / 28,,1077,2022-01-10 19:24:26:375
0.2094,8.0985,2.8358,0.0506,8.9786,3.9438,0.236,-1.0895,-0.7935,3.939,-0.276,-0.5156,14.93,-27.45,-24.82,293.65,-57.67,-0.29,48.843895,2.353354,95.2,NaN,,12.854,,0 / 28,,1081,2022-01-10 19:24:26:379
0.2094,8.0985,2.8358,0.0506,8.9786,3.9438,0.236,-1.0895,-0.7935,3.939,-0.276,-0.5156,14.93,-27.45,-24.82,293.65,-57.67,-0.29,48.843895,2.353354,95.2,NaN,,12.854,,0 / 28,,1086,2022-01-10 19:24:26:384
0.2094,8.0985,2.8358,0.0506,8.9786,3.9438,0.236,-1.0895,-0.7935,3.939,-0.276,-0.5156,14.25,-31.28,-18.45,293.65,-57.67,-0.29,48.843895,2.353354,95.2,NaN,,12.854,,0 / 28,,1092,2022-01-10 19:24:26:390
0.0966,8.7215,1.2021,-0.0888,9.3676,2.9001,0.2628,-0.8078,-1.5573,3.939,-0.276,-0.5156,14.25,-31.28,-18.45,293.65,-57.67,-0.29,48.843895,2.353354,95.2,NaN,,12.854,,0 / 28,,1096,2022-01-10 19:24:26:394
0.0966,8.7215,1.2021,-0.0888,9.3676,2.9001,0.2628,-0.8078,-1.5573,3.1273,0.2545,-0.5539,14.25,-31.28,-18.45,293.65,-57.67,-0.29,48.843895,2.353354,95.2,NaN,,12.854,,0 / 28,,1103,2022-01-10 19:24:26:401
0.0966,8.7215,1.2021,-0.0888,9.3676,2.9001,0.2628,-0.8078,-1.5573,3.1273,0.2545,-0.5539,14.25,-31.28,-18.45,293.65,-57.67,-0.29,48.843895,2.353354,95.2,NaN,,12.854,,0 / 28,,1106,2022-01-10 19:24:26:404
0.0966,8.7215,1.2021,-0.0888,9.3676,2.9001,0.2628,-0.8078,-1.5573,3.1273,0.2545,-0.5539,14.25,-31.28,-18.45,293.65,-57.67,-0.29,48.843895,2.353354,95.2,NaN,,12.854,,0 / 28,,1112,2022-01-10 19:24:26:410
0.0966,8.7215,1.2021,-0.0888,9.3676,2.9001,0.2628,-0.8078,-1.5573,3.1273,0.2545,-0.5539,14.25,-31.28,-18.45,293.65,-57.67,-0.29,48.843895,2.353354,95.2,NaN,,12.854,,0 / 28,,1116,2022-01-10 19:24:26:414
0.0966,8.7215,1.2021,-0.0888,9.3676,2.9001,0.2628,-0.8078,-1.5573,3.1273,0.2545,-0.5539,14.25,-31.28,-18.45,293.65,-57.67,-0.29,48.843895,2.353354,95.2,NaN,,12.854,,0 / 28,,1122,2022-01-10 19:24:26:420
-0.4974,9.7537,0.9147,-0.2493,9.5807,2.0779,-0.3314,-0.0077,-1.0259,3.1273,0.2545,-0.5539,14.25,-31.28,-18.45,293.65,-57.67,-0.29,48.843895,2.353354,95.2,NaN,,12.854,,0 / 28,,1126,2022-01-10 19:24:26:424
-0.4974,9.7537,0.9147,-0.2493,9.5807,2.0779,-0.3314,-0.0077,-1.0259,2.0642,0.149,-0.3505,15.08,-33.3,-12.83,298.72,-77.68,6.84,48.843895,2.353354,95.2,NaN,,12.854,,0 / 28,,1132,2022-01-10 19:24:26:430
-0.4974,9.7537,0.9147,-0.2493,9.5807,2.0779,-0.3314,-0.0077,-1.0259,2.0642,0.149,-0.3505,15.08,-33.3,-12.83,298.72,-77.68,6.84,48.843895,2.353354,95.2,NaN,,12.854,,0 / 28,,1137,2022-01-10 19:24:26:435
-0.4974,9.7537,0.9147,-0.2493,9.5807,2.0779,-0.3314,-0.0077,-1.0259,2.0642,0.149,-0.3505,15.08,-33.3,-12.83,298.72,-77.68,6.84,48.843895,2.353354,95.2,NaN,,12.854,,0 / 28,,1141,2022-01-10 19:24:26:439
-0.4974,9.7537,0.9147,-0.2493,9.5807,2.0779,-0.3314,-0.0077,-1.0259,2.0642,0.149,-0.3505,15.08,-33.3,-12.83,298.72,-77.68,6.84,48.843895,2.353354,95.2,NaN,,12.854,,0 / 28,,1146,2022-01-10 19:24:26:444
-0.2602,9.2988,-0.1131,-0.2493,9.5807,2.0779,-0.3314,-0.0077,-1.0259,2.0642,0.149,-0.3505,15.08,-33.3,-12.83,298.72,-77.68,6.84,48.843895,2.353354,95.2,NaN,,12.854,,0 / 28,,1152,2022-01-10 19:24:26:450
-0.2602,9.2988,-0.1131,-0.3388,9.6665,1.6167,-0.3314,-0.0077,-1.0259,2.0642,0.149,-0.3505,15.08,-33.3,-12.83,298.72,-77.68,6.84,48.843895,2.353354,95.2,NaN,,12.854,,0 / 28,,1156,2022-01-10 19:24:26:454
-0.2602,9.2988,-0.1131,-0.3388,9.6665,1.6167,0.0934,-0.4693,-1.6982,1.0671,0.2896,-0.2834,15.08,-33.3,-12.83,298.72,-77.68,6.84,48.843895,2.353354,95.2,NaN,,12.854,,0 / 28,,1162,2022-01-10 19:24:26:460
-0.2602,9.2988,-0.1131,-0.3388,9.6665,1.6167,0.0934,-0.4693,-1.6982,1.0671,0.2896,-0.2834,15.08,-33.3,-12.83,298.72,-77.68,6.84,48.843895,2.353354,95.2,NaN,,12.854,,0 / 28,,1166,2022-01-10 19:24:26:464
-0.2602,9.2988,-0.1131,-0.3388,9.6665,1.6167,0.0934,-0.4693,-1.6982,1.0671,0.2896,-0.2834,16.28,-34.2,-8.92,298.72,-77.68,6.84,48.843895,2.353354,95.2,NaN,,12.854,,0 / 28,,1171,2022-01-10 19:24:26:469
-0.2602,9.2988,-0.1131,-0.3388,9.6665,1.6167,0.0934,-0.4693,-1.6982,1.0671,0.2896,-0.2834,16.28,-34.2,-8.92,298.72,-77.68,6.84,48.843895,2.353354,95.2,NaN,,12.854,,0 / 28,,1176,2022-01-10 19:24:26:474
-0.44,9.3826,0.0858,-0.3388,9.6665,1.6167,0.0934,-0.4693,-1.6982,1.0671,0.2896,-0.2834,16.28,-34.2,-8.92,298.72,-77.68,6.84,48.843895,2.353354,95.2,NaN,,12.854,,0 / 28,,1182,2022-01-10 19:24:26:480
-0.44,9.3826,0.0858,-0.4341,9.7094,1.3078,0.0934,-0.4693,-1.6982,1.0671,0.2896,-0.2834,16.28,-34.2,-8.92,298.72,-77.68,6.84,48.843895,2.353354,95.2,NaN,,12.854,,0 / 28,,1186,2022-01-10 19:24:26:484
-0.44,9.3826,0.0858,-0.4341,9.7094,1.3078,-0.0425,-0.3988,-1.0632,0.5535,0.3344,-0.2024,16.28,-34.2,-8.92,298.72,-77.68,6.84,48.843895,2.353354,95.2,NaN,,12.854,,0 / 28,,1193,2022-01-10 19:24:26:491
-0.44,9.3826,0.0858,-0.4341,9.7094,1.3078,-0.0425,-0.3988,-1.0632,0.5535,0.3344,-0.2024,16.28,-34.2,-8.92,298.72,-77.68,6.84,48.843895,2.353354,95.2,NaN,,12.854,,0 / 28,,1196,2022-01-10 19:24:26:494
-0.44,9.3826,0.0858,-0.4341,9.7094,1.3078,-0.0425,-0.3988,-1.0632,0.5535,0.3344,-0.2024,16.65,-34.43,-7.05,297.02,-81.92,18.36,48.843895,2.353354,95.2,NaN,,12.854,,0 / 28,,1201,2022-01-10 19:24:26:499
-0.8231,9.4711,0.5722,-0.4341,9.7094,1.3078,-0.0425,-0.3988,-1.0632,0.5535,0.3344,-0.2024,16.65,-34.43,-7.05,297.02,-81.92,18.36,48.843895,2.353354,95.2,NaN,,12.854,,0 / 28,,1208,2022-01-10 19:24:26:506
-0.8231,9.4711,0.5722,-0.4341,9.7094,1.3078,-0.0425,-0.3988,-1.0632,0.5535,0.3344,-0.2024,16.65,-34.43,-7.05,297.02,-81.92,18.36,48.843895,2.353354,95.2,NaN,,12.854,,0 / 28,,1211,2022-01-10 19:24:26:509
-0.8231,9.4711,0.5722,-0.4995,9.7274,1.14,-0.0425,-0.3988,-1.0632,0.5535,0.3344,-0.2024,16.65,-34.43,-7.05,297.02,-81.92,18.36,48.843895,2.353354,95.2,NaN,,12.854,,0 / 28,,1217,2022-01-10 19:24:26:515
-0.8231,9.4711,0.5722,-0.4995,9.7274,1.14,-0.2485,-0.2149,-0.3761,0.3607,0.215,-0.0372,16.65,-34.43,-7.05,297.02,-81.92,18.36,48.843895,2.353354,95.2,NaN,,12.854,,0 / 28,,1222,2022-01-10 19:24:26:520
-0.8231,9.4711,0.5722,-0.4995,9.7274,1.14,-0.2485,-0.2149,-0.3761,0.3607,0.215,-0.0372,16.65,-34.43,-7.05,297.02,-81.92,18.36,48.843895,2.353354,95.2,NaN,,12.854,,0 / 28,,1227,2022-01-10 19:24:26:525
-0.495,9.7466,0.7062,-0.4995,9.7274,1.14,-0.2485,-0.2149,-0.3761,0.3607,0.215,-0.0372,17.03,-34.65,-5.7,297.02,-81.92,18.36,48.843895,2.353354,95.2,NaN,,12.854,,0 / 28,,1231,2022-01-10 19:24:26:529
-0.495,9.7466,0.7062,-0.4995,9.7274,1.14,-0.2485,-0.2149,-0.3761,0.3607,0.215,-0.0372,17.03,-34.65,-5.7,297.02,-81.92,18.36,48.843895,2.353354,95.2,NaN,,12.854,,0 / 28,,1237,2022-01-10 19:24:26:535
-0.495,9.7466,0.7062,-0.4995,9.7274,1.14,-0.2485,-0.2149,-0.3761,0.3607,0.215,-0.0372,17.03,-34.65,-5.7,297.02,-81.92,18.36,48.843895,2.353354,95.2,NaN,,12.854,,0 / 28,,1242,2022-01-10 19:24:26:540
-0.495,9.7466,0.7062,-0.517,9.7381,1.0358,-0.2485,-0.2149,-0.3761,0.3607,0.215,-0.0372,17.03,-34.65,-5.7,297.02,-81.92,18.36,48.843895,2.353354,95.2,NaN,,12.854,,0 / 28,,1247,2022-01-10 19:24:26:545
-0.495,9.7466,0.7062,-0.517,9.7381,1.0358,-0.2485,-0.2149,-0.3761,0.3607,0.215,-0.0372,17.03,-34.65,-5.7,297.02,-81.92,18.36,48.843895,2.353354,95.2,NaN,,12.854,,0 / 28,,1251,2022-01-10 19:24:26:549
-0.4424,9.4998,0.5195,-0.517,9.7381,1.0358,0.0258,-0.2664,-0.4706,0.1594,0.2992,0.0236,17.03,-34.65,-5.7,297.02,-81.92,18.36,48.843895,2.353354,95.2,NaN,,12.854,,0 / 28,,1257,2022-01-10 19:24:26:555
-0.4424,9.4998,0.5195,-0.517,9.7381,1.0358,0.0258,-0.2664,-0.4706,0.1594,0.2992,0.0236,16.65,-34.65,-5.17,301.16,-83.22,26.52,48.843895,2.353354,95.2,NaN,,12.854,,0 / 28,,1262,2022-01-10 19:24:26:560
-0.4424,9.4998,0.5195,-0.517,9.7381,1.0358,0.0258,-0.2664,-0.4706,0.1594,0.2992,0.0236,16.65,-34.65,-5.17,301.16,-83.22,26.52,48.843895,2.353354,95.2,NaN,,12.854,,0 / 28,,1266,2022-01-10 19:24:26:564
-0.4424,9.4998,0.5195,-0.517,9.7381,1.0358,0.0258,-0.2664,-0.4706,0.1594,0.2992,0.0236,16.65,-34.65,-5.17,301.16,-83.22,26.52,48.843895,2.353354,95.2,NaN,,12.854,,0 / 28,,1272,2022-01-10 19:24:26:570
-0.4424,9.4998,0.5195,-0.5185,9.7428,0.9897,0.0258,-0.2664,-0.4706,0.1594,0.2992,0.0236,16.65,-34.65,-5.17,301.16,-83.22,26.52,48.843895,2.353354,95.2,NaN,,12.854,,0 / 28,,1278,2022-01-10 19:24:26:576
-0.4424,9.4998,0.5195,-0.5185,9.7428,0.9897,0.0258,-0.2664,-0.4706,0.1594,0.2992,0.0236,16.65,-34.65,-5.17,301.16,-83.22,26.52,48.843895,2.353354,95.2,NaN,,12.854,,0 / 28,,1281,2022-01-10 19:24:26:579
-0.4735,9.524,0.4738,-0.5185,9.7428,0.9897,0.019,-0.2856,-0.6173,-0.0142,0.231,0.0417,16.65,-34.65,-5.17,301.16,-83.22,26.52,48.843895,2.353354,95.2,NaN,,12.854,,0 / 28,,1286,2022-01-10 19:24:26:584
-0.4735,9.524,0.4738,-0.5185,9.7428,0.9897,0.019,-0.2856,-0.6173,-0.0142,0.231,0.0417,16.65,-34.65,-5.17,301.16,-83.22,26.52,48.843895,2.353354,95.2,NaN,,12.854,,0 / 28,,1292,2022-01-10 19:24:26:590
-0.4735,9.524,0.4738,-0.5185,9.7428,0.9897,0.019,-0.2856,-0.6173,-0.0142,0.231,0.0417,16.65,-34.65,-5.17,301.16,-83.22,26.52,48.843895,2.353354,95.2,NaN,,12.854,,0 / 28,,1297,2022-01-10 19:24:26:595
-0.4735,9.524,0.4738,-0.5145,9.7434,0.9859,0.019,-0.2856,-0.6173,-0.0142,0.231,0.0417,16.13,-34.65,-4.58,301.16,-83.22,26.52,48.843895,2.353354,95.2,NaN,,12.854,,0 / 28,,1302,2022-01-10 19:24:26:600
-0.4735,9.524,0.4738,-0.5145,9.7434,0.9859,0.019,-0.2856,-0.6173,-0.0142,0.231,0.0417,16.13,-34.65,-4.58,301.16,-83.22,26.52,48.843895,2.353354,95.2,NaN,,12.854,,0 / 28,,1307,2022-01-10 19:24:26:605
-0.4735,9.524,0.4738,-0.5145,9.7434,0.9859,0.019,-0.2856,-0.6173,-0.0142,0.231,0.0417,16.13,-34.65,-4.58,301.16,-83.22,26.52,48.843895,2.353354,95.2,NaN,,12.854,,0 / 28,,1312,2022-01-10 19:24:26:610
-0.6075,9.5743,0.5363,-0.5145,9.7434,0.9859,0.019,-0.2856,-0.6173,-0.1932,0.002,0.03,16.13,-34.65,-4.58,301.16,-83.22,26.52,48.843895,2.353354,95.2,NaN,,12.854,,0 / 28,,1316,2022-01-10 19:24:26:614
-0.6075,9.5743,0.5363,-0.5145,9.7434,0.9859,-0.1019,-0.1983,-0.4627,-0.1932,0.002,0.03,16.13,-34.65,-4.58,301.16,-83.22,26.52,48.843895,2.353354,95.2,NaN,,12.854,,0 / 28,,1322,2022-01-10 19:24:26:620
-0.6075,9.5743,0.5363,-0.5145,9.7434,0.9859,-0.1019,-0.1983,-0.4627,-0.1932,0.002,0.03,16.13,-34.65,-4.58,301.16,-83.22,26.52,48.843895,2.353354,95.2,NaN,,12.854,,0 / 28,,1327,2022-01-10 19:24:26:625
-0.6075,9.5743,0.5363,-0.5072,9.7389,1.0326,-0.1019,-0.1983,-0.4627,-0.1932,0.002,0.03,16.13,-34.65,-4.58,301.16,-83.22,26.52,48.843895,2.353354,95.2,NaN,,12.854,,0 / 28,,1332,2022-01-10 19:24:26:630
-0.6075,9.5743,0.5363,-0.5072,9.7389,1.0326,-0.1019,-0.1983,-0.4627,-0.1932,0.002,0.03,16.13,-34.65,-4.58,301.16,-83.22,26.52,48.843895,2.353354,95.2,NaN,,12.854,,0 / 28,,1337,2022-01-10 19:24:26:635
-0.5213,9.6532,0.7831,-0.5072,9.7389,1.0326,-0.1019,-0.1983,-0.4627,-0.1932,0.002,0.03,16.2,-34.43,-4.35,297.59,-83.26,26.16,48.843895,2.353354,95.2,NaN,,12.854,,0 / 28,,1341,2022-01-10 19:24:26:639
-0.5213,9.6532,0.7831,-0.5072,9.7389,1.0326,-0.004,-0.1367,-0.3249,-0.4116,-0.0651,0.0097,16.2,-34.43,-4.35,297.59,-83.26,26.16,48.843895,2.353354,95.2,NaN,,12.854,,0 / 28,,1347,2022-01-10 19:24:26:645
-0.5213,9.6532,0.7831,-0.5072,9.7389,1.0326,-0.004,-0.1367,-0.3249,-0.4116,-0.0651,0.0097,16.2,-34.43,-4.35,297.59,-83.26,26.16,48.843895,2.353354,95.2,NaN,,12.854,,0 / 28,,1351,2022-01-10 19:24:26:649
-0.5213,9.6532,0.7831,-0.5072,9.7389,1.0326,-0.004,-0.1367,-0.3249,-0.4116,-0.0651,0.0097,16.2,-34.43,-4.35,297.59,-83.26,26.16,48.843895,2.353354,95.2,NaN,,12.854,,0 / 28,,1356,2022-01-10 19:24:26:654
-0.5213,9.6532,0.7831,-0.5014,9.7267,1.1448,-0.004,-0.1367,-0.3249,-0.4116,-0.0651,0.0097,16.2,-34.43,-4.35,297.59,-83.26,26.16,48.843895,2.353354,95.2,NaN,,12.854,,0 / 28,,1361,2022-01-10 19:24:26:659
-0.5213,9.6532,0.7831,-0.5014,9.7267,1.1448,-0.004,-0.1367,-0.3249,-0.4116,-0.0651,0.0097,16.2,-34.43,-4.35,297.59,-83.26,26.16,48.843895,2.353354,95.2,NaN,,12.854,,0 / 28,,1369,2022-01-10 19:24:26:667
-0.4974,9.5767,1.092,-0.5014,9.7267,1.1448,-0.004,-0.1367,-0.3249,-0.4116,-0.0651,0.0097,15.9,-34.2,-4.73,297.59,-83.26,26.16,48.843895,2.353354,95.2,NaN,,12.854,,0 / 28,,1373,2022-01-10 19:24:26:671
-0.4974,9.5767,1.092,-0.5014,9.7267,1.1448,0.0537,-0.193,-0.0959,-0.4979,-0.1312,0.031,15.9,-34.2,-4.73,297.59,-83.26,26.16,48.843895,2.353354,95.2,NaN,,12.854,,0 / 28,,1377,2022-01-10 19:24:26:675
-0.4974,9.5767,1.092,-0.5014,9.7267,1.1448,0.0537,-0.193,-0.0959,-0.4979,-0.1312,0.031,15.9,-34.2,-4.73,297.59,-83.26,26.16,48.843895,2.353354,95.2,NaN,,12.854,,0 / 28,,1382,2022-01-10 19:24:26:680
-0.4974,9.5767,1.092,-0.5014,9.7267,1.1448,0.0537,-0.193,-0.0959,-0.4979,-0.1312,0.031,15.9,-34.2,-4.73,297.59,-83.26,26.16,48.843895,2.353354,95.2,NaN,,12.854,,0 / 28,,1389,2022-01-10 19:24:26:687
-0.4974,9.5767,1.092,-0.5014,9.7267,1.1448,0.0537,-0.193,-0.0959,-0.4979,-0.1312,0.031,15.9,-34.2,-4.73,297.59,-83.26,26.16,48.843895,2.353354,95.2,NaN,,12.854,,0 / 28,,1391,2022-01-10 19:24:26:689
-0.4974,9.5767,1.092,-0.4884,9.709,1.291,0.0537,-0.193,-0.0959,-0.4979,-0.1312,0.031,15.9,-34.2,-4.73,297.59,-83.26,26.16,48.843895,2.353354,95.2,NaN,,12.854,,0 / 28,,1396,2022-01-10 19:24:26:694
-0.3897,9.6676,1.5278,-0.4884,9.709,1.291,0.0537,-0.193,-0.0959,-0.4979,-0.1312,0.031,15.75,-34.28,-5.1,292.44,-81.91,20.72,48.843895,2.353354,95.2,NaN,,12.854,,0 / 28,,1402,2022-01-10 19:24:26:700
-0.3897,9.6676,1.5278,-0.4884,9.709,1.291,0.0819,-0.0761,0.1577,-0.4979,-0.1312,0.031,15.75,-34.28,-5.1,292.44,-81.91,20.72,48.843895,2.353354,95.2,NaN,,12.854,,0 / 28,,1407,2022-01-10 19:24:26:705
-0.3897,9.6676,1.5278,-0.4884,9.709,1.291,0.0819,-0.0761,0.1577,-0.4393,-0.1024,0.0406,15.75,-34.28,-5.1,292.44,-81.91,20.72,48.843895,2.353354,95.2,NaN,,12.854,,0 / 28,,1412,2022-01-10 19:24:26:710
-0.3897,9.6676,1.5278,-0.4884,9.709,1.291,0.0819,-0.0761,0.1577,-0.4393,-0.1024,0.0406,15.75,-34.28,-5.1,292.44,-81.91,20.72,48.843895,2.353354,95.2,NaN,,12.854,,0 / 28,,1416,2022-01-10 19:24:26:714
-0.3897,9.6676,1.5278,-0.4729,9.693,1.4117,0.0819,-0.0761,0.1577,-0.4393,-0.1024,0.0406,15.75,-34.28,-5.1,292.44,-81.91,20.72,48.843895,2.353354,95.2,NaN,,12.854,,0 / 28,,1423,2022-01-10 19:24:26:721
-0.4328,9.6365,1.4847,-0.4729,9.693,1.4117,0.0819,-0.0761,0.1577,-0.4393,-0.1024,0.0406,15.75,-34.28,-5.1,292.44,-81.91,20.72,48.843895,2.353354,95.2,NaN,,12.854,,0 / 28,,1427,2022-01-10 19:24:26:725
-0.4328,9.6365,1.4847,-0.4729,9.693,1.4117,0.0819,-0.0761,0.1577,-0.4393,-0.1024,0.0406,15.75,-34.28,-5.1,292.44,-81.91,20.72,48.843895,2.353354,95.2,NaN,,12.854,,0 / 28,,1432,2022-01-10 19:24:26:730
-0.4328,9.6365,1.4847,-0.4729,9.693,1.4117,0.0385,-0.0436,-0.007,-0.4393,-0.1024,0.0406,15.9,-34.05,-5.85,292.44,-81.91,20.72,48.843895,2.353354,95.2,NaN,,12.854,,0 / 28,,1438,2022-01-10 19:24:26:736
-0.4328,9.6365,1.4847,-0.4729,9.693,1.4117,0.0385,-0.0436,-0.007,-0.3594,-0.1077,0.0012,15.9,-34.05,-5.85,292.44,-81.91,20.72,48.843895,2.353354,95.2,NaN,,12.854,,0 / 28,,1442,2022-01-10 19:24:26:740
-0.4328,9.6365,1.4847,-0.4729,9.693,1.4117,0.0385,-0.0436,-0.007,-0.3594,-0.1077,0.0012,15.9,-34.05,-5.85,292.44,-81.91,20.72,48.843895,2.353354,95.2,NaN,,12.854,,0 / 28,,1447,2022-01-10 19:24:26:745
-0.4328,9.6365,1.4847,-0.4594,9.6765,1.5245,0.0385,-0.0436,-0.007,-0.3594,-0.1077,0.0012,15.9,-34.05,-5.85,292.44,-81.91,20.72,48.843895,2.353354,95.2,NaN,,12.854,,0 / 28,,1452,2022-01-10 19:24:26:750
-0.4256,9.6532,1.4512,-0.4594,9.6765,1.5245,0.0385,-0.0436,-0.007,-0.3594,-0.1077,0.0012,15.9,-34.05,-5.85,292.44,-81.91,20.72,48.843895,2.353354,95.2,NaN,,12.854,,0 / 28,,1457,2022-01-10 19:24:26:755
-0.4256,9.6532,1.4512,-0.4594,9.6765,1.5245,0.0385,-0.0436,-0.007,-0.3594,-0.1077,0.0012,15.9,-34.05,-5.85,292.44,-81.91,20.72,48.843895,2.353354,95.2,NaN,,12.854,,0 / 28,,1462,2022-01-10 19:24:26:760
-0.4256,9.6532,1.4512,-0.4594,9.6765,1.5245,0.0385,-0.0436,-0.007,-0.3594,-0.1077,0.0012,15.9,-34.05,-5.85,292.44,-81.91,20.72,48.843895,2.353354,95.2,NaN,,12.854,,0 / 28,,1467,2022-01-10 19:24:26:765
-0.4256,9.6532,1.4512,-0.4594,9.6765,1.5245,0.0027,-0.1311,-0.2778,-0.4318,-0.0779,-0.0586,16.05,-34.05,-6.98,293.01,-80.66,16.77,48.843895,2.353354,95.2,NaN,,12.854,,0 / 28,,1472,2022-01-10 19:24:26:770
-0.4256,9.6532,1.4512,-0.4702,9.6577,1.6365,0.0027,-0.1311,-0.2778,-0.4318,-0.0779,-0.0586,16.05,-34.05,-6.98,293.01,-80.66,16.77,48.843895,2.353354,95.2,NaN,,12.854,,0 / 28,,1477,2022-01-10 19:24:26:775
-0.4448,9.6269,1.334,-0.4702,9.6577,1.6365,0.0027,-0.1311,-0.2778,-0.4318,-0.0779,-0.0586,16.05,-34.05,-6.98,293.01,-80.66,16.77,48.843895,2.353354,95.2,NaN,,12.854,,0 / 28,,1482,2022-01-10 19:24:26:780
-0.4448,9.6269,1.334,-0.4702,9.6577,1.6365,0.0027,-0.1311,-0.2778,-0.4318,-0.0779,-0.0586,16.05,-34.05,-6.98,293.01,-80.66,16.77,48.843895,2.353354,95.2,NaN,,12.854,,0 / 28,,1487,2022-01-10 19:24:26:785
-0.4448,9.6269,1.334,-0.4702,9.6577,1.6365,0.0027,-0.1311,-0.2778,-0.4318,-0.0779,-0.0586,16.05,-34.05,-6.98,293.01,-80.66,16.77,48.843895,2.353354,95.2,NaN,,12.854,,0 / 28,,1491,2022-01-10 19:24:26:789
-0.4448,9.6269,1.334,-0.4702,9.6577,1.6365,0.0027,-0.1311,-0.2778,-0.4318,-0.0779,-0.0586,16.05,-34.05,-6.98,293.01,-80.66,16.77,48.843895,2.353354,95.2,NaN,,12.854,,0 / 28,,1496,2022-01-10 19:24:26:794
-0.4448,9.6269,1.334,-0.4702,9.6577,1.6365,0.1078,-0.0778,-0.3079,-0.4318,-0.0779,-0.0586,16.05,-34.05,-6.98,293.01,-80.66,16.77,48.843895,2.353354,95.2,NaN,,12.854,,0 / 28,,1503,2022-01-10 19:24:26:801
-0.4448,9.6269,1.334,-0.4702,9.6577,1.6365,0.1078,-0.0778,-0.3079,-0.6129,-0.0459,-0.0521,15.98,-34.35,-7.57,293.01,-80.66,16.77,48.843895,2.353354,95.2,NaN,,12.854,,0 / 28,,1507,2022-01-10 19:24:26:805
-0.5644,9.5791,1.456,-0.484,9.629,1.7939,0.1078,-0.0778,-0.3079,-0.6129,-0.0459,-0.0521,15.98,-34.35,-7.57,293.01,-80.66,16.77,48.843895,2.353354,95.2,NaN,,12.854,,0 / 28,,1512,2022-01-10 19:24:26:810
-0.5644,9.5791,1.456,-0.484,9.629,1.7939,0.1078,-0.0778,-0.3079,-0.6129,-0.0459,-0.0521,15.98,-34.35,-7.57,293.01,-80.66,16.77,48.843895,2.353354,95.2,NaN,,12.854,,0 / 28,,1524,2022-01-10 19:24:26:822
-0.5644,9.5791,1.456,-0.484,9.629,1.7939,0.1078,-0.0778,-0.3079,-0.6129,-0.0459,-0.0521,15.98,-34.35,-7.57,293.01,-80.66,16.77,48.843895,2.353354,95.2,NaN,,12.854,,0 / 28,,1525,2022-01-10 19:24:26:823
-0.5644,9.5791,1.456,-0.484,9.629,1.7939,0.1078,-0.0778,-0.3079,-0.6129,-0.0459,-0.0521,15.98,-34.35,-7.57,293.01,-80.66,16.77,48.843895,2.353354,95.2,NaN,,12.854,,0 / 28,,1526,2022-01-10 19:24:26:824
-0.5644,9.5791,1.456,-0.484,9.629,1.7939,-0.0045,-0.1023,-0.3703,-0.6129,-0.0459,-0.0521,15.98,-34.35,-7.57,293.01,-80.66,16.77,48.843895,2.353354,95.2,NaN,,12.854,,0 / 28,,1532,2022-01-10 19:24:26:830
-0.4137,9.548,1.5446,-0.484,9.629,1.7939,-0.0045,-0.1023,-0.3703,-0.8675,-0.0289,0.0214,15.98,-34.35,-7.57,293.01,-80.66,16.77,48.843895,2.353354,95.2,NaN,,12.854,,0 / 28,,1537,2022-01-10 19:24:26:835
-0.4137,9.548,1.5446,-0.4808,9.5859,2.0124,-0.0045,-0.1023,-0.3703,-0.8675,-0.0289,0.0214,15.45,-34.2,-8.48,286.78,-77.82,13.44,48.843895,2.353354,95.2,NaN,,12.854,,0 / 28,,1541,2022-01-10 19:24:26:839
-0.4137,9.548,1.5446,-0.4808,9.5859,2.0124,-0.0045,-0.1023,-0.3703,-0.8675,-0.0289,0.0214,15.45,-34.2,-8.48,286.78,-77.82,13.44,48.843895,2.353354,95.2,NaN,,12.854,,0 / 28,,1546,2022-01-10 19:24:26:844
-0.4137,9.548,1.5446,-0.4808,9.5859,2.0124,-0.0045,-0.1023,-0.3703,-0.8675,-0.0289,0.0214,15.45,-34.2,-8.48,286.78,-77.82,13.44,48.843895,2.353354,95.2,NaN,,12.854,,0 / 28,,1551,2022-01-10 19:24:26:849
-0.4137,9.548,1.5446,-0.4808,9.5859,2.0124,-0.0045,-0.1023,-0.3703,-0.8675,-0.0289,0.0214,15.45,-34.2,-8.48,286.78,-77.82,13.44,48.843895,2.353354,95.2,NaN,,12.854,,0 / 28,,1557,2022-01-10 19:24:26:855
-0.4663,9.4567,1.7818,-0.4808,9.5859,2.0124,0.0025,-0.1216,-0.4712,-0.8675,-0.0289,0.0214,15.45,-34.2,-8.48,286.78,-77.82,13.44,48.843895,2.353354,95.2,NaN,,12.854,,0 / 28,,1561,2022-01-10 19:24:26:859
-0.4663,9.4567,1.7818,-0.4808,9.5859,2.0124,0.0025,-0.1216,-0.4712,-1.1359,-0.0715,0.0417,15.45,-34.2,-8.48,286.78,-77.82,13.44,48.843895,2.353354,95.2,NaN,,12.854,,0 / 28,,1566,2022-01-10 19:24:26:864
-0.4663,9.4567,1.7818,-0.4667,9.5215,2.3009,0.0025,-0.1216,-0.4712,-1.1359,-0.0715,0.0417,15.45,-33.82,-8.92,286.78,-77.82,13.44,48.843895,2.353354,95.2,NaN,,12.854,,0 / 28,,1573,2022-01-10 19:24:26:871
-0.4663,9.4567,1.7818,-0.4667,9.5215,2.3009,0.0025,-0.1216,-0.4712,-1.1359,-0.0715,0.0417,15.45,-33.82,-8.92,286.78,-77.82,13.44,48.843895,2.353354,95.2,NaN,,12.854,,0 / 28,,1577,2022-01-10 19:24:26:875
-0.4663,9.4567,1.7818,-0.4667,9.5215,2.3009,0.0025,-0.1216,-0.4712,-1.1359,-0.0715,0.0417,15.45,-33.82,-8.92,286.78,-77.82,13.44,48.843895,2.353354,95.2,NaN,,12.854,,0 / 28,,1582,2022-01-10 19:24:26:880
-0.4663,9.4567,1.7818,-0.4667,9.5215,2.3009,0.0025,-0.1216,-0.4712,-1.1359,-0.0715,0.0417,15.45,-33.82,-8.92,286.78,-77.82,13.44,48.843895,2.353354,95.2,NaN,,12.854,,0 / 28,,1586,2022-01-10 19:24:26:884
-0.4711,9.3802,2.3351,-0.4667,9.5215,2.3009,0.0769,-0.0614,-0.3077,-1.1359,-0.0715,0.0417,15.45,-33.82,-8.92,286.78,-77.82,13.44,48.843895,2.353354,95.2,NaN,,12.854,,0 / 28,,1591,2022-01-10 19:24:26:889
-0.4711,9.3802,2.3351,-0.4667,9.5215,2.3009,0.0769,-0.0614,-0.3077,-1.366,0.0222,0.0023,15.45,-33.82,-8.92,286.78,-77.82,13.44,48.843895,2.353354,95.2,NaN,,12.854,,0 / 28,,1597,2022-01-10 19:24:26:895
-0.4711,9.3802,2.3351,-0.4667,9.5215,2.3009,0.0769,-0.0614,-0.3077,-1.366,0.0222,0.0023,15.45,-33.82,-8.92,286.78,-77.82,13.44,48.843895,2.353354,95.2,NaN,,12.854,,0 / 28,,1601,2022-01-10 19:24:26:899
-0.4711,9.3802,2.3351,-0.4572,9.4296,2.6541,0.0769,-0.0614,-0.3077,-1.366,0.0222,0.0023,15.15,-33.15,-10.2,282.34,-74.06,9.77,48.843895,2.353354,95.2,NaN,,12.854,,0 / 28,,1607,2022-01-10 19:24:26:905
-0.4711,9.3802,2.3351,-0.4572,9.4296,2.6541,0.0769,-0.0614,-0.3077,-1.366,0.0222,0.0023,15.15,-33.15,-10.2,282.34,-74.06,9.77,48.843895,2.353354,95.2,NaN,,12.854,,0 / 28,,1612,2022-01-10 19:24:26:910
-0.4711,9.3802,2.3351,-0.4572,9.4296,2.6541,0.0769,-0.0614,-0.3077,-1.366,0.0222,0.0023,15.15,-33.15,-10.2,282.34,-74.06,9.77,48.843895,2.353354,95.2,NaN,,12.854,,0 / 28,,1617,2022-01-10 19:24:26:915
-0.32,9.1813,2.6417,-0.4572,9.4296,2.6541,0.0708,-0.1786,-0.4242,-1.366,0.0222,0.0023,15.15,-33.15,-10.2,282.34,-74.06,9.77,48.843895,2.353354,95.2,NaN,,12.854,,0 / 28,,1622,2022-01-10 19:24:26:920
-0.32,9.1813,2.6417,-0.4572,9.4296,2.6541,0.0708,-0.1786,-0.4242,-1.5631,0.2587,-0.0126,15.15,-33.15,-10.2,282.34,-74.06,9.77,48.843895,2.353354,95.2,NaN,,12.854,,0 / 28,,1627,2022-01-10 19:24:26:925
-0.32,9.1813,2.6417,-0.466,9.3056,3.0591,0.0708,-0.1786,-0.4242,-1.5631,0.2587,-0.0126,15.53,-32.62,-11.33,282.34,-74.06,9.77,48.843895,2.353354,95.2,NaN,,12.854,,0 / 28,,1632,2022-01-10 19:24:26:930
-0.32,9.1813,2.6417,-0.466,9.3056,3.0591,0.0708,-0.1786,-0.4242,-1.5631,0.2587,-0.0126,15.53,-32.62,-11.33,282.34,-74.06,9.77,48.843895,2.353354,95.2,NaN,,12.854,,0 / 28,,1637,2022-01-10 19:24:26:935
-0.32,9.1813,2.6417,-0.466,9.3056,3.0591,0.0708,-0.1786,-0.4242,-1.5631,0.2587,-0.0126,15.53,-32.62,-11.33,282.34,-74.06,9.77,48.843895,2.353354,95.2,NaN,,12.854,,0 / 28,,1642,2022-01-10 19:24:26:940
-0.32,9.1813,2.6417,-0.466,9.3056,3.0591,0.0708,-0.1786,-0.4242,-1.5631,0.2587,-0.0126,15.53,-32.62,-11.33,282.34,-74.06,9.77,48.843895,2.353354,95.2,NaN,,12.854,,0 / 28,,1646,2022-01-10 19:24:26:944
-0.6772,9.0927,2.9892,-0.466,9.3056,3.0591,-0.1275,-0.0438,-0.3356,-1.5631,0.2587,-0.0126,15.53,-32.62,-11.33,282.34,-74.06,9.77,48.843895,2.353354,95.2,NaN,,12.854,,0 / 28,,1652,2022-01-10 19:24:26:950
-0.6772,9.0927,2.9892,-0.466,9.3056,3.0591,-0.1275,-0.0438,-0.3356,-1.7676,0.1415,0.0119,15.53,-32.62,-11.33,282.34,-74.06,9.77,48.843895,2.353354,95.2,NaN,,12.854,,0 / 28,,1657,2022-01-10 19:24:26:955
-0.6772,9.0927,2.9892,-0.4924,9.1411,3.5168,-0.1275,-0.0438,-0.3356,-1.7676,0.1415,0.0119,15.53,-31.65,-13.27,280.02,-68.77,7.97,48.843895,2.353354,95.2,NaN,,12.854,,0 / 28,,1662,2022-01-10 19:24:26:960
-0.6772,9.0927,2.9892,-0.4924,9.1411,3.5168,-0.1275,-0.0438,-0.3356,-1.7676,0.1415,0.0119,15.53,-31.65,-13.27,280.02,-68.77,7.97,48.843895,2.353354,95.2,NaN,,12.854,,0 / 28,,1666,2022-01-10 19:24:26:964
-0.6772,9.0927,2.9892,-0.4924,9.1411,3.5168,-0.1275,-0.0438,-0.3356,-1.7676,0.1415,0.0119,15.53,-31.65,-13.27,280.02,-68.77,7.97,48.843895,2.353354,95.2,NaN,,12.854,,0 / 28,,1672,2022-01-10 19:24:26:970
-0.7394,8.8436,3.3293,-0.4924,9.1411,3.5168,-0.1275,-0.0438,-0.3356,-1.7676,0.1415,0.0119,15.53,-31.65,-13.27,280.02,-68.77,7.97,48.843895,2.353354,95.2,NaN,,12.854,,0 / 28,,1677,2022-01-10 19:24:26:975
-0.7394,8.8436,3.3293,-0.4924,9.1411,3.5168,-0.1275,-0.0438,-0.3356,-1.7676,0.1415,0.0119,15.53,-31.65,-13.27,280.02,-68.77,7.97,48.843895,2.353354,95.2,NaN,,12.854,,0 / 28,,1682,2022-01-10 19:24:26:980
-0.7394,8.8436,3.3293,-0.4924,9.1411,3.5168,-0.2627,-0.1748,-0.4968,-2.018,-0.1525,0.0896,15.53,-31.65,-13.27,280.02,-68.77,7.97,48.843895,2.353354,95.2,NaN,,12.854,,0 / 28,,1686,2022-01-10 19:24:26:984
-0.7394,8.8436,3.3293,-0.4738,8.9219,4.043,-0.2627,-0.1748,-0.4968,-2.018,-0.1525,0.0896,15.53,-31.65,-13.27,280.02,-68.77,7.97,48.843895,2.353354,95.2,NaN,,12.854,,0 / 28,,1691,2022-01-10 19:24:26:989
-0.7394,8.8436,3.3293,-0.4738,8.9219,4.043,-0.2627,-0.1748,-0.4968,-2.018,-0.1525,0.0896,15.53,-31.65,-13.27,280.02,-68.77,7.97,48.843895,2.353354,95.2,NaN,,12.854,,0 / 28,,1696,2022-01-10 19:24:26:994
-0.7394,8.8436,3.3293,-0.4738,8.9219,4.043,-0.2627,-0.1748,-0.4968,-2.018,-0.1525,0.0896,15.53,-31.65,-13.27,280.02,-68.77,7.97,48.843895,2.353354,95.2,NaN,,12.854,,0 / 28,,1701,2022-01-10 19:24:26:999
-0.3057,8.429,4.2251,-0.4738,8.9219,4.043,-0.2627,-0.1748,-0.4968,-2.018,-0.1525,0.0896,15.3,-31.05,-15.9,280.02,-68.77,7.97,48.843895,2.353354,95.2,NaN,,12.854,,0 / 28,,1706,2022-01-10 19:24:27:004
-0.3057,8.429,4.2251,-0.4738,8.9219,4.043,-0.2627,-0.1748,-0.4968,-2.018,-0.1525,0.0896,15.3,-31.05,-15.9,280.02,-68.77,7.97,48.843895,2.353354,95.2,NaN,,12.854,,0 / 28,,1712,2022-01-10 19:24:27:010
-0.3057,8.429,4.2251,-0.4738,8.9219,4.043,-0.2627,-0.1748,-0.4968,-2.018,-0.1525,0.0896,15.3,-31.05,-15.9,280.02,-68.77,7.97,48.843895,2.353354,95.2,NaN,,12.854,,0 / 28,,1717,2022-01-10 19:24:27:015
-0.3057,8.429,4.2251,-0.4419,8.696,4.5117,0.037,-0.3901,0.0171,-2.1138,-0.0257,0.0672,15.3,-31.05,-15.9,280.02,-68.77,7.97,48.843895,2.353354,95.2,NaN,,12.854,,0 / 28,,1722,2022-01-10 19:24:27:020
-0.3057,8.429,4.2251,-0.4419,8.696,4.5117,0.037,-0.3901,0.0171,-2.1138,-0.0257,0.0672,15.3,-31.05,-15.9,280.02,-68.77,7.97,48.843895,2.353354,95.2,NaN,,12.854,,0 / 28,,1727,2022-01-10 19:24:27:025
-0.4759,8.2352,5.1308,-0.4419,8.696,4.5117,0.037,-0.3901,0.0171,-2.1138,-0.0257,0.0672,15.3,-31.05,-15.9,280.02,-68.77,7.97,48.843895,2.353354,95.2,NaN,,12.854,,0 / 28,,1732,2022-01-10 19:24:27:030
-0.4759,8.2352,5.1308,-0.4419,8.696,4.5117,0.037,-0.3901,0.0171,-2.1138,-0.0257,0.0672,15.3,-31.05,-15.9,280.02,-68.77,7.97,48.843895,2.353354,95.2,NaN,,12.854,,0 / 28,,1736,2022-01-10 19:24:27:034
-0.4759,8.2352,5.1308,-0.4419,8.696,4.5117,0.037,-0.3901,0.0171,-2.1138,-0.0257,0.0672,15.15,-30.6,-18.6,285.94,-62.47,5.59,48.843895,2.353354,95.2,NaN,,12.854,,0 / 28,,1741,2022-01-10 19:24:27:039
-0.4759,8.2352,5.1308,-0.4419,8.696,4.5117,0.037,-0.3901,0.0171,-2.1138,-0.0257,0.0672,15.15,-30.6,-18.6,285.94,-62.47,5.59,48.843895,2.353354,95.2,NaN,,12.854,,0 / 28,,1747,2022-01-10 19:24:27:045
-0.4759,8.2352,5.1308,-0.4333,8.3949,5.0506,0.0906,-0.1214,0.1707,-1.9519,0.0563,-0.0105,15.15,-30.6,-18.6,285.94,-62.47,5.59,48.843895,2.353354,95.2,NaN,,12.854,,0 / 28,,1752,2022-01-10 19:24:27:050
-0.4759,8.2352,5.1308,-0.4333,8.3949,5.0506,0.0906,-0.1214,0.1707,-1.9519,0.0563,-0.0105,15.15,-30.6,-18.6,285.94,-62.47,5.59,48.843895,2.353354,95.2,NaN,,12.854,,0 / 28,,1757,2022-01-10 19:24:27:055
-0.5237,7.9047,5.2193,-0.4333,8.3949,5.0506,0.0906,-0.1214,0.1707,-1.9519,0.0563,-0.0105,15.15,-30.6,-18.6,285.94,-62.47,5.59,48.843895,2.353354,95.2,NaN,,12.854,,0 / 28,,1762,2022-01-10 19:24:27:060
-0.5237,7.9047,5.2193,-0.4333,8.3949,5.0506,0.0906,-0.1214,0.1707,-1.9519,0.0563,-0.0105,15.15,-30.6,-18.6,285.94,-62.47,5.59,48.843895,2.353354,95.2,NaN,,12.854,,0 / 28,,1767,2022-01-10 19:24:27:065
-0.5237,7.9047,5.2193,-0.4333,8.3949,5.0506,0.0906,-0.1214,0.1707,-1.9519,0.0563,-0.0105,15.53,-29.17,-20.92,285.94,-62.47,5.59,48.843895,2.353354,95.2,NaN,,12.854,,0 / 28,,1772,2022-01-10 19:24:27:070
-0.5237,7.9047,5.2193,-0.4333,8.3949,5.0506,0.0906,-0.1214,0.1707,-1.9519,0.0563,-0.0105,15.53,-29.17,-20.92,285.94,-62.47,5.59,48.843895,2.353354,95.2,NaN,,12.854,,0 / 28,,1777,2022-01-10 19:24:27:075
-0.5237,7.9047,5.2193,-0.4382,8.0833,5.5353,-0.2016,-0.3706,-0.519,-1.9519,0.0563,-0.0105,15.53,-29.17,-20.92,285.94,-62.47,5.59,48.843895,2.353354,95.2,NaN,,12.854,,0 / 28,,1783,2022-01-10 19:24:27:081
-0.5812,7.6699,5.0228,-0.4382,8.0833,5.5353,-0.2016,-0.3706,-0.519,-1.9519,-0.227,-0.0222,15.53,-29.17,-20.92,285.94,-62.47,5.59,48.843895,2.353354,95.2,NaN,,12.854,,0 / 28,,1787,2022-01-10 19:24:27:085
-0.5812,7.6699,5.0228,-0.4382,8.0833,5.5353,-0.2016,-0.3706,-0.519,-1.9519,-0.227,-0.0222,15.53,-29.17,-20.92,285.94,-62.47,5.59,48.843895,2.353354,95.2,NaN,,12.854,,0 / 28,,1792,2022-01-10 19:24:27:090
-0.5812,7.6699,5.0228,-0.4382,8.0833,5.5353,-0.2016,-0.3706,-0.519,-1.9519,-0.227,-0.0222,15.53,-29.17,-20.92,285.94,-62.47,5.59,48.843895,2.353354,95.2,NaN,,12.854,,0 / 28,,1797,2022-01-10 19:24:27:095
-0.5812,7.6699,5.0228,-0.4382,8.0833,5.5353,-0.2016,-0.3706,-0.519,-1.9519,-0.227,-0.0222,15.53,-29.17,-20.92,285.94,-62.47,5.59,48.843895,2.353354,95.2,NaN,,12.854,,0 / 28,,1802,2022-01-10 19:24:27:100
-0.5812,7.6699,5.0228,-0.4382,8.0833,5.5353,-0.2016,-0.3706,-0.519,-1.9519,-0.227,-0.0222,15.08,-27.45,-22.65,289.25,-55.51,4.53,48.843895,2.353354,95.2,NaN,,12.854,,0 / 28,,1807,2022-01-10 19:24:27:105
-0.5812,7.6699,5.0228,-0.4004,7.7291,6.0225,-0.0241,-0.5338,-1.1368,-1.9519,-0.227,-0.0222,15.08,-27.45,-22.65,289.25,-55.51,4.53,48.843895,2.353354,95.2,NaN,,12.854,,0 / 28,,1811,2022-01-10 19:24:27:109
-0.253,6.8411,5.03,-0.4004,7.7291,6.0225,-0.0241,-0.5338,-1.1368,-1.9519,-0.227,-0.0222,15.08,-27.45,-22.65,289.25,-55.51,4.53,48.843895,2.353354,95.2,NaN,,12.854,,0 / 28,,1817,2022-01-10 19:24:27:115
-0.253,6.8411,5.03,-0.4004,7.7291,6.0225,-0.0241,-0.5338,-1.1368,-2.4142,-0.161,0.0225,15.08,-27.45,-22.65,289.25,-55.51,4.53,48.843895,2.353354,95.2,NaN,,12.854,,0 / 28,,1821,2022-01-10 19:24:27:119
-0.253,6.8411,5.03,-0.4004,7.7291,6.0225,-0.0241,-0.5338,-1.1368,-2.4142,-0.161,0.0225,15.08,-27.45,-22.65,289.25,-55.51,4.53,48.843895,2.353354,95.2,NaN,,12.854,,0 / 28,,1827,2022-01-10 19:24:27:125
-0.253,6.8411,5.03,-0.4004,7.7291,6.0225,-0.0241,-0.5338,-1.1368,-2.4142,-0.161,0.0225,15.08,-27.45,-22.65,289.25,-55.51,4.53,48.843895,2.353354,95.2,NaN,,12.854,,0 / 28,,1832,2022-01-10 19:24:27:130
-0.253,6.8411,5.03,-0.4004,7.7291,6.0225,-0.0241,-0.5338,-1.1368,-2.4142,-0.161,0.0225,15.08,-27.45,-22.65,289.25,-55.51,4.53,48.843895,2.353354,95.2,NaN,,12.854,,0 / 28,,1837,2022-01-10 19:24:27:135
-0.1669,6.6829,6.5201,-0.3753,7.3432,6.489,0.1302,-0.6167,-0.6916,-2.4142,-0.161,0.0225,14.63,-25.2,-25.5,289.25,-55.51,4.53,48.843895,2.353354,95.2,NaN,,12.854,,0 / 28,,1841,2022-01-10 19:24:27:139
-0.1669,6.6829,6.5201,-0.3753,7.3432,6.489,0.1302,-0.6167,-0.6916,-2.4142,-0.161,0.0225,14.63,-25.2,-25.5,289.25,-55.51,4.53,48.843895,2.353354,95.2,NaN,,12.854,,0 / 28,,1846,2022-01-10 19:24:27:144
-0.1669,6.6829,6.5201,-0.3753,7.3432,6.489,0.1302,-0.6167,-0.6916,-2.7625,0.2268,-0.1097,14.63,-25.2,-25.5,289.25,-55.51,4.53,48.843895,2.353354,95.2,NaN,,12.854,,0 / 28,,1852,2022-01-10 19:24:27:150
-0.1669,6.6829,6.5201,-0.3753,7.3432,6.489,0.1302,-0.6167,-0.6916,-2.7625,0.2268,-0.1097,14.63,-25.2,-25.5,289.25,-55.51,4.53,48.843895,2.353354,95.2,NaN,,12.854,,0 / 28,,1857,2022-01-10 19:24:27:155
-0.1669,6.6829,6.5201,-0.3753,7.3432,6.489,0.1302,-0.6167,-0.6916,-2.7625,0.2268,-0.1097,14.63,-25.2,-25.5,289.25,-55.51,4.53,48.843895,2.353354,95.2,NaN,,12.854,,0 / 28,,1862,2022-01-10 19:24:27:160
-0.1669,6.6829,6.5201,-0.3753,7.3432,6.489,0.1302,-0.6167,-0.6916,-2.7625,0.2268,-0.1097,14.63,-25.2,-25.5,289.25,-55.51,4.53,48.843895,2.353354,95.2,NaN,,12.854,,0 / 28,,1867,2022-01-10 19:24:27:165
-0.5572,6.1558,7.2509,-0.4479,6.6743,7.171,-0.0693,-0.456,-0.0871,-2.7625,0.2268,-0.1097,15.3,-23.7,-27.45,275.98,-42.89,3.57,48.843895,2.353354,95.2,NaN,,12.854,,0 / 28,,1871,2022-01-10 19:24:27:169
-0.5572,6.1558,7.2509,-0.4479,6.6743,7.171,-0.0693,-0.456,-0.0871,-2.7625,0.2268,-0.1097,15.3,-23.7,-27.45,275.98,-42.89,3.57,48.843895,2.353354,95.2,NaN,,12.854,,0 / 28,,1877,2022-01-10 19:24:27:175
-0.5572,6.1558,7.2509,-0.4479,6.6743,7.171,-0.0693,-0.456,-0.0871,-2.8382,0.3823,-0.229,15.3,-23.7,-27.45,275.98,-42.89,3.57,48.843895,2.353354,95.2,NaN,,12.854,,0 / 28,,1882,2022-01-10 19:24:27:180
-0.5572,6.1558,7.2509,-0.4479,6.6743,7.171,-0.0693,-0.456,-0.0871,-2.8382,0.3823,-0.229,15.3,-23.7,-27.45,275.98,-42.89,3.57,48.843895,2.353354,95.2,NaN,,12.854,,0 / 28,,1887,2022-01-10 19:24:27:185
-0.5572,6.1558,7.2509,-0.4479,6.6743,7.171,-0.0693,-0.456,-0.0871,-2.8382,0.3823,-0.229,15.3,-23.7,-27.45,275.98,-42.89,3.57,48.843895,2.353354,95.2,NaN,,12.854,,0 / 28,,1892,2022-01-10 19:24:27:190
-0.4472,5.6767,7.5861,-0.4479,6.6743,7.171,-0.0693,-0.456,-0.0871,-2.8382,0.3823,-0.229,15.3,-23.7,-27.45,275.98,-42.89,3.57,48.843895,2.353354,95.2,NaN,,12.854,,0 / 28,,1897,2022-01-10 19:24:27:195
-0.4472,5.6767,7.5861,-0.4479,6.6743,7.171,-0.0693,-0.456,-0.0871,-2.8382,0.3823,-0.229,15.3,-23.7,-27.45,275.98,-42.89,3.57,48.843895,2.353354,95.2,NaN,,12.854,,0 / 28,,1901,2022-01-10 19:24:27:199
-0.4472,5.6767,7.5861,-0.5749,6.0264,7.7151,0.1508,-0.2272,-0.1464,-2.8382,0.3823,-0.229,16.05,-21.6,-30.22,275.98,-42.89,3.57,48.843895,2.353354,95.2,NaN,,12.854,,0 / 28,,1906,2022-01-10 19:24:27:204
-0.4472,5.6767,7.5861,-0.5749,6.0264,7.7151,0.1508,-0.2272,-0.1464,-2.8499,0.3344,-0.2716,16.05,-21.6,-30.22,275.98,-42.89,3.57,48.843895,2.353354,95.2,NaN,,12.854,,0 / 28,,1912,2022-01-10 19:24:27:210
-0.4472,5.6767,7.5861,-0.5749,6.0264,7.7151,0.1508,-0.2272,-0.1464,-2.8499,0.3344,-0.2716,16.05,-21.6,-30.22,275.98,-42.89,3.57,48.843895,2.353354,95.2,NaN,,12.854,,0 / 28,,1919,2022-01-10 19:24:27:217
-0.4472,5.6767,7.5861,-0.5749,6.0264,7.7151,0.1508,-0.2272,-0.1464,-2.8499,0.3344,-0.2716,16.05,-21.6,-30.22,275.98,-42.89,3.57,48.843895,2.353354,95.2,NaN,,12.854,,0 / 28,,1921,2022-01-10 19:24:27:219
-0.6628,5.0611,8.6545,-0.5749,6.0264,7.7151,0.1508,-0.2272,-0.1464,-2.8499,0.3344,-0.2716,16.05,-21.6,-30.22,275.98,-42.89,3.57,48.843895,2.353354,95.2,NaN,,12.854,,0 / 28,,1926,2022-01-10 19:24:27:224
-0.6628,5.0611,8.6545,-0.7082,5.3311,8.2005,0.0275,-0.2993,0.524,-2.8499,0.3344,-0.2716,16.05,-21.6,-30.22,275.98,-42.89,3.57,48.843895,2.353354,95.2,NaN,,12.854,,0 / 28,,1931,2022-01-10 19:24:27:229
-0.6628,5.0611,8.6545,-0.7082,5.3311,8.2005,0.0275,-0.2993,0.524,-2.8499,0.3344,-0.2716,16.05,-21.6,-30.22,275.98,-42.89,3.57,48.843895,2.353354,95.2,NaN,,12.854,,0 / 28,,1937,2022-01-10 19:24:27:235
-0.6628,5.0611,8.6545,-0.7082,5.3311,8.2005,0.0275,-0.2993,0.524,-2.5112,0.5804,-0.1822,17.03,-18.22,-32.85,284.17,-32.93,4.94,48.843895,2.353354,95.2,NaN,,12.854,,0 / 28,,1941,2022-01-10 19:24:27:239
-0.6628,5.0611,8.6545,-0.7082,5.3311,8.2005,0.0275,-0.2993,0.524,-2.5112,0.5804,-0.1822,17.03,-18.22,-32.85,284.17,-32.93,4.94,48.843895,2.353354,95.2,NaN,,12.854,,0 / 28,,1947,2022-01-10 19:24:27:245
-0.6628,5.0611,8.6545,-0.7082,5.3311,8.2005,0.0275,-0.2993,0.524,-2.5112,0.5804,-0.1822,17.03,-18.22,-32.85,284.17,-32.93,4.94,48.843895,2.353354,95.2,NaN,,12.854,,0 / 28,,1952,2022-01-10 19:24:27:250
-0.9646,4.3929,9.0903,-0.7082,5.3311,8.2005,0.0275,-0.2993,0.524,-2.5112,0.5804,-0.1822,17.03,-18.22,-32.85,284.17,-32.93,4.94,48.843895,2.353354,95.2,NaN,,12.854,,0 / 28,,1957,2022-01-10 19:24:27:255
-0.9646,4.3929,9.0903,-0.8789,4.6741,8.5762,-0.0964,-0.2965,0.5321,-2.5112,0.5804,-0.1822,17.03,-18.22,-32.85,284.17,-32.93,4.94,48.843895,2.353354,95.2,NaN,,12.854,,0 / 28,,1961,2022-01-10 19:24:27:259
-0.9646,4.3929,9.0903,-0.8789,4.6741,8.5762,-0.0964,-0.2965,0.5321,-2.5112,0.5804,-0.1822,17.03,-18.22,-32.85,284.17,-32.93,4.94,48.843895,2.353354,95.2,NaN,,12.854,,0 / 28,,1966,2022-01-10 19:24:27:264
-0.9646,4.3929,9.0903,-0.8789,4.6741,8.5762,-0.0964,-0.2965,0.5321,-2.5112,0.5804,-0.1822,17.55,-15.22,-34.2,284.17,-32.93,4.94,48.843895,2.353354,95.2,NaN,,12.854,,0 / 28,,1972,2022-01-10 19:24:27:270
-0.9646,4.3929,9.0903,-0.8789,4.6741,8.5762,-0.0964,-0.2965,0.5321,-2.215,0.4366,-0.196,17.55,-15.22,-34.2,284.17,-32.93,4.94,48.843895,2.353354,95.2,NaN,,12.854,,0 / 28,,1976,2022-01-10 19:24:27:274
-0.9168,3.9592,8.5418,-0.8789,4.6741,8.5762,-0.0964,-0.2965,0.5321,-2.215,0.4366,-0.196,17.55,-15.22,-34.2,284.17,-32.93,4.94,48.843895,2.353354,95.2,NaN,,12.854,,0 / 28,,1981,2022-01-10 19:24:27:279
-0.9168,3.9592,8.5418,-0.8789,4.6741,8.5762,-0.0964,-0.2965,0.5321,-2.215,0.4366,-0.196,17.55,-15.22,-34.2,284.17,-32.93,4.94,48.843895,2.353354,95.2,NaN,,12.854,,0 / 28,,1986,2022-01-10 19:24:27:284
-0.9168,3.9592,8.5418,-1.0196,4.0735,8.8621,0.1446,-0.1852,-0.4549,-2.215,0.4366,-0.196,17.55,-15.22,-34.2,284.17,-32.93,4.94,48.843895,2.353354,95.2,NaN,,12.854,,0 / 28,,1992,2022-01-10 19:24:27:290
-0.9168,3.9592,8.5418,-1.0196,4.0735,8.8621,0.1446,-0.1852,-0.4549,-2.215,0.4366,-0.196,17.55,-15.22,-34.2,284.17,-32.93,4.94,48.843895,2.353354,95.2,NaN,,12.854,,0 / 28,,1998,2022-01-10 19:24:27:296
-0.9168,3.9592,8.5418,-1.0196,4.0735,8.8621,0.1446,-0.1852,-0.4549,-2.215,0.4366,-0.196,17.55,-15.22,-34.2,284.17,-32.93,4.94,48.843895,2.353354,95.2,NaN,,12.854,,0 / 28,,2001,2022-01-10 19:24:27:299
-1.0412,3.4681,8.1347,-1.0196,4.0735,8.8621,0.1446,-0.1852,-0.4549,-2.1383,-0.0502,-0.3132,17.93,-12.75,-35.1,284.04,-24.54,6.56,48.843895,2.353354,95.2,NaN,,12.854,,0 / 28,,2007,2022-01-10 19:24:27:305
-1.0412,3.4681,8.1347,-1.0196,4.0735,8.8621,0.1446,-0.1852,-0.4549,-2.1383,-0.0502,-0.3132,17.93,-12.75,-35.1,284.04,-24.54,6.56,48.843895,2.353354,95.2,NaN,,12.854,,0 / 28,,2012,2022-01-10 19:24:27:310
-1.0412,3.4681,8.1347,-1.0324,3.5768,9.0725,-0.0036,-0.1628,-0.8568,-2.1383,-0.0502,-0.3132,17.93,-12.75,-35.1,284.04,-24.54,6.56,48.843895,2.353354,95.2,NaN,,12.854,,0 / 28,,2023,2022-01-10 19:24:27:321
-1.0412,3.4681,8.1347,-1.0324,3.5768,9.0725,-0.0036,-0.1628,-0.8568,-2.1383,-0.0502,-0.3132,17.93,-12.75,-35.1,284.04,-24.54,6.56,48.843895,2.353354,95.2,NaN,,12.854,,0 / 28,,2024,2022-01-10 19:24:27:322
-1.0412,3.4681,8.1347,-1.0324,3.5768,9.0725,-0.0036,-0.1628,-0.8568,-2.1383,-0.0502,-0.3132,17.93,-12.75,-35.1,284.04,-24.54,6.56,48.843895,2.353354,95.2,NaN,,12.854,,0 / 28,,2026,2022-01-10 19:24:27:324
-1.0412,3.4681,8.1347,-1.0324,3.5768,9.0725,-0.0036,-0.1628,-0.8568,-2.1383,-0.0502,-0.3132,17.93,-12.75,-35.1,284.04,-24.54,6.56,48.843895,2.353354,95.2,NaN,,12.854,,0 / 28,,2032,2022-01-10 19:24:27:330
-0.9287,2.7206,8.5202,-1.0324,3.5768,9.0725,-0.0036,-0.1628,-0.8568,-2.2747,-0.5818,-0.36,17.93,-12.75,-35.1,284.04,-24.54,6.56,48.843895,2.353354,95.2,NaN,,12.854,,0 / 28,,2036,2022-01-10 19:24:27:334
-0.9287,2.7206,8.5202,-1.0324,3.5768,9.0725,-0.0036,-0.1628,-0.8568,-2.2747,-0.5818,-0.36,18.0,-9.3,-36.23,284.04,-24.54,6.56,48.843895,2.353354,95.2,NaN,,12.854,,0 / 28,,2042,2022-01-10 19:24:27:340
-0.9287,2.7206,8.5202,-1.0324,3.5768,9.0725,-0.0036,-0.1628,-0.8568,-2.2747,-0.5818,-0.36,18.0,-9.3,-36.23,284.04,-24.54,6.56,48.843895,2.353354,95.2,NaN,,12.854,,0 / 28,,2046,2022-01-10 19:24:27:344
-0.9287,2.7206,8.5202,-1.0324,3.5768,9.0725,-0.0036,-0.1628,-0.8568,-2.2747,-0.5818,-0.36,18.0,-9.3,-36.23,284.04,-24.54,6.56,48.843895,2.353354,95.2,NaN,,12.854,,0 / 28,,2051,2022-01-10 19:24:27:349
-0.9287,2.7206,8.5202,-0.8922,2.8232,9.349,0.1708,-0.3572,-0.9522,-2.2747,-0.5818,-0.36,18.0,-9.3,-36.23,284.04,-24.54,6.56,48.843895,2.353354,95.2,NaN,,12.854,,0 / 28,,2057,2022-01-10 19:24:27:355
-0.9287,2.7206,8.5202,-0.8922,2.8232,9.349,0.1708,-0.3572,-0.9522,-2.2747,-0.5818,-0.36,18.0,-9.3,-36.23,284.04,-24.54,6.56,48.843895,2.353354,95.2,NaN,,12.854,,0 / 28,,2062,2022-01-10 19:24:27:360
-0.5524,1.8703,8.4748,-0.8922,2.8232,9.349,0.1708,-0.3572,-0.9522,-2.2747,-0.5818,-0.36,18.0,-9.3,-36.23,284.04,-24.54,6.56,48.843895,2.353354,95.2,NaN,,12.854,,0 / 28,,2066,2022-01-10 19:24:27:364
-0.5524,1.8703,8.4748,-0.8922,2.8232,9.349,0.1708,-0.3572,-0.9522,-2.5676,-0.9855,-0.5262,18.0,-9.3,-36.23,284.04,-24.54,6.56,48.843895,2.353354,95.2,NaN,,12.854,,0 / 28,,2072,2022-01-10 19:24:27:370
-0.5524,1.8703,8.4748,-0.8922,2.8232,9.349,0.1708,-0.3572,-0.9522,-2.5676,-0.9855,-0.5262,18.0,-9.3,-36.23,284.04,-24.54,6.56,48.843895,2.353354,95.2,NaN,,12.854,,0 / 28,,2077,2022-01-10 19:24:27:375
-0.5524,1.8703,8.4748,-0.8922,2.8232,9.349,0.1708,-0.3572,-0.9522,-2.5676,-0.9855,-0.5262,17.33,-5.77,-37.5,291.65,-16.73,5.45,48.843895,2.353354,95.2,NaN,,12.854,,0 / 28,,2081,2022-01-10 19:24:27:379
-0.5524,1.8703,8.4748,-0.6548,2.0805,9.561,0.4593,-0.4616,-0.8993,-2.5676,-0.9855,-0.5262,17.33,-5.77,-37.5,291.65,-16.73,5.45,48.843895,2.353354,95.2,NaN,,12.854,,0 / 28,,2087,2022-01-10 19:24:27:385
-0.5524,1.8703,8.4748,-0.6548,2.0805,9.561,0.4593,-0.4616,-0.8993,-2.5676,-0.9855,-0.5262,17.33,-5.77,-37.5,291.65,-16.73,5.45,48.843895,2.353354,95.2,NaN,,12.854,,0 / 28,,2092,2022-01-10 19:24:27:390
-0.4424,1.0367,9.5767,-0.6548,2.0805,9.561,0.4593,-0.4616,-0.8993,-2.5676,-0.9855,-0.5262,17.33,-5.77,-37.5,291.65,-16.73,5.45,48.843895,2.353354,95.2,NaN,,12.854,,0 / 28,,2097,2022-01-10 19:24:27:395
-0.4424,1.0367,9.5767,-0.6548,2.0805,9.561,0.4593,-0.4616,-0.8993,-2.5261,-1.2923,-0.5784,17.33,-5.77,-37.5,291.65,-16.73,5.45,48.843895,2.353354,95.2,NaN,,12.854,,0 / 28,,2101,2022-01-10 19:24:27:399
-0.4424,1.0367,9.5767,-0.6548,2.0805,9.561,0.4593,-0.4616,-0.8993,-2.5261,-1.2923,-0.5784,17.33,-5.77,-37.5,291.65,-16.73,5.45,48.843895,2.353354,95.2,NaN,,12.854,,0 / 28,,2106,2022-01-10 19:24:27:404
-0.4424,1.0367,9.5767,-0.6548,2.0805,9.561,0.4593,-0.4616,-0.8993,-2.5261,-1.2923,-0.5784,16.5,-2.85,-38.55,291.65,-16.73,5.45,48.843895,2.353354,95.2,NaN,,12.854,,0 / 28,,2112,2022-01-10 19:24:27:410
-0.4424,1.0367,9.5767,-0.3168,1.3153,9.7129,0.4593,-0.4616,-0.8993,-2.5261,-1.2923,-0.5784,16.5,-2.85,-38.55,291.65,-16.73,5.45,48.843895,2.353354,95.2,NaN,,12.854,,0 / 28,,2117,2022-01-10 19:24:27:415
-0.737,0.6105,10.4438,-0.3168,1.3153,9.7129,-0.3384,-0.5207,0.641,-2.5261,-1.2923,-0.5784,16.5,-2.85,-38.55,291.65,-16.73,5.45,48.843895,2.353354,95.2,NaN,,12.854,,0 / 28,,2122,2022-01-10 19:24:27:420
-0.737,0.6105,10.4438,-0.3168,1.3153,9.7129,-0.3384,-0.5207,0.641,-2.5261,-1.2923,-0.5784,16.5,-2.85,-38.55,291.65,-16.73,5.45,48.843895,2.353354,95.2,NaN,,12.854,,0 / 28,,2126,2022-01-10 19:24:27:424
-0.737,0.6105,10.4438,-0.3168,1.3153,9.7129,-0.3384,-0.5207,0.641,-2.5261,-1.2923,-0.5784,16.5,-2.85,-38.55,291.65,-16.73,5.45,48.843895,2.353354,95.2,NaN,,12.854,,0 / 28,,2132,2022-01-10 19:24:27:430
-0.737,0.6105,10.4438,-0.3168,1.3153,9.7129,-0.3384,-0.5207,0.641,-1.8912,-1.321,0.1226,16.5,-2.85,-38.55,291.65,-16.73,5.45,48.843895,2.353354,95.2,NaN,,12.854,,0 / 28,,2137,2022-01-10 19:24:27:435
-0.737,0.6105,10.4438,-0.3168,1.3153,9.7129,-0.3384,-0.5207,0.641,-1.8912,-1.321,0.1226,14.85,-0.08,-39.37,291.1,-7.71,1.87,48.843895,2.353354,95.2,NaN,,12.854,,0 / 28,,2142,2022-01-10 19:24:27:440
-0.0661,0.548,11.2391,0.0597,0.6876,9.7823,-0.3384,-0.5207,0.641,-1.8912,-1.321,0.1226,14.85,-0.08,-39.37,291.1,-7.71,1.87,48.843895,2.353354,95.2,NaN,,12.854,,0 / 28,,2148,2022-01-10 19:24:27:446
-0.0661,0.548,11.2391,0.0597,0.6876,9.7823,-0.3084,-0.0384,1.4481,-1.8912,-1.321,0.1226,14.85,-0.08,-39.37,291.1,-7.71,1.87,48.843895,2.353354,95.2,NaN,,12.854,,0 / 28,,2152,2022-01-10 19:24:27:450
-0.0661,0.548,11.2391,0.0597,0.6876,9.7823,-0.3084,-0.0384,1.4481,-1.8912,-1.321,0.1226,14.85,-0.08,-39.37,291.1,-7.71,1.87,48.843895,2.353354,95.2,NaN,,12.854,,0 / 28,,2157,2022-01-10 19:24:27:455
-0.0661,0.548,11.2391,0.0597,0.6876,9.7823,-0.3084,-0.0384,1.4481,-1.8912,-1.321,0.1226,14.85,-0.08,-39.37,291.1,-7.71,1.87,48.843895,2.353354,95.2,NaN,,12.854,,0 / 28,,2162,2022-01-10 19:24:27:460
-0.0661,0.548,11.2391,0.0597,0.6876,9.7823,-0.3084,-0.0384,1.4481,-1.8912,-1.321,0.1226,14.85,-0.08,-39.37,291.1,-7.71,1.87,48.843895,2.353354,95.2,NaN,,12.854,,0 / 28,,2166,2022-01-10 19:24:27:464
-0.0661,0.548,11.2391,0.3253,0.3228,9.7959,-0.3084,-0.0384,1.4481,-1.154,-0.5498,0.5807,13.35,2.03,-40.28,291.1,-7.71,1.87,48.843895,2.353354,95.2,NaN,,12.854,,0 / 28,,2172,2022-01-10 19:24:27:470
0.396,0.3972,10.9086,0.3253,0.3228,9.7959,-0.3084,-0.0384,1.4481,-1.154,-0.5498,0.5807,13.35,2.03,-40.28,291.1,-7.71,1.87,48.843895,2.353354,95.2,NaN,,12.854,,0 / 28,,2177,2022-01-10 19:24:27:475
0.396,0.3972,10.9086,0.3253,0.3228,9.7959,0.016,0.2251,1.1806,-1.154,-0.5498,0.5807,13.35,2.03,-40.28,291.1,-7.71,1.87,48.843895,2.353354,95.2,NaN,,12.854,,0 / 28,,2182,2022-01-10 19:24:27:480
0.396,0.3972,10.9086,0.3253,0.3228,9.7959,0.016,0.2251,1.1806,-1.154,-0.5498,0.5807,13.35,2.03,-40.28,291.1,-7.71,1.87,48.843895,2.353354,95.2,NaN,,12.854,,0 / 28,,2186,2022-01-10 19:24:27:484
0.396,0.3972,10.9086,0.3253,0.3228,9.7959,0.016,0.2251,1.1806,-1.154,-0.5498,0.5807,13.35,2.03,-40.28,291.1,-7.71,1.87,48.843895,2.353354,95.2,NaN,,12.854,,0 / 28,,2192,2022-01-10 19:24:27:490
0.396,0.3972,10.9086,0.3253,0.3228,9.7959,0.016,0.2251,1.1806,-1.154,-0.5498,0.5807,13.35,2.03,-40.28,291.1,-7.71,1.87,48.843895,2.353354,95.2,NaN,,12.854,,0 / 28,,2196,2022-01-10 19:24:27:494
0.396,0.3972,10.9086,0.3253,0.3228,9.7959,0.016,0.2251,1.1806,-1.154,-0.5498,0.5807,13.35,2.03,-40.28,291.1,-7.71,1.87,48.843895,2.353354,95.2,NaN,,12.854,,0 / 28,,2202,2022-01-10 19:24:27:500
0.451,-0.0867,9.8737,0.4088,-0.0042,9.7981,0.016,0.2251,1.1806,-1.0411,0.0222,0.57,12.53,3.98,-40.65,285.16,0.02,-2.39,48.843895,2.353354,95.2,NaN,,12.854,,0 / 28,,2207,2022-01-10 19:24:27:505
0.451,-0.0867,9.8737,0.4088,-0.0042,9.7981,0.0625,-0.039,0.0259,-1.0411,0.0222,0.57,12.53,3.98,-40.65,285.16,0.02,-2.39,48.843895,2.353354,95.2,NaN,,12.854,,0 / 28,,2212,2022-01-10 19:24:27:510
0.451,-0.0867,9.8737,0.4088,-0.0042,9.7981,0.0625,-0.039,0.0259,-1.0411,0.0222,0.57,12.53,3.98,-40.65,285.16,0.02,-2.39,48.843895,2.353354,95.2,NaN,,12.854,,0 / 28,,2217,2022-01-10 19:24:27:515
0.451,-0.0867,9.8737,0.4088,-0.0042,9.7981,0.0625,-0.039,0.0259,-1.0411,0.0222,0.57,12.53,3.98,-40.65,285.16,0.02,-2.39,48.843895,2.353354,95.2,NaN,,12.854,,0 / 28,,2221,2022-01-10 19:24:27:519
0.451,-0.0867,9.8737,0.4088,-0.0042,9.7981,0.0625,-0.039,0.0259,-1.0411,0.0222,0.57,12.53,3.98,-40.65,285.16,0.02,-2.39,48.843895,2.353354,95.2,NaN,,12.854,,0 / 28,,2226,2022-01-10 19:24:27:524
0.6236,-0.3383,9.9506,0.4032,-0.3283,9.7929,0.0625,-0.039,0.0259,-1.0773,-0.0513,0.4891,12.53,3.98,-40.65,285.16,0.02,-2.39,48.843895,2.353354,95.2,NaN,,12.854,,0 / 28,,2232,2022-01-10 19:24:27:530
0.6236,-0.3383,9.9506,0.4032,-0.3283,9.7929,0.0625,-0.039,0.0259,-1.0773,-0.0513,0.4891,12.53,3.98,-40.65,285.16,0.02,-2.39,48.843895,2.353354,95.2,NaN,,12.854,,0 / 28,,2236,2022-01-10 19:24:27:534
0.6236,-0.3383,9.9506,0.4032,-0.3283,9.7929,0.1477,0.0924,0.3065,-1.0773,-0.0513,0.4891,12.23,5.4,-41.25,285.16,0.02,-2.39,48.843895,2.353354,95.2,NaN,,12.854,,0 / 28,,2241,2022-01-10 19:24:27:539
0.6236,-0.3383,9.9506,0.4032,-0.3283,9.7929,0.1477,0.0924,0.3065,-1.0773,-0.0513,0.4891,12.23,5.4,-41.25,285.16,0.02,-2.39,48.843895,2.353354,95.2,NaN,,12.854,,0 / 28,,2248,2022-01-10 19:24:27:546
0.6236,-0.3383,9.9506,0.4032,-0.3283,9.7929,0.1477,0.0924,0.3065,-1.0773,-0.0513,0.4891,12.23,5.4,-41.25,285.16,0.02,-2.39,48.843895,2.353354,95.2,NaN,,12.854,,0 / 28,,2252,2022-01-10 19:24:27:550
0.6236,-0.3383,9.9506,0.4032,-0.3283,9.7929,0.1477,0.0924,0.3065,-1.0773,-0.0513,0.4891,12.23,5.4,-41.25,285.16,0.02,-2.39,48.843895,2.353354,95.2,NaN,,12.854,,0 / 28,,2257,2022-01-10 19:24:27:555
0.5423,-0.652,10.6379,0.4123,-0.6461,9.7767,0.1477,0.0924,0.3065,-0.9112,0.002,0.3474,12.23,5.4,-41.25,285.16,0.02,-2.39,48.843895,2.353354,95.2,NaN,,12.854,,0 / 28,,2262,2022-01-10 19:24:27:560
0.5423,-0.652,10.6379,0.4123,-0.6461,9.7767,0.1477,0.0924,0.3065,-0.9112,0.002,0.3474,12.23,5.4,-41.25,285.16,0.02,-2.39,48.843895,2.353354,95.2,NaN,,12.854,,0 / 28,,2267,2022-01-10 19:24:27:565
0.5423,-0.652,10.6379,0.4123,-0.6461,9.7767,0.1264,0.011,0.8489,-0.9112,0.002,0.3474,12.0,6.68,-41.1,287.48,3.78,-2.41,48.843895,2.353354,95.2,NaN,,12.854,,0 / 28,,2272,2022-01-10 19:24:27:570
0.5423,-0.652,10.6379,0.4123,-0.6461,9.7767,0.1264,0.011,0.8489,-0.9112,0.002,0.3474,12.0,6.68,-41.1,287.48,3.78,-2.41,48.843895,2.353354,95.2,NaN,,12.854,,0 / 28,,2277,2022-01-10 19:24:27:575
0.5423,-0.652,10.6379,0.4123,-0.6461,9.7767,0.1264,0.011,0.8489,-0.9112,0.002,0.3474,12.0,6.68,-41.1,287.48,3.78,-2.41,48.843895,2.353354,95.2,NaN,,12.854,,0 / 28,,2282,2022-01-10 19:24:27:580
0.4729,-0.9682,10.4653,0.4123,-0.6461,9.7767,0.1264,0.011,0.8489,-0.9112,0.002,0.3474,12.0,6.68,-41.1,287.48,3.78,-2.41,48.843895,2.353354,95.2,NaN,,12.854,,0 / 28,,2287,2022-01-10 19:24:27:585
0.4729,-0.9682,10.4653,0.4081,-0.889,9.7577,0.1264,0.011,0.8489,-0.9112,0.002,0.3474,12.0,6.68,-41.1,287.48,3.78,-2.41,48.843895,2.353354,95.2,NaN,,12.854,,0 / 28,,2292,2022-01-10 19:24:27:590
0.4729,-0.9682,10.4653,0.4081,-0.889,9.7577,0.1264,0.011,0.8489,-0.4798,-0.0587,0.1802,12.0,6.68,-41.1,287.48,3.78,-2.41,48.843895,2.353354,95.2,NaN,,12.854,,0 / 28,,2296,2022-01-10 19:24:27:594
0.4729,-0.9682,10.4653,0.4081,-0.889,9.7577,0.0679,0.0317,0.6819,-0.4798,-0.0587,0.1802,11.78,7.73,-40.73,287.48,3.78,-2.41,48.843895,2.353354,95.2,NaN,,12.854,,0 / 28,,2302,2022-01-10 19:24:27:600
0.4729,-0.9682,10.4653,0.4081,-0.889,9.7577,0.0679,0.0317,0.6819,-0.4798,-0.0587,0.1802,11.78,7.73,-40.73,287.48,3.78,-2.41,48.843895,2.353354,95.2,NaN,,12.854,,0 / 28,,2307,2022-01-10 19:24:27:605
0.4729,-0.9682,10.4653,0.4081,-0.889,9.7577,0.0679,0.0317,0.6819,-0.4798,-0.0587,0.1802,11.78,7.73,-40.73,287.48,3.78,-2.41,48.843895,2.353354,95.2,NaN,,12.854,,0 / 28,,2312,2022-01-10 19:24:27:610
0.4992,-0.8773,10.4198,0.4081,-0.889,9.7577,0.0679,0.0317,0.6819,-0.4798,-0.0587,0.1802,11.78,7.73,-40.73,287.48,3.78,-2.41,48.843895,2.353354,95.2,NaN,,12.854,,0 / 28,,2316,2022-01-10 19:24:27:614
0.4992,-0.8773,10.4198,0.4226,-0.9803,9.7484,0.0679,0.0317,0.6819,-0.01,-0.1716,0.0928,11.78,7.73,-40.73,287.48,3.78,-2.41,48.843895,2.353354,95.2,NaN,,12.854,,0 / 28,,2325,2022-01-10 19:24:27:623
0.4992,-0.8773,10.4198,0.4226,-0.9803,9.7484,0.0679,0.0317,0.6819,-0.01,-0.1716,0.0928,11.78,7.73,-40.73,287.48,3.78,-2.41,48.843895,2.353354,95.2,NaN,,12.854,,0 / 28,,2326,2022-01-10 19:24:27:624
0.4992,-0.8773,10.4198,0.4226,-0.9803,9.7484,0.0679,0.0317,0.6819,-0.01,-0.1716,0.0928,11.78,7.73,-40.73,287.48,3.78,-2.41,48.843895,2.353354,95.2,NaN,,12.854,,0 / 28,,2332,2022-01-10 19:24:27:630
0.5734,-1.1049,10.0367,0.4226,-0.9803,9.7484,0.0895,-0.0383,0.5335,-0.01,-0.1716,0.0928,11.78,7.73,-40.73,287.48,3.78,-2.41,48.843895,2.353354,95.2,NaN,,12.854,,0 / 28,,2337,2022-01-10 19:24:27:635
0.5734,-1.1049,10.0367,0.4226,-0.9803,9.7484,0.0895,-0.0383,0.5335,-0.01,-0.1716,0.0928,11.63,8.33,-40.87,285.89,5.74,-2.48,48.843895,2.353354,95.2,NaN,,12.854,,0 / 28,,2341,2022-01-10 19:24:27:639
0.5734,-1.1049,10.0367,0.4226,-0.9803,9.7484,0.0895,-0.0383,0.5335,-0.01,-0.1716,0.0928,11.63,8.33,-40.87,285.89,5.74,-2.48,48.843895,2.353354,95.2,NaN,,12.854,,0 / 28,,2347,2022-01-10 19:24:27:645
0.5734,-1.1049,10.0367,0.4226,-0.9803,9.7484,0.0895,-0.0383,0.5335,-0.01,-0.1716,0.0928,11.63,8.33,-40.87,285.89,5.74,-2.48,48.843895,2.353354,95.2,NaN,,12.854,,0 / 28,,2352,2022-01-10 19:24:27:650
0.5734,-1.1049,10.0367,0.4883,-0.9637,9.747,0.0895,-0.0383,0.5335,0.0891,-0.2398,0.0246,11.63,8.33,-40.87,285.89,5.74,-2.48,48.843895,2.353354,95.2,NaN,,12.854,,0 / 28,,2357,2022-01-10 19:24:27:655
0.5734,-1.1049,10.0367,0.4883,-0.9637,9.747,0.0895,-0.0383,0.5335,0.0891,-0.2398,0.0246,11.63,8.33,-40.87,285.89,5.74,-2.48,48.843895,2.353354,95.2,NaN,,12.854,,0 / 28,,2362,2022-01-10 19:24:27:660
0.5734,-1.1049,10.0367,0.4883,-0.9637,9.747,0.0895,-0.0383,0.5335,0.0891,-0.2398,0.0246,11.63,8.33,-40.87,285.89,5.74,-2.48,48.843895,2.353354,95.2,NaN,,12.854,,0 / 28,,2367,2022-01-10 19:24:27:665
0.5638,-1.0642,9.5815,0.4883,-0.9637,9.747,0.0816,-0.1521,-0.1723,0.0891,-0.2398,0.0246,11.33,8.93,-41.02,285.89,5.74,-2.48,48.843895,2.353354,95.2,NaN,,12.854,,0 / 28,,2371,2022-01-10 19:24:27:669
0.5638,-1.0642,9.5815,0.4883,-0.9637,9.747,0.0816,-0.1521,-0.1723,0.0891,-0.2398,0.0246,11.33,8.93,-41.02,285.89,5.74,-2.48,48.843895,2.353354,95.2,NaN,,12.854,,0 / 28,,2377,2022-01-10 19:24:27:675
0.5638,-1.0642,9.5815,0.4883,-0.9637,9.747,0.0816,-0.1521,-0.1723,0.0891,-0.2398,0.0246,11.33,8.93,-41.02,285.89,5.74,-2.48,48.843895,2.353354,95.2,NaN,,12.854,,0 / 28,,2383,2022-01-10 19:24:27:681
0.5638,-1.0642,9.5815,0.5495,-0.9534,9.7447,0.0816,-0.1521,-0.1723,-0.0601,-0.0949,-0.0052,11.33,8.93,-41.02,285.89,5.74,-2.48,48.843895,2.353354,95.2,NaN,,12.854,,0 / 28,,2387,2022-01-10 19:24:27:685
0.5638,-1.0642,9.5815,0.5495,-0.9534,9.7447,0.0816,-0.1521,-0.1723,-0.0601,-0.0949,-0.0052,11.33,8.93,-41.02,285.89,5.74,-2.48,48.843895,2.353354,95.2,NaN,,12.854,,0 / 28,,2392,2022-01-10 19:24:27:690
0.5638,-1.0642,9.5815,0.5495,-0.9534,9.7447,0.0816,-0.1521,-0.1723,-0.0601,-0.0949,-0.0052,11.33,8.93,-41.02,285.89,5.74,-2.48,48.843895,2.353354,95.2,NaN,,12.854,,0 / 28,,2396,2022-01-10 19:24:27:694
0.504,-0.8007,9.6269,0.5495,-0.9534,9.7447,-0.0627,0.2149,-0.1869,-0.0601,-0.0949,-0.0052,11.18,9.3,-40.95,290.76,5.58,-3.23,48.843895,2.353354,95.2,NaN,,12.854,,0 / 28,,2402,2022-01-10 19:24:27:700
0.504,-0.8007,9.6269,0.5495,-0.9534,9.7447,-0.0627,0.2149,-0.1869,-0.0601,-0.0949,-0.0052,11.18,9.3,-40.95,290.76,5.58,-3.23,48.843895,2.353354,95.2,NaN,,12.854,,0 / 28,,2407,2022-01-10 19:24:27:705
0.504,-0.8007,9.6269,0.5495,-0.9534,9.7447,-0.0627,0.2149,-0.1869,-0.0601,-0.0949,-0.0052,11.18,9.3,-40.95,290.76,5.58,-3.23,48.843895,2.353354,95.2,NaN,,12.854,,0 / 28,,2412,2022-01-10 19:24:27:710
0.504,-0.8007,9.6269,0.5495,-0.9534,9.7447,-0.0627,0.2149,-0.1869,-0.0601,-0.0949,-0.0052,11.18,9.3,-40.95,290.76,5.58,-3.23,48.843895,2.353354,95.2,NaN,,12.854,,0 / 28,,2417,2022-01-10 19:24:27:715
0.504,-0.8007,9.6269,0.5605,-0.9742,9.742,-0.0627,0.2149,-0.1869,-0.0292,0.0425,-0.0329,11.18,9.3,-40.95,290.76,5.58,-3.23,48.843895,2.353354,95.2,NaN,,12.854,,0 / 28,,2421,2022-01-10 19:24:27:719
0.6117,-0.9203,9.8904,0.5605,-0.9742,9.742,0.0779,0.0598,0.1424,-0.0292,0.0425,-0.0329,11.18,9.3,-40.95,290.76,5.58,-3.23,48.843895,2.353354,95.2,NaN,,12.854,,0 / 28,,2427,2022-01-10 19:24:27:725
0.6117,-0.9203,9.8904,0.5605,-0.9742,9.742,0.0779,0.0598,0.1424,-0.0292,0.0425,-0.0329,11.18,9.3,-40.95,290.76,5.58,-3.23,48.843895,2.353354,95.2,NaN,,12.854,,0 / 28,,2432,2022-01-10 19:24:27:730
0.6117,-0.9203,9.8904,0.5605,-0.9742,9.742,0.0779,0.0598,0.1424,-0.0292,0.0425,-0.0329,11.18,9.3,-40.95,290.76,5.58,-3.23,48.843895,2.353354,95.2,NaN,,12.854,,0 / 28,,2437,2022-01-10 19:24:27:735
0.6117,-0.9203,9.8904,0.5605,-0.9742,9.742,0.0779,0.0598,0.1424,-0.0292,0.0425,-0.0329,10.88,8.78,-41.18,290.76,5.58,-3.23,48.843895,2.353354,95.2,NaN,,12.854,,0 / 28,,2441,2022-01-10 19:24:27:739
0.6117,-0.9203,9.8904,0.5351,-0.9643,9.7444,0.0779,0.0598,0.1424,-0.0292,0.0425,-0.0329,10.88,8.78,-41.18,290.76,5.58,-3.23,48.843895,2.353354,95.2,NaN,,12.854,,0 / 28,,2448,2022-01-10 19:24:27:746
0.4729,-0.906,9.7325,0.5351,-0.9643,9.7444,0.0779,0.0598,0.1424,0.1338,0.1746,-0.0105,10.88,8.78,-41.18,290.76,5.58,-3.23,48.843895,2.353354,95.2,NaN,,12.854,,0 / 28,,2452,2022-01-10 19:24:27:750
0.4729,-0.906,9.7325,0.5351,-0.9643,9.7444,0.0779,0.0598,0.1424,0.1338,0.1746,-0.0105,10.88,8.78,-41.18,290.76,5.58,-3.23,48.843895,2.353354,95.2,NaN,,12.854,,0 / 28,,2457,2022-01-10 19:24:27:755
0.4729,-0.906,9.7325,0.5351,-0.9643,9.7444,-0.0381,0.0658,-0.0521,0.1338,0.1746,-0.0105,10.88,8.78,-41.18,290.76,5.58,-3.23,48.843895,2.353354,95.2,NaN,,12.854,,0 / 28,,2462,2022-01-10 19:24:27:760
0.4729,-0.906,9.7325,0.5351,-0.9643,9.7444,-0.0381,0.0658,-0.0521,0.1338,0.1746,-0.0105,10.88,8.78,-41.18,290.76,5.58,-3.23,48.843895,2.353354,95.2,NaN,,12.854,,0 / 28,,2467,2022-01-10 19:24:27:765
0.4729,-0.906,9.7325,0.5351,-0.9643,9.7444,-0.0381,0.0658,-0.0521,0.1338,0.1746,-0.0105,10.88,8.78,-41.18,290.76,5.58,-3.23,48.843895,2.353354,95.2,NaN,,12.854,,0 / 28,,2471,2022-01-10 19:24:27:769
0.4729,-0.906,9.7325,0.5351,-0.9643,9.7444,-0.0381,0.0658,-0.0521,0.1338,0.1746,-0.0105,11.33,8.55,-41.47,290.66,5.64,-3.14,48.843895,2.353354,95.2,NaN,,12.854,,0 / 28,,2477,2022-01-10 19:24:27:775
0.451,-0.7648,9.4211,0.4767,-0.9222,9.7516,-0.0381,0.0658,-0.0521,0.1338,0.1746,-0.0105,11.33,8.55,-41.47,290.66,5.64,-3.14,48.843895,2.353354,95.2,NaN,,12.854,,0 / 28,,2481,2022-01-10 19:24:27:779
0.451,-0.7648,9.4211,0.4767,-0.9222,9.7516,-0.0381,0.0658,-0.0521,0.0848,0.2822,0.0193,11.33,8.55,-41.47,290.66,5.64,-3.14,48.843895,2.353354,95.2,NaN,,12.854,,0 / 28,,2487,2022-01-10 19:24:27:785
0.451,-0.7648,9.4211,0.4767,-0.9222,9.7516,-0.0154,0.1389,-0.3806,0.0848,0.2822,0.0193,11.33,8.55,-41.47,290.66,5.64,-3.14,48.843895,2.353354,95.2,NaN,,12.854,,0 / 28,,2491,2022-01-10 19:24:27:789
0.451,-0.7648,9.4211,0.4767,-0.9222,9.7516,-0.0154,0.1389,-0.3806,0.0848,0.2822,0.0193,11.33,8.55,-41.47,290.66,5.64,-3.14,48.843895,2.353354,95.2,NaN,,12.854,,0 / 28,,2497,2022-01-10 19:24:27:795
0.451,-0.7648,9.4211,0.4767,-0.9222,9.7516,-0.0154,0.1389,-0.3806,0.0848,0.2822,0.0193,11.33,8.55,-41.47,290.66,5.64,-3.14,48.843895,2.353354,95.2,NaN,,12.854,,0 / 28,,2501,2022-01-10 19:24:27:799
0.3553,-0.8677,9.402,0.4767,-0.9222,9.7516,-0.0154,0.1389,-0.3806,0.0848,0.2822,0.0193,11.1,8.25,-41.25,290.66,5.64,-3.14,48.843895,2.353354,95.2,NaN,,12.854,,0 / 28,,2506,2022-01-10 19:24:27:804
0.3553,-0.8677,9.402,0.3929,-0.9056,9.7568,-0.0154,0.1389,-0.3806,0.0848,0.2822,0.0193,11.1,8.25,-41.25,290.66,5.64,-3.14,48.843895,2.353354,95.2,NaN,,12.854,,0 / 28,,2512,2022-01-10 19:24:27:810
0.3553,-0.8677,9.402,0.3929,-0.9056,9.7568,-0.0154,0.1389,-0.3806,-0.0537,0.2608,0.047,11.1,8.25,-41.25,290.66,5.64,-3.14,48.843895,2.353354,95.2,NaN,,12.854,,0 / 28,,2520,2022-01-10 19:24:27:818
0.3553,-0.8677,9.402,0.3929,-0.9056,9.7568,-0.0392,-0.0836,-0.164,-0.0537,0.2608,0.047,11.1,8.25,-41.25,290.66,5.64,-3.14,48.843895,2.353354,95.2,NaN,,12.854,,0 / 28,,2521,2022-01-10 19:24:27:819
0.3553,-0.8677,9.402,0.3929,-0.9056,9.7568,-0.0392,-0.0836,-0.164,-0.0537,0.2608,0.047,11.1,8.25,-41.25,290.66,5.64,-3.14,48.843895,2.353354,95.2,NaN,,12.854,,0 / 28,,2526,2022-01-10 19:24:27:824
0.3697,-0.9586,9.766,0.3929,-0.9056,9.7568,-0.0392,-0.0836,-0.164,-0.0537,0.2608,0.047,11.1,8.25,-41.25,290.66,5.64,-3.14,48.843895,2.353354,95.2,NaN,,12.854,,0 / 28,,2532,2022-01-10 19:24:27:830
0.3697,-0.9586,9.766,0.3249,-0.9218,9.7578,-0.0392,-0.0836,-0.164,-0.0537,0.2608,0.047,11.1,8.25,-41.25,290.66,5.64,-3.14,48.843895,2.353354,95.2,NaN,,12.854,,0 / 28,,2536,2022-01-10 19:24:27:834
0.3697,-0.9586,9.766,0.3249,-0.9218,9.7578,-0.0392,-0.0836,-0.164,-0.0537,0.2608,0.047,11.1,7.95,-41.25,288.55,5.39,-1.91,48.843895,2.353354,95.2,NaN,,12.854,,0 / 28,,2541,2022-01-10 19:24:27:839
0.3697,-0.9586,9.766,0.3249,-0.9218,9.7578,-0.0392,-0.0836,-0.164,-0.1048,0.394,0.0204,11.1,7.95,-41.25,288.55,5.39,-1.91,48.843895,2.353354,95.2,NaN,,12.854,,0 / 28,,2546,2022-01-10 19:24:27:844
0.3697,-0.9586,9.766,0.3249,-0.9218,9.7578,-0.0392,-0.0836,-0.164,-0.1048,0.394,0.0204,11.1,7.95,-41.25,288.55,5.39,-1.91,48.843895,2.353354,95.2,NaN,,12.854,,0 / 28,,2551,2022-01-10 19:24:27:849
0.3697,-0.9586,9.766,0.3249,-0.9218,9.7578,0.0211,-0.0134,-0.0051,-0.1048,0.394,0.0204,11.1,7.95,-41.25,288.55,5.39,-1.91,48.843895,2.353354,95.2,NaN,,12.854,,0 / 28,,2557,2022-01-10 19:24:27:855
0.1325,-0.9227,9.7301,0.3249,-0.9218,9.7578,0.0211,-0.0134,-0.0051,-0.1048,0.394,0.0204,11.1,7.95,-41.25,288.55,5.39,-1.91,48.843895,2.353354,95.2,NaN,,12.854,,0 / 28,,2563,2022-01-10 19:24:27:861
0.1325,-0.9227,9.7301,0.3249,-0.9218,9.7578,0.0211,-0.0134,-0.0051,-0.1048,0.394,0.0204,11.1,7.95,-41.25,288.55,5.39,-1.91,48.843895,2.353354,95.2,NaN,,12.854,,0 / 28,,2567,2022-01-10 19:24:27:865
0.1325,-0.9227,9.7301,0.2073,-0.9531,9.758,0.0211,-0.0134,-0.0051,-0.1048,0.394,0.0204,11.48,8.1,-40.73,288.55,5.39,-1.91,48.843895,2.353354,95.2,NaN,,12.854,,0 / 28,,2572,2022-01-10 19:24:27:870
0.1325,-0.9227,9.7301,0.2073,-0.9531,9.758,0.0211,-0.0134,-0.0051,-0.0739,0.6092,0.0374,11.48,8.1,-40.73,288.55,5.39,-1.91,48.843895,2.353354,95.2,NaN,,12.854,,0 / 28,,2577,2022-01-10 19:24:27:875
0.1325,-0.9227,9.7301,0.2073,-0.9531,9.758,-0.0889,0.0673,-0.0075,-0.0739,0.6092,0.0374,11.48,8.1,-40.73,288.55,5.39,-1.91,48.843895,2.353354,95.2,NaN,,12.854,,0 / 28,,2581,2022-01-10 19:24:27:879
0.1325,-0.9227,9.7301,0.2073,-0.9531,9.758,-0.0889,0.0673,-0.0075,-0.0739,0.6092,0.0374,11.48,8.1,-40.73,288.55,5.39,-1.91,48.843895,2.353354,95.2,NaN,,12.854,,0 / 28,,2587,2022-01-10 19:24:27:885
0.0153,-0.9275,9.7923,0.2073,-0.9531,9.758,-0.0889,0.0673,-0.0075,-0.0739,0.6092,0.0374,11.48,8.1,-40.73,288.55,5.39,-1.91,48.843895,2.353354,95.2,NaN,,12.854,,0 / 28,,2592,2022-01-10 19:24:27:890
0.0153,-0.9275,9.7923,0.0209,-0.9734,9.7582,-0.0889,0.0673,-0.0075,-0.0739,0.6092,0.0374,11.48,8.1,-40.73,288.55,5.39,-1.91,48.843895,2.353354,95.2,NaN,,12.854,,0 / 28,,2596,2022-01-10 19:24:27:894
0.0153,-0.9275,9.7923,0.0209,-0.9734,9.7582,-0.0889,0.0673,-0.0075,-0.0739,0.6092,0.0374,11.48,8.1,-40.73,288.55,5.39,-1.91,48.843895,2.353354,95.2,NaN,,12.854,,0 / 28,,2601,2022-01-10 19:24:27:899
0.0153,-0.9275,9.7923,0.0209,-0.9734,9.7582,-0.0889,0.0673,-0.0075,-0.0174,0.8276,0.0598,12.38,8.33,-40.8,287.85,5.7,-0.12,48.843895,2.353354,95.2,NaN,,12.854,,0 / 28,,2607,2022-01-10 19:24:27:905
0.0153,-0.9275,9.7923,0.0209,-0.9734,9.7582,-0.0889,0.0673,-0.0075,-0.0174,0.8276,0.0598,12.38,8.33,-40.8,287.85,5.7,-0.12,48.843895,2.353354,95.2,NaN,,12.854,,0 / 28,,2612,2022-01-10 19:24:27:910
0.0153,-0.9275,9.7923,0.0209,-0.9734,9.7582,0.0655,0.0264,0.0922,-0.0174,0.8276,0.0598,12.38,8.33,-40.8,287.85,5.7,-0.12,48.843895,2.353354,95.2,NaN,,12.854,,0 / 28,,2616,2022-01-10 19:24:27:914
-0.1406,-0.9586,9.8378,0.0209,-0.9734,9.7582,0.0655,0.0264,0.0922,-0.0174,0.8276,0.0598,12.38,8.33,-40.8,287.85,5.7,-0.12,48.843895,2.353354,95.2,NaN,,12.854,,0 / 28,,2623,2022-01-10 19:24:27:921
-0.1406,-0.9586,9.8378,-0.2293,-0.9795,9.7549,0.0655,0.0264,0.0922,-0.0174,0.8276,0.0598,12.38,8.33,-40.8,287.85,5.7,-0.12,48.843895,2.353354,95.2,NaN,,12.854,,0 / 28,,2627,2022-01-10 19:24:27:925
-0.1406,-0.9586,9.8378,-0.2293,-0.9795,9.7549,0.0655,0.0264,0.0922,-0.0174,0.8276,0.0598,12.38,8.33,-40.8,287.85,5.7,-0.12,48.843895,2.353354,95.2,NaN,,12.854,,0 / 28,,2632,2022-01-10 19:24:27:930
-0.1406,-0.9586,9.8378,-0.2293,-0.9795,9.7549,0.0655,0.0264,0.0922,-0.0441,1.0555,0.0587,13.2,8.63,-40.35,287.85,5.7,-0.12,48.843895,2.353354,95.2,NaN,,12.854,,0 / 28,,2637,2022-01-10 19:24:27:935
-0.1406,-0.9586,9.8378,-0.2293,-0.9795,9.7549,-0.017,-0.029,0.0888,-0.0441,1.0555,0.0587,13.2,8.63,-40.35,287.85,5.7,-0.12,48.843895,2.353354,95.2,NaN,,12.854,,0 / 28,,2642,2022-01-10 19:24:27:940
-0.5429,-0.9132,9.8115,-0.2293,-0.9795,9.7549,-0.017,-0.029,0.0888,-0.0441,1.0555,0.0587,13.2,8.63,-40.35,287.85,5.7,-0.12,48.843895,2.353354,95.2,NaN,,12.854,,0 / 28,,2646,2022-01-10 19:24:27:944
-0.5429,-0.9132,9.8115,-0.2293,-0.9795,9.7549,-0.017,-0.029,0.0888,-0.0441,1.0555,0.0587,13.2,8.63,-40.35,287.85,5.7,-0.12,48.843895,2.353354,95.2,NaN,,12.854,,0 / 28,,2651,2022-01-10 19:24:27:949
-0.5429,-0.9132,9.8115,-0.2293,-0.9795,9.7549,-0.017,-0.029,0.0888,-0.0441,1.0555,0.0587,13.2,8.63,-40.35,287.85,5.7,-0.12,48.843895,2.353354,95.2,NaN,,12.854,,0 / 28,,2656,2022-01-10 19:24:27:954
-0.5429,-0.9132,9.8115,-0.5069,-0.9916,9.7432,-0.017,-0.029,0.0888,-0.0441,1.0555,0.0587,13.2,8.63,-40.35,287.85,5.7,-0.12,48.843895,2.353354,95.2,NaN,,12.854,,0 / 28,,2662,2022-01-10 19:24:27:960
-0.5429,-0.9132,9.8115,-0.5069,-0.9916,9.7432,-0.017,-0.029,0.0888,-0.0441,1.0555,0.0587,13.2,8.63,-40.35,287.85,5.7,-0.12,48.843895,2.353354,95.2,NaN,,12.854,,0 / 28,,2667,2022-01-10 19:24:27:965
-0.8566,-0.8844,9.7134,-0.5069,-0.9916,9.7432,-0.0125,0.1301,-0.0336,-0.1442,1.4273,0.1077,14.78,8.93,-39.75,290.55,5.8,2.98,48.843895,2.353354,95.2,NaN,,12.854,,0 / 28,,2673,2022-01-10 19:24:27:971
-0.8566,-0.8844,9.7134,-0.5069,-0.9916,9.7432,-0.0125,0.1301,-0.0336,-0.1442,1.4273,0.1077,14.78,8.93,-39.75,290.55,5.8,2.98,48.843895,2.353354,95.2,NaN,,12.854,,0 / 28,,2676,2022-01-10 19:24:27:974
-0.8566,-0.8844,9.7134,-0.5069,-0.9916,9.7432,-0.0125,0.1301,-0.0336,-0.1442,1.4273,0.1077,14.78,8.93,-39.75,290.55,5.8,2.98,48.843895,2.353354,95.2,NaN,,12.854,,0 / 28,,2682,2022-01-10 19:24:27:980
-0.8566,-0.8844,9.7134,-0.5069,-0.9916,9.7432,-0.0125,0.1301,-0.0336,-0.1442,1.4273,0.1077,14.78,8.93,-39.75,290.55,5.8,2.98,48.843895,2.353354,95.2,NaN,,12.854,,0 / 28,,2687,2022-01-10 19:24:27:985
-0.8566,-0.8844,9.7134,-1.0061,-1.0288,9.7005,-0.0125,0.1301,-0.0336,-0.1442,1.4273,0.1077,14.78,8.93,-39.75,290.55,5.8,2.98,48.843895,2.353354,95.2,NaN,,12.854,,0 / 28,,2692,2022-01-10 19:24:27:990
-0.8566,-0.8844,9.7134,-1.0061,-1.0288,9.7005,-0.0125,0.1301,-0.0336,-0.1442,1.4273,0.1077,14.78,8.93,-39.75,290.55,5.8,2.98,48.843895,2.353354,95.2,NaN,,12.854,,0 / 28,,2696,2022-01-10 19:24:27:994
-1.1803,-0.9203,9.7397,-1.0061,-1.0288,9.7005,-0.0125,0.1301,-0.0336,-0.1868,1.7692,0.112,14.78,8.93,-39.75,290.55,5.8,2.98,48.843895,2.353354,95.2,NaN,,12.854,,0 / 28,,2702,2022-01-10 19:24:28:000
-1.1803,-0.9203,9.7397,-1.0061,-1.0288,9.7005,0.0806,0.1146,0.0519,-0.1868,1.7692,0.112,15.53,9.15,-39.23,290.55,5.8,2.98,48.843895,2.353354,95.2,NaN,,12.854,,0 / 28,,2707,2022-01-10 19:24:28:005
-1.1803,-0.9203,9.7397,-1.0061,-1.0288,9.7005,0.0806,0.1146,0.0519,-0.1868,1.7692,0.112,15.53,9.15,-39.23,290.55,5.8,2.98,48.843895,2.353354,95.2,NaN,,12.854,,0 / 28,,2711,2022-01-10 19:24:28:009
-1.1803,-0.9203,9.7397,-1.0061,-1.0288,9.7005,0.0806,0.1146,0.0519,-0.1868,1.7692,0.112,15.53,9.15,-39.23,290.55,5.8,2.98,48.843895,2.353354,95.2,NaN,,12.854,,0 / 28,,2716,2022-01-10 19:24:28:014
-1.1803,-0.9203,9.7397,-1.521,-1.0727,9.6284,0.0806,0.1146,0.0519,-0.1868,1.7692,0.112,15.53,9.15,-39.23,290.55,5.8,2.98,48.843895,2.353354,95.2,NaN,,12.854,,0 / 28,,2721,2022-01-10 19:24:28:019
-1.8556,-1.057,10.0176,-1.521,-1.0727,9.6284,0.0806,0.1146,0.0519,-0.1868,1.7692,0.112,15.53,9.15,-39.23,290.55,5.8,2.98,48.843895,2.353354,95.2,NaN,,12.854,,0 / 28,,2727,2022-01-10 19:24:28:025
-1.8556,-1.057,10.0176,-1.521,-1.0727,9.6284,0.0806,0.1146,0.0519,-0.0963,2.06,0.129,15.53,9.15,-39.23,290.55,5.8,2.98,48.843895,2.353354,95.2,NaN,,12.854,,0 / 28,,2732,2022-01-10 19:24:28:030
-1.8556,-1.057,10.0176,-1.521,-1.0727,9.6284,-0.0673,-0.0024,0.3997,-0.0963,2.06,0.129,15.53,9.15,-39.23,290.55,5.8,2.98,48.843895,2.353354,95.2,NaN,,12.854,,0 / 28,,2737,2022-01-10 19:24:28:035
-1.8556,-1.057,10.0176,-1.521,-1.0727,9.6284,-0.0673,-0.0024,0.3997,-0.0963,2.06,0.129,18.0,9.0,-37.65,290.93,6.28,8.98,48.843895,2.353354,95.2,NaN,,12.854,,0 / 28,,2743,2022-01-10 19:24:28:041
-1.8556,-1.057,10.0176,-1.521,-1.0727,9.6284,-0.0673,-0.0024,0.3997,-0.0963,2.06,0.129,18.0,9.0,-37.65,290.93,6.28,8.98,48.843895,2.353354,95.2,NaN,,12.854,,0 / 28,,2746,2022-01-10 19:24:28:044
-1.8556,-1.057,10.0176,-2.1188,-1.0954,9.5122,-0.0673,-0.0024,0.3997,-0.0963,2.06,0.129,18.0,9.0,-37.65,290.93,6.28,8.98,48.843895,2.353354,95.2,NaN,,12.854,,0 / 28,,2752,2022-01-10 19:24:28:050
-2.2268,-1.1982,9.6365,-2.1188,-1.0954,9.5122,-0.0673,-0.0024,0.3997,-0.0963,2.06,0.129,18.0,9.0,-37.65,290.93,6.28,8.98,48.843895,2.353354,95.2,NaN,,12.854,,0 / 28,,2757,2022-01-10 19:24:28:055
-2.2268,-1.1982,9.6365,-2.1188,-1.0954,9.5122,-0.0673,-0.0024,0.3997,0.0124,2.2454,0.1333,18.0,9.0,-37.65,290.93,6.28,8.98,48.843895,2.353354,95.2,NaN,,12.854,,0 / 28,,2762,2022-01-10 19:24:28:060
-2.2268,-1.1982,9.6365,-2.1188,-1.0954,9.5122,0.0968,-0.1067,0.0207,0.0124,2.2454,0.1333,18.0,9.0,-37.65,290.93,6.28,8.98,48.843895,2.353354,95.2,NaN,,12.854,,0 / 28,,2766,2022-01-10 19:24:28:064
-2.2268,-1.1982,9.6365,-2.1188,-1.0954,9.5122,0.0968,-0.1067,0.0207,0.0124,2.2454,0.1333,18.0,9.0,-37.65,290.93,6.28,8.98,48.843895,2.353354,95.2,NaN,,12.854,,0 / 28,,2772,2022-01-10 19:24:28:070
-2.2268,-1.1982,9.6365,-2.1188,-1.0954,9.5122,0.0968,-0.1067,0.0207,0.0124,2.2454,0.1333,18.0,9.0,-37.65,290.93,6.28,8.98,48.843895,2.353354,95.2,NaN,,12.854,,0 / 28,,2777,2022-01-10 19:24:28:075
-2.8068,-1.0331,9.2821,-2.7653,-1.087,9.3457,0.0968,-0.1067,0.0207,0.0124,2.2454,0.1333,21.08,8.48,-36.0,290.93,6.28,8.98,48.843895,2.353354,95.2,NaN,,12.854,,0 / 28,,2782,2022-01-10 19:24:28:080
-2.8068,-1.0331,9.2821,-2.7653,-1.087,9.3457,0.0968,-0.1067,0.0207,0.0124,2.2454,0.1333,21.08,8.48,-36.0,290.93,6.28,8.98,48.843895,2.353354,95.2,NaN,,12.854,,0 / 28,,2787,2022-01-10 19:24:28:085
-2.8068,-1.0331,9.2821,-2.7653,-1.087,9.3457,0.0968,-0.1067,0.0207,-0.0814,2.2134,0.1013,21.08,8.48,-36.0,290.93,6.28,8.98,48.843895,2.353354,95.2,NaN,,12.854,,0 / 28,,2792,2022-01-10 19:24:28:090
-2.8068,-1.0331,9.2821,-2.7653,-1.087,9.3457,0.1922,0.1591,-0.1819,-0.0814,2.2134,0.1013,21.08,8.48,-36.0,290.93,6.28,8.98,48.843895,2.353354,95.2,NaN,,12.854,,0 / 28,,2797,2022-01-10 19:24:28:095
-2.8068,-1.0331,9.2821,-2.7653,-1.087,9.3457,0.1922,0.1591,-0.1819,-0.0814,2.2134,0.1013,21.08,8.48,-36.0,290.93,6.28,8.98,48.843895,2.353354,95.2,NaN,,12.854,,0 / 28,,2802,2022-01-10 19:24:28:100
-3.0126,-0.9443,9.0066,-2.7653,-1.087,9.3457,0.1922,0.1591,-0.1819,-0.0814,2.2134,0.1013,21.08,8.48,-36.0,290.93,6.28,8.98,48.843895,2.353354,95.2,NaN,,12.854,,0 / 28,,2807,2022-01-10 19:24:28:105
-3.0126,-0.9443,9.0066,-3.3949,-1.0984,9.1345,0.1922,0.1591,-0.1819,-0.0814,2.2134,0.1013,21.08,8.48,-36.0,290.93,6.28,8.98,48.843895,2.353354,95.2,NaN,,12.854,,0 / 28,,2811,2022-01-10 19:24:28:109
-3.0126,-0.9443,9.0066,-3.3949,-1.0984,9.1345,0.1922,0.1591,-0.1819,-0.0814,2.2134,0.1013,23.55,8.63,-34.8,292.8,6.43,20.39,48.843895,2.353354,95.2,NaN,,12.854,,0 / 28,,2816,2022-01-10 19:24:28:114
-3.0126,-0.9443,9.0066,-3.3949,-1.0984,9.1345,0.1922,0.1591,-0.1819,-0.1186,2.2837,0.0395,23.55,8.63,-34.8,292.8,6.43,20.39,48.843895,2.353354,95.2,NaN,,12.854,,0 / 28,,2822,2022-01-10 19:24:28:120
-3.0126,-0.9443,9.0066,-3.3949,-1.0984,9.1345,0.2573,0.1009,-0.0504,-0.1186,2.2837,0.0395,23.55,8.63,-34.8,292.8,6.43,20.39,48.843895,2.353354,95.2,NaN,,12.854,,0 / 28,,2826,2022-01-10 19:24:28:124
-3.6763,-1.1049,8.7957,-3.3949,-1.0984,9.1345,0.2573,0.1009,-0.0504,-0.1186,2.2837,0.0395,23.55,8.63,-34.8,292.8,6.43,20.39,48.843895,2.353354,95.2,NaN,,12.854,,0 / 28,,2832,2022-01-10 19:24:28:130
-3.6763,-1.1049,8.7957,-3.9188,-1.1204,8.9195,0.2573,0.1009,-0.0504,-0.1186,2.2837,0.0395,23.55,8.63,-34.8,292.8,6.43,20.39,48.843895,2.353354,95.2,NaN,,12.854,,0 / 28,,2837,2022-01-10 19:24:28:135
-3.6763,-1.1049,8.7957,-3.9188,-1.1204,8.9195,0.2573,0.1009,-0.0504,-0.1186,2.2837,0.0395,23.55,8.63,-34.8,292.8,6.43,20.39,48.843895,2.353354,95.2,NaN,,12.854,,0 / 28,,2841,2022-01-10 19:24:28:139
-3.6763,-1.1049,8.7957,-3.9188,-1.1204,8.9195,0.2573,0.1009,-0.0504,-0.1186,2.2837,0.0395,23.55,8.63,-34.8,292.8,6.43,20.39,48.843895,2.353354,95.2,NaN,,12.854,,0 / 28,,2847,2022-01-10 19:24:28:145
-3.6763,-1.1049,8.7957,-3.9188,-1.1204,8.9195,0.2573,0.1009,-0.0504,-0.1186,2.2837,0.0395,23.55,8.63,-34.8,292.8,6.43,20.39,48.843895,2.353354,95.2,NaN,,12.854,,0 / 28,,2852,2022-01-10 19:24:28:150
-4.1985,-0.9371,8.5753,-3.9188,-1.1204,8.9195,0.3611,0.1724,-0.141,-0.0398,2.2315,0.0236,26.55,8.85,-32.48,292.8,6.43,20.39,48.843895,2.353354,95.2,NaN,,12.854,,0 / 28,,2857,2022-01-10 19:24:28:155
-4.1985,-0.9371,8.5753,-3.9188,-1.1204,8.9195,0.3611,0.1724,-0.141,-0.0398,2.2315,0.0236,26.55,8.85,-32.48,292.8,6.43,20.39,48.843895,2.353354,95.2,NaN,,12.854,,0 / 28,,2861,2022-01-10 19:24:28:159
-4.1985,-0.9371,8.5753,-4.5182,-1.1307,8.63,0.3611,0.1724,-0.141,-0.0398,2.2315,0.0236,26.55,8.85,-32.48,292.8,6.43,20.39,48.843895,2.353354,95.2,NaN,,12.854,,0 / 28,,2866,2022-01-10 19:24:28:164
-4.1985,-0.9371,8.5753,-4.5182,-1.1307,8.63,0.3611,0.1724,-0.141,-0.0398,2.2315,0.0236,26.55,8.85,-32.48,292.8,6.43,20.39,48.843895,2.353354,95.2,NaN,,12.854,,0 / 28,,2871,2022-01-10 19:24:28:169
-4.1985,-0.9371,8.5753,-4.5182,-1.1307,8.63,0.3611,0.1724,-0.141,-0.0398,2.2315,0.0236,26.55,8.85,-32.48,292.8,6.43,20.39,48.843895,2.353354,95.2,NaN,,12.854,,0 / 28,,2876,2022-01-10 19:24:28:174
-4.1985,-0.9371,8.5753,-4.5182,-1.1307,8.63,0.1374,0.1523,0.2221,-0.0398,2.2315,0.0236,26.55,8.85,-32.48,292.8,6.43,20.39,48.843895,2.353354,95.2,NaN,,12.854,,0 / 28,,2883,2022-01-10 19:24:28:181
-4.9675,-0.9299,8.8244,-4.5182,-1.1307,8.63,0.1374,0.1523,0.2221,-0.0483,2.0867,0.0353,26.55,8.85,-32.48,292.8,6.43,20.39,48.843895,2.353354,95.2,NaN,,12.854,,0 / 28,,2886,2022-01-10 19:24:28:184
-4.9675,-0.9299,8.8244,-4.5182,-1.1307,8.63,0.1374,0.1523,0.2221,-0.0483,2.0867,0.0353,29.25,9.0,-29.7,290.16,6.62,27.63,48.843895,2.353354,95.2,NaN,,12.854,,0 / 28,,2891,2022-01-10 19:24:28:189
-4.9675,-0.9299,8.8244,-5.0705,-1.1353,8.317,0.1374,0.1523,0.2221,-0.0483,2.0867,0.0353,29.25,9.0,-29.7,290.16,6.62,27.63,48.843895,2.353354,95.2,NaN,,12.854,,0 / 28,,2897,2022-01-10 19:24:28:195
-4.9675,-0.9299,8.8244,-5.0705,-1.1353,8.317,0.1374,0.1523,0.2221,-0.0483,2.0867,0.0353,29.25,9.0,-29.7,290.16,6.62,27.63,48.843895,2.353354,95.2,NaN,,12.854,,0 / 28,,2902,2022-01-10 19:24:28:200
-4.9675,-0.9299,8.8244,-5.0705,-1.1353,8.317,0.1374,0.1523,0.2221,-0.0483,2.0867,0.0353,29.25,9.0,-29.7,290.16,6.62,27.63,48.843895,2.353354,95.2,NaN,,12.854,,0 / 28,,2907,2022-01-10 19:24:28:205
-4.9675,-0.9299,8.8244,-5.0705,-1.1353,8.317,-0.05,0.0421,0.4401,-0.0483,2.0867,0.0353,29.25,9.0,-29.7,290.16,6.62,27.63,48.843895,2.353354,95.2,NaN,,12.854,,0 / 28,,2912,2022-01-10 19:24:28:210
-5.4081,-1.2604,8.403,-5.0705,-1.1353,8.317,-0.05,0.0421,0.4401,-0.0164,2.1484,0.1226,29.25,9.0,-29.7,290.16,6.62,27.63,48.843895,2.353354,95.2,NaN,,12.854,,0 / 28,,2916,2022-01-10 19:24:28:214
-5.4081,-1.2604,8.403,-5.0705,-1.1353,8.317,-0.05,0.0421,0.4401,-0.0164,2.1484,0.1226,29.25,9.0,-29.7,290.16,6.62,27.63,48.843895,2.353354,95.2,NaN,,12.854,,0 / 28,,2921,2022-01-10 19:24:28:219
-5.4081,-1.2604,8.403,-5.5953,-1.1265,7.9746,-0.05,0.0421,0.4401,-0.0164,2.1484,0.1226,30.98,9.3,-27.67,290.16,6.62,27.63,48.843895,2.353354,95.2,NaN,,12.854,,0 / 28,,2927,2022-01-10 19:24:28:225
-5.4081,-1.2604,8.403,-5.5953,-1.1265,7.9746,-0.05,0.0421,0.4401,-0.0164,2.1484,0.1226,30.98,9.3,-27.67,290.16,6.62,27.63,48.843895,2.353354,95.2,NaN,,12.854,,0 / 28,,2933,2022-01-10 19:24:28:231
-5.4081,-1.2604,8.403,-5.5953,-1.1265,7.9746,-0.05,0.0421,0.4401,-0.0164,2.1484,0.1226,30.98,9.3,-27.67,290.16,6.62,27.63,48.843895,2.353354,95.2,NaN,,12.854,,0 / 28,,2936,2022-01-10 19:24:28:234
-6.0814,-1.2966,8.3288,-5.5953,-1.1265,7.9746,-0.0296,-0.1749,0.4513,-0.0164,2.1484,0.1226,30.98,9.3,-27.67,290.16,6.62,27.63,48.843895,2.353354,95.2,NaN,,12.854,,0 / 28,,2942,2022-01-10 19:24:28:240
-6.0814,-1.2966,8.3288,-5.5953,-1.1265,7.9746,-0.0296,-0.1749,0.4513,0.0752,2.3412,0.08,30.98,9.3,-27.67,290.16,6.62,27.63,48.843895,2.353354,95.2,NaN,,12.854,,0 / 28,,2947,2022-01-10 19:24:28:245
-6.0814,-1.2966,8.3288,-5.5953,-1.1265,7.9746,-0.0296,-0.1749,0.4513,0.0752,2.3412,0.08,30.98,9.3,-27.67,290.16,6.62,27.63,48.843895,2.353354,95.2,NaN,,12.854,,0 / 28,,2951,2022-01-10 19:24:28:249
-6.0814,-1.2966,8.3288,-6.0377,-1.1045,7.6483,-0.0296,-0.1749,0.4513,0.0752,2.3412,0.08,32.55,9.53,-25.57,298.58,6.47,38.29,48.843895,2.353354,95.2,NaN,,12.854,,0 / 28,,2957,2022-01-10 19:24:28:255
-6.0814,-1.2966,8.3288,-6.0377,-1.1045,7.6483,-0.0296,-0.1749,0.4513,0.0752,2.3412,0.08,32.55,9.53,-25.57,298.58,6.47,38.29,48.843895,2.353354,95.2,NaN,,12.854,,0 / 28,,2961,2022-01-10 19:24:28:259
-6.0814,-1.2966,8.3288,-6.0377,-1.1045,7.6483,-0.0296,-0.1749,0.4513,0.0752,2.3412,0.08,32.55,9.53,-25.57,298.58,6.47,38.29,48.843895,2.353354,95.2,NaN,,12.854,,0 / 28,,2967,2022-01-10 19:24:28:265
-6.1747,-1.4139,7.5598,-6.0377,-1.1045,7.6483,0.155,-0.2729,0.4248,0.0752,2.3412,0.08,32.55,9.53,-25.57,298.58,6.47,38.29,48.843895,2.353354,95.2,NaN,,12.854,,0 / 28,,2971,2022-01-10 19:24:28:269
-6.1747,-1.4139,7.5598,-6.0377,-1.1045,7.6483,0.155,-0.2729,0.4248,0.1008,2.6086,0.096,32.55,9.53,-25.57,298.58,6.47,38.29,48.843895,2.353354,95.2,NaN,,12.854,,0 / 28,,2977,2022-01-10 19:24:28:275
-6.1747,-1.4139,7.5598,-6.6147,-1.0689,7.1606,0.155,-0.2729,0.4248,0.1008,2.6086,0.096,34.05,9.3,-22.95,298.58,6.47,38.29,48.843895,2.353354,95.2,NaN,,12.854,,0 / 28,,2982,2022-01-10 19:24:28:280
-6.1747,-1.4139,7.5598,-6.6147,-1.0689,7.1606,0.155,-0.2729,0.4248,0.1008,2.6086,0.096,34.05,9.3,-22.95,298.58,6.47,38.29,48.843895,2.353354,95.2,NaN,,12.854,,0 / 28,,2987,2022-01-10 19:24:28:285
-6.1747,-1.4139,7.5598,-6.6147,-1.0689,7.1606,0.155,-0.2729,0.4248,0.1008,2.6086,0.096,34.05,9.3,-22.95,298.58,6.47,38.29,48.843895,2.353354,95.2,NaN,,12.854,,0 / 28,,2992,2022-01-10 19:24:28:290
-6.1747,-1.4139,7.5598,-6.6147,-1.0689,7.1606,0.155,-0.2729,0.4248,0.1008,2.6086,0.096,34.05,9.3,-22.95,298.58,6.47,38.29,48.843895,2.353354,95.2,NaN,,12.854,,0 / 28,,2997,2022-01-10 19:24:28:295
-6.9556,-1.1025,6.7238,-6.6147,-1.0689,7.1606,0.155,-0.2729,0.4248,0.1008,2.6086,0.096,34.05,9.3,-22.95,298.58,6.47,38.29,48.843895,2.353354,95.2,NaN,,12.854,,0 / 28,,3002,2022-01-10 19:24:28:300
-6.9556,-1.1025,6.7238,-6.6147,-1.0689,7.1606,0.091,-0.0848,-0.0487,0.1008,2.6086,0.096,34.05,9.3,-22.95,298.58,6.47,38.29,48.843895,2.353354,95.2,NaN,,12.854,,0 / 28,,3007,2022-01-10 19:24:28:305
-6.9556,-1.1025,6.7238,-6.6147,-1.0689,7.1606,0.091,-0.0848,-0.0487,0.0784,2.6001,0.1642,34.05,9.3,-22.95,298.58,6.47,38.29,48.843895,2.353354,95.2,NaN,,12.854,,0 / 28,,3012,2022-01-10 19:24:28:310
-6.9556,-1.1025,6.7238,-7.1649,-1.0236,6.6171,0.091,-0.0848,-0.0487,0.0784,2.6001,0.1642,34.05,9.3,-22.95,298.58,6.47,38.29,48.843895,2.353354,95.2,NaN,,12.854,,0 / 28,,3017,2022-01-10 19:24:28:315
-6.9556,-1.1025,6.7238,-7.1649,-1.0236,6.6171,0.091,-0.0848,-0.0487,0.0784,2.6001,0.1642,36.23,9.0,-19.72,296.13,5.99,47.28,48.843895,2.353354,95.2,NaN,,12.854,,0 / 28,,3022,2022-01-10 19:24:28:320
