ACCELEROMETER X (m/s²),ACCELEROMETER Y (m/s²),ACCELEROMETER Z (m/s²),GRAVITY X (m/s²),GRAVITY Y (m/s²),GRAVITY Z (m/s²),LINEAR ACCELERATION X (m/s²),LINEAR ACCELERATION Y (m/s²),LINEAR ACCELERATION Z (m/s²),GYROSCOPE X (rad/s),GYROSCOPE Y (rad/s),GYROSCOPE Z (rad/s),MAGNETIC FIELD X (μT),MAGNETIC FIELD Y (μT),MAGNETIC FIELD Z (μT),ORIENTATION Z (azimuth °),ORIENTATION X (pitch °),ORIENTATION Y (roll °),LOCATION Latitude : ,LOCATION Longitude : ,LOCATION Altitude ( m),LOCATION Altitude-google ( m),LOCATION Speed ( Kmh),LOCATION Accuracy ( m),LOCATION ORIENTATION (°),Satellites in range,GPS NMEA,Time since start in ms ,YYYY-MO-DD HH-MI-SS_SSS
-1.742,3.9365,8.3504,-1.3639,4.2939,8.7105,-0.4662,-0.035,-0.2916,-0.1889,-0.067,0.1193,7.58,34.35,-41.77,358.14,-27.01,8.62,48.843872,2.353345,91.5,NaN,,11.721,,0 / 19,,15,2022-01-20 11:26:52:057
-1.742,3.9365,8.3504,-1.3639,4.2939,8.7105,-0.4662,-0.035,-0.2916,-0.1852,-0.0908,0.1815,7.58,34.35,-41.77,358.14,-27.01,8.62,48.843872,2.353345,91.5,NaN,,11.721,,0 / 19,,20,2022-01-20 11:26:52:062
-1.742,3.9365,8.3504,-1.3639,4.2939,8.7105,-0.4662,-0.035,-0.2916,-0.1852,-0.0908,0.1815,7.58,34.35,-41.77,358.14,-27.01,8.62,48.843872,2.353345,91.5,NaN,,11.721,,0 / 19,,26,2022-01-20 11:26:52:068
-1.742,3.9365,8.3504,-1.3639,4.2939,8.7105,-0.4662,-0.035,-0.2916,-0.1852,-0.0908,0.1815,7.58,34.35,-41.77,358.14,-27.01,8.62,48.843872,2.353345,91.5,NaN,,11.721,,0 / 19,,31,2022-01-20 11:26:52:073
-1.6077,3.7591,8.6175,-1.3254,4.2029,8.7607,-0.4175,-0.0978,-0.1741,-0.1852,-0.0908,0.1815,7.58,34.35,-41.77,358.14,-27.01,8.62,48.843872,2.353345,91.5,NaN,,11.721,,0 / 19,,35,2022-01-20 11:26:52:077
-1.6077,3.7591,8.6175,-1.3254,4.2029,8.7607,-0.4175,-0.0978,-0.1741,-0.1852,-0.0908,0.1815,7.58,34.35,-41.77,358.14,-27.01,8.62,48.843872,2.353345,91.5,NaN,,11.721,,0 / 19,,40,2022-01-20 11:26:52:082
-1.6077,3.7591,8.6175,-1.3254,4.2029,8.7607,-0.4175,-0.0978,-0.1741,-0.1852,-0.0908,0.1815,7.58,34.35,-41.77,358.14,-27.01,8.62,48.843872,2.353345,91.5,NaN,,11.721,,0 / 19,,45,2022-01-20 11:26:52:087
-1.6077,3.7591,8.6175,-1.3254,4.2029,8.7607,-0.4175,-0.0978,-0.1741,-0.1852,-0.0908,0.1815,7.5,34.5,-41.77,358.13,-25.38,8.6,48.843872,2.353345,91.5,NaN,,11.721,,0 / 19,,50,2022-01-20 11:26:52:092
-1.6077,3.7591,8.6175,-1.3254,4.2029,8.7607,-0.4175,-0.0978,-0.1741,-0.1852,-0.0908,0.1815,7.5,34.5,-41.77,358.13,-25.38,8.6,48.843872,2.353345,91.5,NaN,,11.721,,0 / 19,,55,2022-01-20 11:26:52:097
-1.6077,3.7591,8.6175,-1.3254,4.2029,8.7607,-0.4175,-0.0978,-0.1741,-0.1852,-0.0908,0.1815,7.5,34.5,-41.77,358.13,-25.38,8.6,48.843872,2.353345,91.5,NaN,,11.721,,0 / 19,,60,2022-01-20 11:26:52:102
-1.6077,3.7591,8.6175,-1.3254,4.2029,8.7607,-0.4175,-0.0978,-0.1741,-0.1852,-0.0908,0.1815,7.5,34.5,-41.77,358.13,-25.38,8.6,48.843872,2.353345,91.5,NaN,,11.721,,0 / 19,,65,2022-01-20 11:26:52:107
-1.6077,3.7591,8.6175,-1.3254,4.2029,8.7607,-0.4175,-0.0978,-0.1741,-0.1852,-0.0908,0.1815,7.5,34.5,-41.77,358.13,-25.38,8.6,48.843872,2.353345,91.5,NaN,,11.721,,0 / 19,,70,2022-01-20 11:26:52:112
-1.6077,3.7591,8.6175,-1.3254,4.2029,8.7607,-0.4175,-0.0978,-0.1741,-0.1852,-0.0908,0.1815,7.5,34.5,-41.77,358.13,-25.38,8.6,48.843872,2.353345,91.5,NaN,,11.721,,0 / 19,,76,2022-01-20 11:26:52:118
-1.6077,3.7591,8.6175,-1.3254,4.2029,8.7607,-0.4175,-0.0978,-0.1741,-0.1852,-0.0908,0.1815,7.5,34.5,-41.77,358.13,-25.38,8.6,48.843872,2.353345,91.5,NaN,,11.721,,0 / 19,,80,2022-01-20 11:26:52:122
-1.6077,3.7591,8.6175,-1.3254,4.2029,8.7607,-0.4175,-0.0978,-0.1741,-0.1852,-0.0908,0.1815,7.5,34.5,-41.77,358.13,-25.38,8.6,48.843872,2.353345,91.5,NaN,,11.721,,0 / 19,,85,2022-01-20 11:26:52:127
-1.6077,3.7591,8.6175,-1.3254,4.2029,8.7607,-0.4175,-0.0978,-0.1741,-0.1852,-0.0908,0.1815,7.5,34.5,-41.77,358.13,-25.38,8.6,48.843872,2.353345,91.5,NaN,,11.721,,0 / 19,,90,2022-01-20 11:26:52:132
-1.0208,3.897,9.064,-1.2216,4.0935,8.8273,-0.4175,-0.0978,-0.1741,-0.1852,-0.0908,0.1815,7.5,34.5,-41.77,358.13,-25.38,8.6,48.843872,2.353345,91.5,NaN,,11.721,,0 / 19,,96,2022-01-20 11:26:52:138
-1.0208,3.897,9.064,-1.2216,4.0935,8.8273,-0.4175,-0.0978,-0.1741,-0.1852,-0.0908,0.1815,7.5,34.5,-41.77,358.13,-25.38,8.6,48.843872,2.353345,91.5,NaN,,11.721,,0 / 19,,101,2022-01-20 11:26:52:143
-1.0208,3.897,9.064,-1.2216,4.0935,8.8273,-0.4175,-0.0978,-0.1741,-0.1852,-0.0908,0.1815,7.5,34.5,-41.77,358.13,-25.38,8.6,48.843872,2.353345,91.5,NaN,,11.721,,0 / 19,,105,2022-01-20 11:26:52:147
-1.0208,3.897,9.064,-1.2216,4.0935,8.8273,-0.4175,-0.0978,-0.1741,-0.1852,-0.0908,0.1815,7.5,34.5,-41.77,358.13,-25.38,8.6,48.843872,2.353345,91.5,NaN,,11.721,,0 / 19,,110,2022-01-20 11:26:52:152
-1.0208,3.897,9.064,-1.2216,4.0935,8.8273,-0.4175,-0.0978,-0.1741,-0.1852,-0.0908,0.1815,7.5,34.5,-41.77,358.13,-25.38,8.6,48.843872,2.353345,91.5,NaN,,11.721,,0 / 19,,115,2022-01-20 11:26:52:157
-1.0208,3.897,9.064,-1.2216,4.0935,8.8273,-0.4175,-0.0978,-0.1741,-0.1852,-0.0908,0.1815,7.5,34.5,-41.77,358.13,-25.38,8.6,48.843872,2.353345,91.5,NaN,,11.721,,0 / 19,,121,2022-01-20 11:26:52:163
-1.0208,3.897,9.064,-1.2216,4.0935,8.8273,-0.4175,-0.0978,-0.1741,-0.1852,-0.0908,0.1815,7.5,34.5,-41.77,358.13,-25.38,8.6,48.843872,2.353345,91.5,NaN,,11.721,,0 / 19,,125,2022-01-20 11:26:52:167
-1.0208,3.897,9.064,-1.2216,4.0935,8.8273,-0.4175,-0.0978,-0.1741,-0.1852,-0.0908,0.1815,7.5,34.5,-41.77,358.13,-25.38,8.6,48.843872,2.353345,91.5,NaN,,11.721,,0 / 19,,130,2022-01-20 11:26:52:172
-1.0208,3.897,9.064,-1.2216,4.0935,8.8273,-0.4175,-0.0978,-0.1741,-0.1852,-0.0908,0.1815,7.5,34.5,-41.77,358.13,-25.38,8.6,48.843872,2.353345,91.5,NaN,,11.721,,0 / 19,,135,2022-01-20 11:26:52:177
-1.0208,3.897,9.064,-1.2216,4.0935,8.8273,-0.4175,-0.0978,-0.1741,-0.0907,-0.0908,0.4065,7.5,34.5,-41.77,358.13,-25.38,8.6,48.843872,2.353345,91.5,NaN,,11.721,,0 / 19,,140,2022-01-20 11:26:52:182
-1.0208,3.897,9.064,-1.2216,4.0935,8.8273,-0.4175,-0.0978,-0.1741,-0.0907,-0.0908,0.4065,7.5,34.5,-41.77,358.13,-25.38,8.6,48.843872,2.353345,91.5,NaN,,11.721,,0 / 19,,146,2022-01-20 11:26:52:188
-1.0208,3.897,9.064,-1.2216,4.0935,8.8273,-0.4175,-0.0978,-0.1741,-0.0907,-0.0908,0.4065,7.58,35.1,-41.93,357.5,-24.67,7.88,48.843872,2.353345,91.5,NaN,,11.721,,0 / 19,,150,2022-01-20 11:26:52:192
-1.0208,3.897,9.064,-1.2216,4.0935,8.8273,-0.4175,-0.0978,-0.1741,-0.0907,-0.0908,0.4065,7.58,35.1,-41.93,357.5,-24.67,7.88,48.843872,2.353345,91.5,NaN,,11.721,,0 / 19,,155,2022-01-20 11:26:52:197
-0.7741,3.449,9.3239,-1.0981,4.0656,8.8564,0.0437,-0.0852,0.3889,-0.0907,-0.0908,0.4065,7.58,35.1,-41.93,357.5,-24.67,7.88,48.843872,2.353345,91.5,NaN,,11.721,,0 / 19,,160,2022-01-20 11:26:52:202
-0.7741,3.449,9.3239,-1.0981,4.0656,8.8564,0.0437,-0.0852,0.3889,-0.0907,-0.0908,0.4065,7.58,35.1,-41.93,357.5,-24.67,7.88,48.843872,2.353345,91.5,NaN,,11.721,,0 / 19,,165,2022-01-20 11:26:52:207
-0.7741,3.449,9.3239,-1.0981,4.0656,8.8564,0.0437,-0.0852,0.3889,-0.0907,-0.0908,0.4065,7.58,35.1,-41.93,357.5,-24.67,7.88,48.843872,2.353345,91.5,NaN,,11.721,,0 / 19,,170,2022-01-20 11:26:52:212
-0.7741,3.449,9.3239,-1.0981,4.0656,8.8564,0.0437,-0.0852,0.3889,-0.0907,-0.0908,0.4065,7.58,35.1,-41.93,357.5,-24.67,7.88,48.843872,2.353345,91.5,NaN,,11.721,,0 / 19,,175,2022-01-20 11:26:52:217
-0.7741,3.449,9.3239,-1.0981,4.0656,8.8564,0.0437,-0.0852,0.3889,-0.0907,-0.0908,0.4065,7.58,35.1,-41.93,357.5,-24.67,7.88,48.843872,2.353345,91.5,NaN,,11.721,,0 / 19,,180,2022-01-20 11:26:52:222
-0.7741,3.449,9.3239,-1.0981,4.0656,8.8564,0.0437,-0.0852,0.3889,-0.0907,-0.0908,0.4065,7.58,35.1,-41.93,357.5,-24.67,7.88,48.843872,2.353345,91.5,NaN,,11.721,,0 / 19,,185,2022-01-20 11:26:52:227
-0.7741,3.449,9.3239,-1.0981,4.0656,8.8564,0.0437,-0.0852,0.3889,-0.0907,-0.0908,0.4065,7.58,35.1,-41.93,357.5,-24.67,7.88,48.843872,2.353345,91.5,NaN,,11.721,,0 / 19,,190,2022-01-20 11:26:52:232
-0.7741,3.449,9.3239,-1.0981,4.0656,8.8564,0.0437,-0.0852,0.3889,-0.0907,-0.0908,0.4065,7.58,35.1,-41.93,357.5,-24.67,7.88,48.843872,2.353345,91.5,NaN,,11.721,,0 / 19,,195,2022-01-20 11:26:52:237
-0.7741,3.449,9.3239,-1.0981,4.0656,8.8564,0.0437,-0.0852,0.3889,-0.0907,-0.0908,0.4065,7.58,35.1,-41.93,357.5,-24.67,7.88,48.843872,2.353345,91.5,NaN,,11.721,,0 / 19,,200,2022-01-20 11:26:52:242
-0.7741,3.449,9.3239,-1.0981,4.0656,8.8564,0.0437,-0.0852,0.3889,-0.0907,-0.0908,0.4065,7.58,35.1,-41.93,357.5,-24.67,7.88,48.843872,2.353345,91.5,NaN,,11.721,,0 / 19,,205,2022-01-20 11:26:52:247
-0.7741,3.449,9.3239,-1.0981,4.0656,8.8564,0.0437,-0.0852,0.3889,-0.1746,-0.1523,0.7202,7.58,35.1,-41.93,357.5,-24.67,7.88,48.843872,2.353345,91.5,NaN,,11.721,,0 / 19,,210,2022-01-20 11:26:52:252
-0.7741,3.449,9.3239,-1.0981,4.0656,8.8564,0.0437,-0.0852,0.3889,-0.1746,-0.1523,0.7202,7.58,35.1,-41.93,357.5,-24.67,7.88,48.843872,2.353345,91.5,NaN,,11.721,,0 / 19,,215,2022-01-20 11:26:52:257
-0.7741,3.449,9.3239,-1.0981,4.0656,8.8564,0.0437,-0.0852,0.3889,-0.1746,-0.1523,0.7202,7.58,35.1,-41.93,357.5,-24.67,7.88,48.843872,2.353345,91.5,NaN,,11.721,,0 / 19,,220,2022-01-20 11:26:52:262
-0.7741,3.449,9.3239,-1.0981,4.0656,8.8564,0.0437,-0.0852,0.3889,-0.1746,-0.1523,0.7202,7.58,35.1,-41.93,357.5,-24.67,7.88,48.843872,2.353345,91.5,NaN,,11.721,,0 / 19,,225,2022-01-20 11:26:52:267
-0.7741,3.449,9.3239,-1.0981,4.0656,8.8564,0.0437,-0.0852,0.3889,-0.1746,-0.1523,0.7202,7.58,35.1,-41.93,357.5,-24.67,7.88,48.843872,2.353345,91.5,NaN,,11.721,,0 / 19,,231,2022-01-20 11:26:52:273
-0.4412,3.9174,8.2615,-1.0981,4.0656,8.8564,0.0437,-0.0852,0.3889,-0.1746,-0.1523,0.7202,7.58,35.1,-41.93,357.5,-24.67,7.88,48.843872,2.353345,91.5,NaN,,11.721,,0 / 19,,235,2022-01-20 11:26:52:277
-0.4412,3.9174,8.2615,-1.0981,4.0656,8.8564,0.0437,-0.0852,0.3889,-0.1746,-0.1523,0.7202,7.58,35.1,-41.93,357.5,-24.67,7.88,48.843872,2.353345,91.5,NaN,,11.721,,0 / 19,,241,2022-01-20 11:26:52:283
-0.4412,3.9174,8.2615,-1.0981,4.0656,8.8564,0.0437,-0.0852,0.3889,-0.1746,-0.1523,0.7202,7.58,35.1,-41.93,357.5,-24.67,7.88,48.843872,2.353345,91.5,NaN,,11.721,,0 / 19,,245,2022-01-20 11:26:52:287
-0.4412,3.9174,8.2615,-1.0981,4.0656,8.8564,0.0437,-0.0852,0.3889,-0.1746,-0.1523,0.7202,7.35,35.25,-41.85,357.94,-24.49,7.07,48.843872,2.353345,91.5,NaN,,11.721,,0 / 19,,250,2022-01-20 11:26:52:292
-0.4412,3.9174,8.2615,-1.0981,4.0656,8.8564,0.0437,-0.0852,0.3889,-0.1746,-0.1523,0.7202,7.35,35.25,-41.85,357.94,-24.49,7.07,48.843872,2.353345,91.5,NaN,,11.721,,0 / 19,,255,2022-01-20 11:26:52:297
-0.4412,3.9174,8.2615,-1.0981,4.0656,8.8564,0.0437,-0.0852,0.3889,-0.1746,-0.1523,0.7202,7.35,35.25,-41.85,357.94,-24.49,7.07,48.843872,2.353345,91.5,NaN,,11.721,,0 / 19,,260,2022-01-20 11:26:52:302
-0.4412,3.9174,8.2615,-1.0981,4.0656,8.8564,0.0437,-0.0852,0.3889,-0.1746,-0.1523,0.7202,7.35,35.25,-41.85,357.94,-24.49,7.07,48.843872,2.353345,91.5,NaN,,11.721,,0 / 19,,265,2022-01-20 11:26:52:307
-0.4412,3.9174,8.2615,-1.0981,4.0656,8.8564,0.0437,-0.0852,0.3889,-0.1746,-0.1523,0.7202,7.35,35.25,-41.85,357.94,-24.49,7.07,48.843872,2.353345,91.5,NaN,,11.721,,0 / 19,,270,2022-01-20 11:26:52:312
-0.4412,3.9174,8.2615,-1.0981,4.0656,8.8564,0.0437,-0.0852,0.3889,-0.1746,-0.1523,0.7202,7.35,35.25,-41.85,357.94,-24.49,7.07,48.843872,2.353345,91.5,NaN,,11.721,,0 / 19,,275,2022-01-20 11:26:52:317
-0.4412,3.9174,8.2615,-0.5277,3.7349,9.0522,-0.3053,0.1184,0.1969,-0.949,-0.3076,1.0116,7.35,35.25,-41.85,357.94,-24.49,7.07,48.843872,2.353345,91.5,NaN,,11.721,,0 / 19,,280,2022-01-20 11:26:52:322
-0.4412,3.9174,8.2615,-0.5277,3.7349,9.0522,-0.3053,0.1184,0.1969,-0.949,-0.3076,1.0116,7.35,35.25,-41.85,357.94,-24.49,7.07,48.843872,2.353345,91.5,NaN,,11.721,,0 / 19,,286,2022-01-20 11:26:52:328
-0.4412,3.9174,8.2615,-0.5277,3.7349,9.0522,-0.3053,0.1184,0.1969,-0.949,-0.3076,1.0116,7.35,35.25,-41.85,357.94,-24.49,7.07,48.843872,2.353345,91.5,NaN,,11.721,,0 / 19,,290,2022-01-20 11:26:52:332
-0.4412,3.9174,8.2615,-0.5277,3.7349,9.0522,-0.3053,0.1184,0.1969,-0.949,-0.3076,1.0116,7.35,35.25,-41.85,357.94,-24.49,7.07,48.843872,2.353345,91.5,NaN,,11.721,,0 / 19,,295,2022-01-20 11:26:52:337
0.032,3.3867,10.5111,-0.5277,3.7349,9.0522,-0.3053,0.1184,0.1969,-0.949,-0.3076,1.0116,7.35,35.25,-41.85,357.94,-24.49,7.07,48.843872,2.353345,91.5,NaN,,11.721,,0 / 19,,300,2022-01-20 11:26:52:342
0.032,3.3867,10.5111,-0.5277,3.7349,9.0522,-0.3053,0.1184,0.1969,-0.949,-0.3076,1.0116,7.35,35.25,-41.85,357.94,-24.49,7.07,48.843872,2.353345,91.5,NaN,,11.721,,0 / 19,,305,2022-01-20 11:26:52:347
0.032,3.3867,10.5111,-0.5277,3.7349,9.0522,-0.3053,0.1184,0.1969,-0.949,-0.3076,1.0116,7.35,35.25,-41.85,357.94,-24.49,7.07,48.843872,2.353345,91.5,NaN,,11.721,,0 / 19,,310,2022-01-20 11:26:52:352
0.032,3.3867,10.5111,-0.5277,3.7349,9.0522,-0.3053,0.1184,0.1969,-0.949,-0.3076,1.0116,7.35,35.25,-41.85,357.94,-24.49,7.07,48.843872,2.353345,91.5,NaN,,11.721,,0 / 19,,315,2022-01-20 11:26:52:357
0.032,3.3867,10.5111,-0.5277,3.7349,9.0522,-0.3053,0.1184,0.1969,-0.949,-0.3076,1.0116,7.35,35.25,-41.85,357.94,-24.49,7.07,48.843872,2.353345,91.5,NaN,,11.721,,0 / 19,,320,2022-01-20 11:26:52:362
0.032,3.3867,10.5111,-0.5277,3.7349,9.0522,-0.3053,0.1184,0.1969,-0.949,-0.3076,1.0116,7.35,35.25,-41.85,357.94,-24.49,7.07,48.843872,2.353345,91.5,NaN,,11.721,,0 / 19,,325,2022-01-20 11:26:52:367
0.032,3.3867,10.5111,-0.5277,3.7349,9.0522,-0.3053,0.1184,0.1969,-0.949,-0.3076,1.0116,7.35,35.25,-41.85,357.94,-24.49,7.07,48.843872,2.353345,91.5,NaN,,11.721,,0 / 19,,331,2022-01-20 11:26:52:373
0.032,3.3867,10.5111,-0.5277,3.7349,9.0522,-0.3053,0.1184,0.1969,-0.949,-0.3076,1.0116,7.35,35.25,-41.85,357.94,-24.49,7.07,48.843872,2.353345,91.5,NaN,,11.721,,0 / 19,,335,2022-01-20 11:26:52:377
0.032,3.3867,10.5111,-0.5277,3.7349,9.0522,-0.3053,0.1184,0.1969,-0.949,-0.3076,1.0116,7.35,35.25,-41.85,357.94,-24.49,7.07,48.843872,2.353345,91.5,NaN,,11.721,,0 / 19,,340,2022-01-20 11:26:52:382
0.032,3.3867,10.5111,-0.1477,3.199,9.269,0.0024,0.7497,0.2294,-0.949,-0.3076,1.0116,7.35,35.25,-41.85,357.94,-24.49,7.07,48.843872,2.353345,91.5,NaN,,11.721,,0 / 19,,345,2022-01-20 11:26:52:387
0.032,3.3867,10.5111,-0.1477,3.199,9.269,0.0024,0.7497,0.2294,-0.949,-0.3076,1.0116,6.9,35.93,-41.7,352.45,-19.04,0.91,48.843872,2.353345,91.5,NaN,,11.721,,0 / 19,,350,2022-01-20 11:26:52:392
0.032,3.3867,10.5111,-0.1477,3.199,9.269,0.0024,0.7497,0.2294,-0.949,-0.3076,1.0116,6.9,35.93,-41.7,352.45,-19.04,0.91,48.843872,2.353345,91.5,NaN,,11.721,,0 / 19,,355,2022-01-20 11:26:52:397
0.032,3.3867,10.5111,-0.1477,3.199,9.269,0.0024,0.7497,0.2294,-0.949,-0.3076,1.0116,6.9,35.93,-41.7,352.45,-19.04,0.91,48.843872,2.353345,91.5,NaN,,11.721,,0 / 19,,360,2022-01-20 11:26:52:402
0.032,3.3867,10.5111,-0.1477,3.199,9.269,0.0024,0.7497,0.2294,-0.949,-0.3076,1.0116,6.9,35.93,-41.7,352.45,-19.04,0.91,48.843872,2.353345,91.5,NaN,,11.721,,0 / 19,,365,2022-01-20 11:26:52:407
0.032,3.3867,10.5111,-0.1477,3.199,9.269,0.0024,0.7497,0.2294,-0.949,-0.3076,1.0116,6.9,35.93,-41.7,352.45,-19.04,0.91,48.843872,2.353345,91.5,NaN,,11.721,,0 / 19,,370,2022-01-20 11:26:52:412
0.2907,2.8753,9.7062,-0.1477,3.199,9.269,0.0024,0.7497,0.2294,-0.949,-0.3076,1.0116,6.9,35.93,-41.7,352.45,-19.04,0.91,48.843872,2.353345,91.5,NaN,,11.721,,0 / 19,,378,2022-01-20 11:26:52:420
0.2907,2.8753,9.7062,-0.1477,3.199,9.269,0.0024,0.7497,0.2294,-0.949,-0.3076,1.0116,6.9,35.93,-41.7,352.45,-19.04,0.91,48.843872,2.353345,91.5,NaN,,11.721,,0 / 19,,381,2022-01-20 11:26:52:423
0.2907,2.8753,9.7062,-0.1477,3.199,9.269,0.0024,0.7497,0.2294,-0.949,-0.3076,1.0116,6.9,35.93,-41.7,352.45,-19.04,0.91,48.843872,2.353345,91.5,NaN,,11.721,,0 / 19,,385,2022-01-20 11:26:52:427
0.2907,2.8753,9.7062,-0.1477,3.199,9.269,0.0024,0.7497,0.2294,-0.949,-0.3076,1.0116,6.9,35.93,-41.7,352.45,-19.04,0.91,48.843872,2.353345,91.5,NaN,,11.721,,0 / 19,,390,2022-01-20 11:26:52:432
0.2907,2.8753,9.7062,-0.1477,3.199,9.269,0.0024,0.7497,0.2294,-0.949,-0.3076,1.0116,6.9,35.93,-41.7,352.45,-19.04,0.91,48.843872,2.353345,91.5,NaN,,11.721,,0 / 19,,395,2022-01-20 11:26:52:437
0.2907,2.8753,9.7062,-0.1477,3.199,9.269,0.0024,0.7497,0.2294,-0.949,-0.3076,1.0116,6.9,35.93,-41.7,352.45,-19.04,0.91,48.843872,2.353345,91.5,NaN,,11.721,,0 / 19,,400,2022-01-20 11:26:52:442
0.2907,2.8753,9.7062,-0.1477,3.199,9.269,0.0024,0.7497,0.2294,-0.949,-0.3076,1.0116,6.9,35.93,-41.7,352.45,-19.04,0.91,48.843872,2.353345,91.5,NaN,,11.721,,0 / 19,,405,2022-01-20 11:26:52:447
0.2907,2.8753,9.7062,-0.1477,3.199,9.269,0.0024,0.7497,0.2294,-0.949,-0.3076,1.0116,6.9,35.93,-41.7,352.45,-19.04,0.91,48.843872,2.353345,91.5,NaN,,11.721,,0 / 19,,411,2022-01-20 11:26:52:453
0.2907,2.8753,9.7062,-0.1477,3.199,9.269,0.0024,0.7497,0.2294,-0.3632,-0.7106,0.8951,6.9,35.93,-41.7,352.45,-19.04,0.91,48.843872,2.353345,91.5,NaN,,11.721,,0 / 19,,415,2022-01-20 11:26:52:457
0.2907,2.8753,9.7062,-0.1477,3.199,9.269,0.0024,0.7497,0.2294,-0.3632,-0.7106,0.8951,6.9,35.93,-41.7,352.45,-19.04,0.91,48.843872,2.353345,91.5,NaN,,11.721,,0 / 19,,420,2022-01-20 11:26:52:462
0.2907,2.8753,9.7062,-0.1477,3.199,9.269,0.0024,0.7497,0.2294,-0.3632,-0.7106,0.8951,6.9,35.93,-41.7,352.45,-19.04,0.91,48.843872,2.353345,91.5,NaN,,11.721,,0 / 19,,425,2022-01-20 11:26:52:467
0.2907,2.8753,9.7062,-0.1477,3.199,9.269,0.0024,0.7497,0.2294,-0.3632,-0.7106,0.8951,6.9,35.93,-41.7,352.45,-19.04,0.91,48.843872,2.353345,91.5,NaN,,11.721,,0 / 19,,430,2022-01-20 11:26:52:472
2.068,2.8035,10.7471,-0.1477,3.199,9.269,0.0024,0.7497,0.2294,-0.3632,-0.7106,0.8951,6.9,35.93,-41.7,352.45,-19.04,0.91,48.843872,2.353345,91.5,NaN,,11.721,,0 / 19,,435,2022-01-20 11:26:52:477
2.068,2.8035,10.7471,-0.1477,3.199,9.269,0.0024,0.7497,0.2294,-0.3632,-0.7106,0.8951,6.9,35.93,-41.7,352.45,-19.04,0.91,48.843872,2.353345,91.5,NaN,,11.721,,0 / 19,,440,2022-01-20 11:26:52:482
2.068,2.8035,10.7471,-0.1477,3.199,9.269,0.0024,0.7497,0.2294,-0.3632,-0.7106,0.8951,6.9,35.93,-41.7,352.45,-19.04,0.91,48.843872,2.353345,91.5,NaN,,11.721,,0 / 19,,445,2022-01-20 11:26:52:487
2.068,2.8035,10.7471,0.8007,2.9428,9.3204,0.5561,-0.0548,0.6234,-0.3632,-0.7106,0.8951,6.45,36.38,-42.07,348.43,-17.46,-4.91,48.843872,2.353345,91.5,NaN,,11.721,,0 / 19,,452,2022-01-20 11:26:52:494
2.068,2.8035,10.7471,0.8007,2.9428,9.3204,0.5561,-0.0548,0.6234,-0.3632,-0.7106,0.8951,6.45,36.38,-42.07,348.43,-17.46,-4.91,48.843872,2.353345,91.5,NaN,,11.721,,0 / 19,,455,2022-01-20 11:26:52:497
2.068,2.8035,10.7471,0.8007,2.9428,9.3204,0.5561,-0.0548,0.6234,-0.3632,-0.7106,0.8951,6.45,36.38,-42.07,348.43,-17.46,-4.91,48.843872,2.353345,91.5,NaN,,11.721,,0 / 19,,460,2022-01-20 11:26:52:502
2.068,2.8035,10.7471,0.8007,2.9428,9.3204,0.5561,-0.0548,0.6234,-0.3632,-0.7106,0.8951,6.45,36.38,-42.07,348.43,-17.46,-4.91,48.843872,2.353345,91.5,NaN,,11.721,,0 / 19,,465,2022-01-20 11:26:52:507
2.068,2.8035,10.7471,0.8007,2.9428,9.3204,0.5561,-0.0548,0.6234,-0.3632,-0.7106,0.8951,6.45,36.38,-42.07,348.43,-17.46,-4.91,48.843872,2.353345,91.5,NaN,,11.721,,0 / 19,,470,2022-01-20 11:26:52:512
2.068,2.8035,10.7471,0.8007,2.9428,9.3204,0.5561,-0.0548,0.6234,-0.3632,-0.7106,0.8951,6.45,36.38,-42.07,348.43,-17.46,-4.91,48.843872,2.353345,91.5,NaN,,11.721,,0 / 19,,475,2022-01-20 11:26:52:517
2.068,2.8035,10.7471,0.8007,2.9428,9.3204,0.5561,-0.0548,0.6234,-0.3632,-0.7106,0.8951,6.45,36.38,-42.07,348.43,-17.46,-4.91,48.843872,2.353345,91.5,NaN,,11.721,,0 / 19,,480,2022-01-20 11:26:52:522
2.068,2.8035,10.7471,0.8007,2.9428,9.3204,0.5561,-0.0548,0.6234,-0.3632,-0.7106,0.8951,6.45,36.38,-42.07,348.43,-17.46,-4.91,48.843872,2.353345,91.5,NaN,,11.721,,0 / 19,,485,2022-01-20 11:26:52:527
2.068,2.8035,10.7471,0.8007,2.9428,9.3204,0.5561,-0.0548,0.6234,-0.3632,-0.7106,0.8951,6.45,36.38,-42.07,348.43,-17.46,-4.91,48.843872,2.353345,91.5,NaN,,11.721,,0 / 19,,490,2022-01-20 11:26:52:532
1.3161,1.0475,9.3371,0.8007,2.9428,9.3204,0.5561,-0.0548,0.6234,-0.3632,-0.7106,0.8951,6.45,36.38,-42.07,348.43,-17.46,-4.91,48.843872,2.353345,91.5,NaN,,11.721,,0 / 19,,495,2022-01-20 11:26:52:537
1.3161,1.0475,9.3371,0.8007,2.9428,9.3204,0.5561,-0.0548,0.6234,-0.3632,-0.7106,0.8951,6.45,36.38,-42.07,348.43,-17.46,-4.91,48.843872,2.353345,91.5,NaN,,11.721,,0 / 19,,500,2022-01-20 11:26:52:542
1.3161,1.0475,9.3371,0.8007,2.9428,9.3204,0.5561,-0.0548,0.6234,-0.3632,-0.7106,0.8951,6.45,36.38,-42.07,348.43,-17.46,-4.91,48.843872,2.353345,91.5,NaN,,11.721,,0 / 19,,505,2022-01-20 11:26:52:547
1.3161,1.0475,9.3371,0.8007,2.9428,9.3204,0.5561,-0.0548,0.6234,-0.3632,-0.7106,0.8951,6.45,36.38,-42.07,348.43,-17.46,-4.91,48.843872,2.353345,91.5,NaN,,11.721,,0 / 19,,510,2022-01-20 11:26:52:552
0.5483,3.8237,7.3813,0.3051,4.1291,8.8898,1.8023,-1.1959,2.3156,1.2217,1.0136,0.339,6.23,35.93,-42.6,351.61,-24.9,-1.97,48.843872,2.353345,91.5,NaN,,11.721,,0 / 19,,561,2022-01-20 11:26:52:603
0.5483,3.8237,7.3813,0.3051,4.1291,8.8898,1.8023,-1.1959,2.3156,1.2217,1.0136,0.339,6.23,35.93,-42.6,351.61,-24.9,-1.97,48.843872,2.353345,91.5,NaN,,11.721,,0 / 19,,561,2022-01-20 11:26:52:603
0.5483,3.8237,7.3813,0.3051,4.1291,8.8898,1.8023,-1.1959,2.3156,1.2217,1.0136,0.339,6.23,35.93,-42.6,351.61,-24.9,-1.97,48.843872,2.353345,91.5,NaN,,11.721,,0 / 19,,561,2022-01-20 11:26:52:603
0.5483,3.8237,7.3813,0.3051,4.1291,8.8898,1.8023,-1.1959,2.3156,1.2217,1.0136,0.339,6.23,35.93,-42.6,351.61,-24.9,-1.97,48.843872,2.353345,91.5,NaN,,11.721,,0 / 19,,561,2022-01-20 11:26:52:603
0.5483,3.8237,7.3813,0.3051,4.1291,8.8898,1.8023,-1.1959,2.3156,1.2217,1.0136,0.339,6.23,35.93,-42.6,351.61,-24.9,-1.97,48.843872,2.353345,91.5,NaN,,11.721,,0 / 19,,561,2022-01-20 11:26:52:603
0.5483,3.8237,7.3813,0.3051,4.1291,8.8898,1.8023,-1.1959,2.3156,1.2217,1.0136,0.339,6.23,35.93,-42.6,351.61,-24.9,-1.97,48.843872,2.353345,91.5,NaN,,11.721,,0 / 19,,561,2022-01-20 11:26:52:603
0.5483,3.8237,7.3813,0.3051,4.1291,8.8898,1.8023,-1.1959,2.3156,1.2217,1.0136,0.339,6.23,35.93,-42.6,351.61,-24.9,-1.97,48.843872,2.353345,91.5,NaN,,11.721,,0 / 19,,561,2022-01-20 11:26:52:603
0.5483,3.8237,7.3813,0.3051,4.1291,8.8898,1.8023,-1.1959,2.3156,1.2217,1.0136,0.339,6.23,35.93,-42.6,351.61,-24.9,-1.97,48.843872,2.353345,91.5,NaN,,11.721,,0 / 19,,561,2022-01-20 11:26:52:603
0.5483,3.8237,7.3813,0.3051,4.1291,8.8898,1.8023,-1.1959,2.3156,1.2217,1.0136,0.339,6.23,35.93,-42.6,351.61,-24.9,-1.97,48.843872,2.353345,91.5,NaN,,11.721,,0 / 19,,561,2022-01-20 11:26:52:603
0.5483,3.8237,7.3813,0.3051,4.1291,8.8898,1.8023,-1.1959,2.3156,1.2217,1.0136,0.339,6.23,35.93,-42.6,351.61,-24.9,-1.97,48.843872,2.353345,91.5,NaN,,11.721,,0 / 19,,562,2022-01-20 11:26:52:604
0.5483,3.8237,7.3813,0.3051,4.1291,8.8898,1.8023,-1.1959,2.3156,1.2217,1.0136,0.339,6.23,35.93,-42.6,351.61,-24.9,-1.97,48.843872,2.353345,91.5,NaN,,11.721,,0 / 19,,565,2022-01-20 11:26:52:607
0.5483,3.8237,7.3813,0.3051,4.1291,8.8898,1.8023,-1.1959,2.3156,1.2217,1.0136,0.339,6.23,35.93,-42.6,351.61,-24.9,-1.97,48.843872,2.353345,91.5,NaN,,11.721,,0 / 19,,571,2022-01-20 11:26:52:613
0.5483,3.8237,7.3813,0.3051,4.1291,8.8898,1.8023,-1.1959,2.3156,1.2217,1.0136,0.339,6.23,35.93,-42.6,351.61,-24.9,-1.97,48.843872,2.353345,91.5,NaN,,11.721,,0 / 19,,575,2022-01-20 11:26:52:617
0.5483,3.8237,7.3813,0.3051,4.1291,8.8898,1.8023,-1.1959,2.3156,1.2217,1.0136,0.339,6.23,35.93,-42.6,351.61,-24.9,-1.97,48.843872,2.353345,91.5,NaN,,11.721,,0 / 19,,580,2022-01-20 11:26:52:622
0.5483,3.8237,7.3813,0.0874,4.4189,8.7542,1.8023,-1.1959,2.3156,1.2217,1.0136,0.339,6.23,35.93,-42.6,351.61,-24.9,-1.97,48.843872,2.353345,91.5,NaN,,11.721,,0 / 19,,585,2022-01-20 11:26:52:627
0.5483,3.8237,7.3813,0.0874,4.4189,8.7542,0.0648,-2.0293,-0.3992,1.2217,1.0136,0.339,6.23,35.93,-42.6,351.61,-24.9,-1.97,48.843872,2.353345,91.5,NaN,,11.721,,0 / 19,,590,2022-01-20 11:26:52:632
0.5483,3.8237,7.3813,0.0874,4.4189,8.7542,0.0648,-2.0293,-0.3992,1.2217,1.0136,0.339,6.23,35.93,-42.6,351.61,-24.9,-1.97,48.843872,2.353345,91.5,NaN,,11.721,,0 / 19,,595,2022-01-20 11:26:52:637
0.5483,3.8237,7.3813,0.0874,4.4189,8.7542,0.0648,-2.0293,-0.3992,1.2217,1.0136,0.339,6.23,35.93,-42.6,351.61,-24.9,-1.97,48.843872,2.353345,91.5,NaN,,11.721,,0 / 19,,600,2022-01-20 11:26:52:642
1.0274,4.4109,7.707,0.0874,4.4189,8.7542,0.0648,-2.0293,-0.3992,1.2217,1.0136,0.339,6.23,35.93,-42.6,351.61,-24.9,-1.97,48.843872,2.353345,91.5,NaN,,11.721,,0 / 19,,606,2022-01-20 11:26:52:648
1.0274,4.4109,7.707,0.0874,4.4189,8.7542,0.0648,-2.0293,-0.3992,1.2217,1.0136,0.339,6.23,35.93,-42.6,351.61,-24.9,-1.97,48.843872,2.353345,91.5,NaN,,11.721,,0 / 19,,610,2022-01-20 11:26:52:652
1.0274,4.4109,7.707,0.0874,4.4189,8.7542,0.0648,-2.0293,-0.3992,1.2217,1.0136,0.339,6.23,35.93,-42.6,351.61,-24.9,-1.97,48.843872,2.353345,91.5,NaN,,11.721,,0 / 19,,615,2022-01-20 11:26:52:657
1.0274,4.4109,7.707,0.0874,4.4189,8.7542,0.0648,-2.0293,-0.3992,1.2217,1.0136,0.339,6.23,35.93,-42.6,351.61,-24.9,-1.97,48.843872,2.353345,91.5,NaN,,11.721,,0 / 19,,620,2022-01-20 11:26:52:662
1.0274,4.4109,7.707,0.0874,4.4189,8.7542,0.0648,-2.0293,-0.3992,1.2217,1.0136,0.339,6.23,35.93,-42.6,351.61,-24.9,-1.97,48.843872,2.353345,91.5,NaN,,11.721,,0 / 19,,625,2022-01-20 11:26:52:667
1.0274,4.4109,7.707,0.0874,4.4189,8.7542,0.0648,-2.0293,-0.3992,1.2217,1.0136,0.339,6.23,35.93,-42.6,351.61,-24.9,-1.97,48.843872,2.353345,91.5,NaN,,11.721,,0 / 19,,630,2022-01-20 11:26:52:672
1.0274,4.4109,7.707,0.0874,4.4189,8.7542,0.0648,-2.0293,-0.3992,1.2217,1.0136,0.339,6.23,35.93,-42.6,351.61,-24.9,-1.97,48.843872,2.353345,91.5,NaN,,11.721,,0 / 19,,635,2022-01-20 11:26:52:677
1.0274,4.4109,7.707,0.0874,4.4189,8.7542,0.0648,-2.0293,-0.3992,1.2217,1.0136,0.339,6.23,35.93,-42.6,351.61,-24.9,-1.97,48.843872,2.353345,91.5,NaN,,11.721,,0 / 19,,640,2022-01-20 11:26:52:682
1.0274,4.4109,7.707,0.0874,4.4189,8.7542,0.0648,-2.0293,-0.3992,1.2217,1.0136,0.339,6.23,35.93,-42.6,351.61,-24.9,-1.97,48.843872,2.353345,91.5,NaN,,11.721,,0 / 19,,645,2022-01-20 11:26:52:687
1.0274,4.4109,7.707,0.0874,4.4189,8.7542,0.0648,-2.0293,-0.3992,1.2217,1.0136,0.339,6.23,35.48,-42.45,352.71,-26.78,-0.57,48.843872,2.353345,91.5,NaN,,11.721,,0 / 19,,651,2022-01-20 11:26:52:693
1.0274,4.4109,7.707,0.0874,4.4189,8.7542,0.0648,-2.0293,-0.3992,1.2217,1.0136,0.339,6.23,35.48,-42.45,352.71,-26.78,-0.57,48.843872,2.353345,91.5,NaN,,11.721,,0 / 19,,655,2022-01-20 11:26:52:697
1.0274,4.4109,7.707,0.0874,4.4189,8.7542,0.0648,-2.0293,-0.3992,1.2217,1.0136,0.339,6.23,35.48,-42.45,352.71,-26.78,-0.57,48.843872,2.353345,91.5,NaN,,11.721,,0 / 19,,660,2022-01-20 11:26:52:702
1.0274,4.4109,7.707,0.0874,4.4189,8.7542,0.0648,-2.0293,-0.3992,1.2217,1.0136,0.339,6.23,35.48,-42.45,352.71,-26.78,-0.57,48.843872,2.353345,91.5,NaN,,11.721,,0 / 19,,665,2022-01-20 11:26:52:707
1.0274,4.4109,7.707,0.0874,4.4189,8.7542,0.0648,-2.0293,-0.3992,1.2217,1.0136,0.339,6.23,35.48,-42.45,352.71,-26.78,-0.57,48.843872,2.353345,91.5,NaN,,11.721,,0 / 19,,670,2022-01-20 11:26:52:712
1.0274,4.4109,7.707,0.0874,4.4189,8.7542,0.0648,-2.0293,-0.3992,1.2217,1.0136,0.339,6.23,35.48,-42.45,352.71,-26.78,-0.57,48.843872,2.353345,91.5,NaN,,11.721,,0 / 19,,675,2022-01-20 11:26:52:717
0.2584,4.5975,7.3837,0.0874,4.4189,8.7542,0.0648,-2.0293,-0.3992,0.4667,-0.0297,-0.0606,6.23,35.48,-42.45,352.71,-26.78,-0.57,48.843872,2.353345,91.5,NaN,,11.721,,0 / 19,,680,2022-01-20 11:26:52:722
0.2584,4.5975,7.3837,0.0874,4.4189,8.7542,0.0648,-2.0293,-0.3992,0.4667,-0.0297,-0.0606,6.23,35.48,-42.45,352.71,-26.78,-0.57,48.843872,2.353345,91.5,NaN,,11.721,,0 / 19,,685,2022-01-20 11:26:52:727
0.2584,4.5975,7.3837,0.0874,4.4189,8.7542,0.0648,-2.0293,-0.3992,0.4667,-0.0297,-0.0606,6.23,35.48,-42.45,352.71,-26.78,-0.57,48.843872,2.353345,91.5,NaN,,11.721,,0 / 19,,690,2022-01-20 11:26:52:732
0.2584,4.5975,7.3837,-0.191,4.6629,8.625,0.8318,-0.1136,-1.062,0.4667,-0.0297,-0.0606,6.23,35.48,-42.45,352.71,-26.78,-0.57,48.843872,2.353345,91.5,NaN,,11.721,,0 / 19,,695,2022-01-20 11:26:52:737
0.2584,4.5975,7.3837,-0.191,4.6629,8.625,0.8318,-0.1136,-1.062,0.4667,-0.0297,-0.0606,6.23,35.48,-42.45,352.71,-26.78,-0.57,48.843872,2.353345,91.5,NaN,,11.721,,0 / 19,,700,2022-01-20 11:26:52:742
0.2584,4.5975,7.3837,-0.191,4.6629,8.625,0.8318,-0.1136,-1.062,0.4667,-0.0297,-0.0606,6.23,35.48,-42.45,352.71,-26.78,-0.57,48.843872,2.353345,91.5,NaN,,11.721,,0 / 19,,705,2022-01-20 11:26:52:747
0.2584,4.5975,7.3837,-0.191,4.6629,8.625,0.8318,-0.1136,-1.062,0.4667,-0.0297,-0.0606,6.23,35.48,-42.45,352.71,-26.78,-0.57,48.843872,2.353345,91.5,NaN,,11.721,,0 / 19,,710,2022-01-20 11:26:52:752
0.2584,4.5975,7.3837,-0.191,4.6629,8.625,0.8318,-0.1136,-1.062,0.4667,-0.0297,-0.0606,6.23,35.48,-42.45,352.71,-26.78,-0.57,48.843872,2.353345,91.5,NaN,,11.721,,0 / 19,,716,2022-01-20 11:26:52:758
0.2584,4.5975,7.3837,-0.191,4.6629,8.625,0.8318,-0.1136,-1.062,0.4667,-0.0297,-0.0606,6.23,35.48,-42.45,352.71,-26.78,-0.57,48.843872,2.353345,91.5,NaN,,11.721,,0 / 19,,720,2022-01-20 11:26:52:762
0.2584,4.5975,7.3837,-0.191,4.6629,8.625,0.8318,-0.1136,-1.062,0.4667,-0.0297,-0.0606,6.23,35.48,-42.45,352.71,-26.78,-0.57,48.843872,2.353345,91.5,NaN,,11.721,,0 / 19,,725,2022-01-20 11:26:52:767
0.2584,4.5975,7.3837,-0.191,4.6629,8.625,0.8318,-0.1136,-1.062,0.4667,-0.0297,-0.0606,6.23,35.48,-42.45,352.71,-26.78,-0.57,48.843872,2.353345,91.5,NaN,,11.721,,0 / 19,,730,2022-01-20 11:26:52:772
0.7277,4.5102,8.1873,-0.191,4.6629,8.625,0.8318,-0.1136,-1.062,0.4667,-0.0297,-0.0606,6.23,35.48,-42.45,352.71,-26.78,-0.57,48.843872,2.353345,91.5,NaN,,11.721,,0 / 19,,735,2022-01-20 11:26:52:777
0.7277,4.5102,8.1873,-0.191,4.6629,8.625,0.8318,-0.1136,-1.062,0.4667,-0.0297,-0.0606,6.23,35.48,-42.45,352.71,-26.78,-0.57,48.843872,2.353345,91.5,NaN,,11.721,,0 / 19,,740,2022-01-20 11:26:52:782
0.7277,4.5102,8.1873,-0.191,4.6629,8.625,0.8318,-0.1136,-1.062,0.4667,-0.0297,-0.0606,6.23,35.48,-42.45,352.71,-26.78,-0.57,48.843872,2.353345,91.5,NaN,,11.721,,0 / 19,,745,2022-01-20 11:26:52:787
0.7277,4.5102,8.1873,-0.191,4.6629,8.625,0.8318,-0.1136,-1.062,0.4667,-0.0297,-0.0606,6.23,34.5,-42.52,354.38,-28.39,1.27,48.843872,2.353345,91.5,NaN,,11.721,,0 / 19,,750,2022-01-20 11:26:52:792
0.7277,4.5102,8.1873,-0.191,4.6629,8.625,0.8318,-0.1136,-1.062,0.4667,-0.0297,-0.0606,6.23,34.5,-42.52,354.38,-28.39,1.27,48.843872,2.353345,91.5,NaN,,11.721,,0 / 19,,755,2022-01-20 11:26:52:797
0.7277,4.5102,8.1873,0.0855,4.65,8.6337,0.2514,-0.0325,-0.8692,0.4667,-0.0297,-0.0606,6.23,34.5,-42.52,354.38,-28.39,1.27,48.843872,2.353345,91.5,NaN,,11.721,,0 / 19,,760,2022-01-20 11:26:52:802
0.7277,4.5102,8.1873,0.0855,4.65,8.6337,0.2514,-0.0325,-0.8692,0.4667,-0.0297,-0.0606,6.23,34.5,-42.52,354.38,-28.39,1.27,48.843872,2.353345,91.5,NaN,,11.721,,0 / 19,,765,2022-01-20 11:26:52:807
0.7277,4.5102,8.1873,0.0855,4.65,8.6337,0.2514,-0.0325,-0.8692,0.4667,-0.0297,-0.0606,6.23,34.5,-42.52,354.38,-28.39,1.27,48.843872,2.353345,91.5,NaN,,11.721,,0 / 19,,770,2022-01-20 11:26:52:812
0.7277,4.5102,8.1873,0.0855,4.65,8.6337,0.2514,-0.0325,-0.8692,0.4667,-0.0297,-0.0606,6.23,34.5,-42.52,354.38,-28.39,1.27,48.843872,2.353345,91.5,NaN,,11.721,,0 / 19,,775,2022-01-20 11:26:52:817
0.7277,4.5102,8.1873,0.0855,4.65,8.6337,0.2514,-0.0325,-0.8692,0.4667,-0.0297,-0.0606,6.23,34.5,-42.52,354.38,-28.39,1.27,48.843872,2.353345,91.5,NaN,,11.721,,0 / 19,,780,2022-01-20 11:26:52:822
0.7277,4.5102,8.1873,0.0855,4.65,8.6337,0.2514,-0.0325,-0.8692,0.4667,-0.0297,-0.0606,6.23,34.5,-42.52,354.38,-28.39,1.27,48.843872,2.353345,91.5,NaN,,11.721,,0 / 19,,785,2022-01-20 11:26:52:827
0.7277,4.5102,8.1873,0.0855,4.65,8.6337,0.2514,-0.0325,-0.8692,0.4667,-0.0297,-0.0606,6.23,34.5,-42.52,354.38,-28.39,1.27,48.843872,2.353345,91.5,NaN,,11.721,,0 / 19,,791,2022-01-20 11:26:52:833
0.7277,4.5102,8.1873,0.0855,4.65,8.6337,0.2514,-0.0325,-0.8692,0.4667,-0.0297,-0.0606,6.23,34.5,-42.52,354.38,-28.39,1.27,48.843872,2.353345,91.5,NaN,,11.721,,0 / 19,,795,2022-01-20 11:26:52:837
0.7277,4.5102,8.1873,0.0855,4.65,8.6337,0.2514,-0.0325,-0.8692,0.4667,-0.0297,-0.0606,6.23,34.5,-42.52,354.38,-28.39,1.27,48.843872,2.353345,91.5,NaN,,11.721,,0 / 19,,801,2022-01-20 11:26:52:843
0.7277,4.5102,8.1873,0.0855,4.65,8.6337,0.2514,-0.0325,-0.8692,0.4667,-0.0297,-0.0606,6.23,34.5,-42.52,354.38,-28.39,1.27,48.843872,2.353345,91.5,NaN,,11.721,,0 / 19,,805,2022-01-20 11:26:52:847
0.7277,4.5102,8.1873,0.0855,4.65,8.6337,0.2514,-0.0325,-0.8692,0.4667,-0.0297,-0.0606,6.23,34.5,-42.52,354.38,-28.39,1.27,48.843872,2.353345,91.5,NaN,,11.721,,0 / 19,,810,2022-01-20 11:26:52:852
0.492,4.3436,9.2031,0.0855,4.65,8.6337,0.2514,-0.0325,-0.8692,-0.4699,-0.1045,-0.185,6.23,34.5,-42.52,354.38,-28.39,1.27,48.843872,2.353345,91.5,NaN,,11.721,,0 / 19,,815,2022-01-20 11:26:52:857
0.492,4.3436,9.2031,0.0855,4.65,8.6337,0.2514,-0.0325,-0.8692,-0.4699,-0.1045,-0.185,6.23,34.5,-42.52,354.38,-28.39,1.27,48.843872,2.353345,91.5,NaN,,11.721,,0 / 19,,820,2022-01-20 11:26:52:862
0.492,4.3436,9.2031,0.0855,4.65,8.6337,0.2514,-0.0325,-0.8692,-0.4699,-0.1045,-0.185,6.23,34.5,-42.52,354.38,-28.39,1.27,48.843872,2.353345,91.5,NaN,,11.721,,0 / 19,,825,2022-01-20 11:26:52:867
0.492,4.3436,9.2031,0.1066,4.3808,8.7731,0.6433,0.2313,-0.0506,-0.4699,-0.1045,-0.185,6.23,34.5,-42.52,354.38,-28.39,1.27,48.843872,2.353345,91.5,NaN,,11.721,,0 / 19,,830,2022-01-20 11:26:52:872
0.492,4.3436,9.2031,0.1066,4.3808,8.7731,0.6433,0.2313,-0.0506,-0.4699,-0.1045,-0.185,6.23,34.5,-42.52,354.38,-28.39,1.27,48.843872,2.353345,91.5,NaN,,11.721,,0 / 19,,835,2022-01-20 11:26:52:877
0.492,4.3436,9.2031,0.1066,4.3808,8.7731,0.6433,0.2313,-0.0506,-0.4699,-0.1045,-0.185,6.23,34.5,-42.52,354.38,-28.39,1.27,48.843872,2.353345,91.5,NaN,,11.721,,0 / 19,,840,2022-01-20 11:26:52:882
0.492,4.3436,9.2031,0.1066,4.3808,8.7731,0.6433,0.2313,-0.0506,-0.4699,-0.1045,-0.185,6.23,34.5,-42.52,354.38,-28.39,1.27,48.843872,2.353345,91.5,NaN,,11.721,,0 / 19,,845,2022-01-20 11:26:52:887
0.492,4.3436,9.2031,0.1066,4.3808,8.7731,0.6433,0.2313,-0.0506,-0.4699,-0.1045,-0.185,6.23,34.05,-42.68,352.51,-26.53,-0.7,48.843872,2.353345,91.5,NaN,,11.721,,0 / 19,,850,2022-01-20 11:26:52:892
0.492,4.3436,9.2031,0.1066,4.3808,8.7731,0.6433,0.2313,-0.0506,-0.4699,-0.1045,-0.185,6.23,34.05,-42.68,352.51,-26.53,-0.7,48.843872,2.353345,91.5,NaN,,11.721,,0 / 19,,855,2022-01-20 11:26:52:897
0.492,4.3436,9.2031,0.1066,4.3808,8.7731,0.6433,0.2313,-0.0506,-0.4699,-0.1045,-0.185,6.23,34.05,-42.68,352.51,-26.53,-0.7,48.843872,2.353345,91.5,NaN,,11.721,,0 / 19,,860,2022-01-20 11:26:52:902
0.492,4.3436,9.2031,0.1066,4.3808,8.7731,0.6433,0.2313,-0.0506,-0.4699,-0.1045,-0.185,6.23,34.05,-42.68,352.51,-26.53,-0.7,48.843872,2.353345,91.5,NaN,,11.721,,0 / 19,,865,2022-01-20 11:26:52:907
0.492,4.3436,9.2031,0.1066,4.3808,8.7731,0.6433,0.2313,-0.0506,-0.4699,-0.1045,-0.185,6.23,34.05,-42.68,352.51,-26.53,-0.7,48.843872,2.353345,91.5,NaN,,11.721,,0 / 19,,870,2022-01-20 11:26:52:912
0.492,4.3436,9.2031,0.1066,4.3808,8.7731,0.6433,0.2313,-0.0506,-0.4699,-0.1045,-0.185,6.23,34.05,-42.68,352.51,-26.53,-0.7,48.843872,2.353345,91.5,NaN,,11.721,,0 / 19,,875,2022-01-20 11:26:52:917
0.3194,4.4444,8.9276,0.1066,4.3808,8.7731,0.6433,0.2313,-0.0506,-0.0908,-0.3461,-0.1097,6.23,34.05,-42.68,352.51,-26.53,-0.7,48.843872,2.353345,91.5,NaN,,11.721,,0 / 19,,880,2022-01-20 11:26:52:922
0.3194,4.4444,8.9276,0.1066,4.3808,8.7731,0.6433,0.2313,-0.0506,-0.0908,-0.3461,-0.1097,6.23,34.05,-42.68,352.51,-26.53,-0.7,48.843872,2.353345,91.5,NaN,,11.721,,0 / 19,,886,2022-01-20 11:26:52:928
0.3194,4.4444,8.9276,0.1066,4.3808,8.7731,0.6433,0.2313,-0.0506,-0.0908,-0.3461,-0.1097,6.23,34.05,-42.68,352.51,-26.53,-0.7,48.843872,2.353345,91.5,NaN,,11.721,,0 / 19,,890,2022-01-20 11:26:52:932
0.3194,4.4444,8.9276,0.1066,4.3808,8.7731,0.6433,0.2313,-0.0506,-0.0908,-0.3461,-0.1097,6.23,34.05,-42.68,352.51,-26.53,-0.7,48.843872,2.353345,91.5,NaN,,11.721,,0 / 19,,896,2022-01-20 11:26:52:938
0.3194,4.4444,8.9276,0.1066,4.3808,8.7731,0.6433,0.2313,-0.0506,-0.0908,-0.3461,-0.1097,6.23,34.05,-42.68,352.51,-26.53,-0.7,48.843872,2.353345,91.5,NaN,,11.721,,0 / 19,,900,2022-01-20 11:26:52:942
0.3194,4.4444,8.9276,0.1066,4.3808,8.7731,0.6433,0.2313,-0.0506,-0.0908,-0.3461,-0.1097,6.23,34.05,-42.68,352.51,-26.53,-0.7,48.843872,2.353345,91.5,NaN,,11.721,,0 / 19,,905,2022-01-20 11:26:52:947
0.3194,4.4444,8.9276,0.1066,4.3808,8.7731,0.6433,0.2313,-0.0506,-0.0908,-0.3461,-0.1097,6.23,34.05,-42.68,352.51,-26.53,-0.7,48.843872,2.353345,91.5,NaN,,11.721,,0 / 19,,910,2022-01-20 11:26:52:952
0.3194,4.4444,8.9276,0.1066,4.3808,8.7731,0.6433,0.2313,-0.0506,-0.0908,-0.3461,-0.1097,6.23,34.05,-42.68,352.51,-26.53,-0.7,48.843872,2.353345,91.5,NaN,,11.721,,0 / 19,,916,2022-01-20 11:26:52:958
0.3194,4.4444,8.9276,0.1066,4.3808,8.7731,0.6433,0.2313,-0.0506,-0.0908,-0.3461,-0.1097,6.23,34.05,-42.68,352.51,-26.53,-0.7,48.843872,2.353345,91.5,NaN,,11.721,,0 / 19,,920,2022-01-20 11:26:52:962
0.3194,4.4444,8.9276,0.1066,4.3808,8.7731,0.6433,0.2313,-0.0506,-0.0908,-0.3461,-0.1097,6.23,34.05,-42.68,352.51,-26.53,-0.7,48.843872,2.353345,91.5,NaN,,11.721,,0 / 19,,925,2022-01-20 11:26:52:967
0.3194,4.4444,8.9276,0.1066,4.3808,8.7731,0.6433,0.2313,-0.0506,-0.0908,-0.3461,-0.1097,6.23,34.05,-42.68,352.51,-26.53,-0.7,48.843872,2.353345,91.5,NaN,,11.721,,0 / 19,,930,2022-01-20 11:26:52:972
0.3194,4.4444,8.9276,0.1066,4.3808,8.7731,0.6433,0.2313,-0.0506,-0.0908,-0.3461,-0.1097,6.23,34.05,-42.68,352.51,-26.53,-0.7,48.843872,2.353345,91.5,NaN,,11.721,,0 / 19,,935,2022-01-20 11:26:52:977
0.3194,4.4444,8.9276,0.1066,4.3808,8.7731,0.6433,0.2313,-0.0506,-0.0908,-0.3461,-0.1097,6.23,34.05,-42.68,352.51,-26.53,-0.7,48.843872,2.353345,91.5,NaN,,11.721,,0 / 19,,940,2022-01-20 11:26:52:982
-0.2112,4.127,8.8846,0.2917,4.2535,8.8314,-0.1987,0.2011,0.2353,-0.0908,-0.3461,-0.1097,6.23,34.05,-42.68,352.51,-26.53,-0.7,48.843872,2.353345,91.5,NaN,,11.721,,0 / 19,,945,2022-01-20 11:26:52:987
-0.2112,4.127,8.8846,0.2917,4.2535,8.8314,-0.1987,0.2011,0.2353,-0.0908,-0.3461,-0.1097,6.75,32.48,-42.6,349.93,-25.7,-1.89,48.843872,2.353345,91.5,NaN,,11.721,,0 / 19,,950,2022-01-20 11:26:52:992
-0.2112,4.127,8.8846,0.2917,4.2535,8.8314,-0.1987,0.2011,0.2353,-0.0908,-0.3461,-0.1097,6.75,32.48,-42.6,349.93,-25.7,-1.89,48.843872,2.353345,91.5,NaN,,11.721,,0 / 19,,955,2022-01-20 11:26:52:997
-0.2112,4.127,8.8846,0.2917,4.2535,8.8314,-0.1987,0.2011,0.2353,-0.0908,-0.3461,-0.1097,6.75,32.48,-42.6,349.93,-25.7,-1.89,48.843872,2.353345,91.5,NaN,,11.721,,0 / 19,,961,2022-01-20 11:26:53:003
-0.2112,4.127,8.8846,0.2917,4.2535,8.8314,-0.1987,0.2011,0.2353,-0.0908,-0.3461,-0.1097,6.75,32.48,-42.6,349.93,-25.7,-1.89,48.843872,2.353345,91.5,NaN,,11.721,,0 / 19,,965,2022-01-20 11:26:53:007
-0.2112,4.127,8.8846,0.2917,4.2535,8.8314,-0.1987,0.2011,0.2353,-0.0908,-0.3461,-0.1097,6.75,32.48,-42.6,349.93,-25.7,-1.89,48.843872,2.353345,91.5,NaN,,11.721,,0 / 19,,971,2022-01-20 11:26:53:013
-0.2112,4.127,8.8846,0.2917,4.2535,8.8314,-0.1987,0.2011,0.2353,-0.0908,-0.3461,-0.1097,6.75,32.48,-42.6,349.93,-25.7,-1.89,48.843872,2.353345,91.5,NaN,,11.721,,0 / 19,,975,2022-01-20 11:26:53:017
-0.2112,4.127,8.8846,0.2917,4.2535,8.8314,-0.1987,0.2011,0.2353,-0.0908,-0.3461,-0.1097,6.75,32.48,-42.6,349.93,-25.7,-1.89,48.843872,2.353345,91.5,NaN,,11.721,,0 / 19,,981,2022-01-20 11:26:53:023
-0.2112,4.127,8.8846,0.2917,4.2535,8.8314,-0.1987,0.2011,0.2353,-0.0908,-0.3461,-0.1097,6.75,32.48,-42.6,349.93,-25.7,-1.89,48.843872,2.353345,91.5,NaN,,11.721,,0 / 19,,985,2022-01-20 11:26:53:027
-0.2112,4.127,8.8846,0.2917,4.2535,8.8314,-0.1987,0.2011,0.2353,-0.0908,-0.3461,-0.1097,6.75,32.48,-42.6,349.93,-25.7,-1.89,48.843872,2.353345,91.5,NaN,,11.721,,0 / 19,,990,2022-01-20 11:26:53:032
-0.2112,4.127,8.8846,0.2917,4.2535,8.8314,-0.1987,0.2011,0.2353,-0.0908,-0.3461,-0.1097,6.75,32.48,-42.6,349.93,-25.7,-1.89,48.843872,2.353345,91.5,NaN,,11.721,,0 / 19,,995,2022-01-20 11:26:53:037
-0.2112,4.127,8.8846,0.2917,4.2535,8.8314,-0.1987,0.2011,0.2353,-0.0908,-0.3461,-0.1097,6.75,32.48,-42.6,349.93,-25.7,-1.89,48.843872,2.353345,91.5,NaN,,11.721,,0 / 19,,1000,2022-01-20 11:26:53:042
-0.2112,4.127,8.8846,0.2917,4.2535,8.8314,-0.1987,0.2011,0.2353,-0.0908,-0.3461,-0.1097,6.75,32.48,-42.6,349.93,-25.7,-1.89,48.843872,2.353345,91.5,NaN,,11.721,,0 / 19,,1005,2022-01-20 11:26:53:047
-0.2112,4.127,8.8846,0.2917,4.2535,8.8314,-0.1987,0.2011,0.2353,-0.0908,-0.3461,-0.1097,6.75,32.48,-42.6,349.93,-25.7,-1.89,48.843872,2.353345,91.5,NaN,,11.721,,0 / 19,,1010,2022-01-20 11:26:53:052
0.3876,3.9305,8.2986,0.4866,4.2403,8.8291,-0.6042,0.0043,0.224,-0.0644,-0.4457,0.0481,6.75,32.48,-42.6,349.93,-25.7,-1.89,48.843872,2.353345,91.5,NaN,,11.721,,0 / 19,,1015,2022-01-20 11:26:53:057
0.3876,3.9305,8.2986,0.4866,4.2403,8.8291,-0.6042,0.0043,0.224,-0.0644,-0.4457,0.0481,6.75,32.48,-42.6,349.93,-25.7,-1.89,48.843872,2.353345,91.5,NaN,,11.721,,0 / 19,,1020,2022-01-20 11:26:53:062
0.3876,3.9305,8.2986,0.4866,4.2403,8.8291,-0.6042,0.0043,0.224,-0.0644,-0.4457,0.0481,6.75,32.48,-42.6,349.93,-25.7,-1.89,48.843872,2.353345,91.5,NaN,,11.721,,0 / 19,,1025,2022-01-20 11:26:53:067
0.3876,3.9305,8.2986,0.4866,4.2403,8.8291,-0.6042,0.0043,0.224,-0.0644,-0.4457,0.0481,6.75,32.48,-42.6,349.93,-25.7,-1.89,48.843872,2.353345,91.5,NaN,,11.721,,0 / 19,,1030,2022-01-20 11:26:53:072
0.3876,3.9305,8.2986,0.4866,4.2403,8.8291,-0.6042,0.0043,0.224,-0.0644,-0.4457,0.0481,6.75,32.48,-42.6,349.93,-25.7,-1.89,48.843872,2.353345,91.5,NaN,,11.721,,0 / 19,,1035,2022-01-20 11:26:53:077
0.3876,3.9305,8.2986,0.4866,4.2403,8.8291,-0.6042,0.0043,0.224,-0.0644,-0.4457,0.0481,6.75,32.48,-42.6,349.93,-25.7,-1.89,48.843872,2.353345,91.5,NaN,,11.721,,0 / 19,,1040,2022-01-20 11:26:53:082
0.3876,3.9305,8.2986,0.4866,4.2403,8.8291,-0.6042,0.0043,0.224,-0.0644,-0.4457,0.0481,6.75,32.48,-42.6,349.93,-25.7,-1.89,48.843872,2.353345,91.5,NaN,,11.721,,0 / 19,,1045,2022-01-20 11:26:53:087
0.3876,3.9305,8.2986,0.4866,4.2403,8.8291,-0.6042,0.0043,0.224,-0.0644,-0.4457,0.0481,6.68,32.4,-42.45,348.77,-25.62,-3.15,48.843872,2.353345,91.5,NaN,,11.721,,0 / 19,,1050,2022-01-20 11:26:53:092
0.3876,3.9305,8.2986,0.4866,4.2403,8.8291,-0.6042,0.0043,0.224,-0.0644,-0.4457,0.0481,6.68,32.4,-42.45,348.77,-25.62,-3.15,48.843872,2.353345,91.5,NaN,,11.721,,0 / 19,,1055,2022-01-20 11:26:53:097
0.3876,3.9305,8.2986,0.4866,4.2403,8.8291,-0.6042,0.0043,0.224,-0.0644,-0.4457,0.0481,6.68,32.4,-42.45,348.77,-25.62,-3.15,48.843872,2.353345,91.5,NaN,,11.721,,0 / 19,,1060,2022-01-20 11:26:53:102
0.3876,3.9305,8.2986,0.4866,4.2403,8.8291,-0.6042,0.0043,0.224,-0.0644,-0.4457,0.0481,6.68,32.4,-42.45,348.77,-25.62,-3.15,48.843872,2.353345,91.5,NaN,,11.721,,0 / 19,,1065,2022-01-20 11:26:53:107
0.3876,3.9305,8.2986,0.4866,4.2403,8.8291,-0.6042,0.0043,0.224,-0.0644,-0.4457,0.0481,6.68,32.4,-42.45,348.77,-25.62,-3.15,48.843872,2.353345,91.5,NaN,,11.721,,0 / 19,,1070,2022-01-20 11:26:53:112
0.5459,4.043,9.1744,0.7429,4.0946,8.8799,-0.4262,0.0586,-0.2934,-0.0644,-0.4457,0.0481,6.68,32.4,-42.45,348.77,-25.62,-3.15,48.843872,2.353345,91.5,NaN,,11.721,,0 / 19,,1075,2022-01-20 11:26:53:117
0.5459,4.043,9.1744,0.7429,4.0946,8.8799,-0.4262,0.0586,-0.2934,-0.0644,-0.4457,0.0481,6.68,32.4,-42.45,348.77,-25.62,-3.15,48.843872,2.353345,91.5,NaN,,11.721,,0 / 19,,1080,2022-01-20 11:26:53:122
0.5459,4.043,9.1744,0.7429,4.0946,8.8799,-0.4262,0.0586,-0.2934,-0.0644,-0.4457,0.0481,6.68,32.4,-42.45,348.77,-25.62,-3.15,48.843872,2.353345,91.5,NaN,,11.721,,0 / 19,,1085,2022-01-20 11:26:53:127
0.5459,4.043,9.1744,0.7429,4.0946,8.8799,-0.4262,0.0586,-0.2934,-0.0644,-0.4457,0.0481,6.68,32.4,-42.45,348.77,-25.62,-3.15,48.843872,2.353345,91.5,NaN,,11.721,,0 / 19,,1090,2022-01-20 11:26:53:132
0.5459,4.043,9.1744,0.7429,4.0946,8.8799,-0.4262,0.0586,-0.2934,-0.0644,-0.4457,0.0481,6.68,32.4,-42.45,348.77,-25.62,-3.15,48.843872,2.353345,91.5,NaN,,11.721,,0 / 19,,1095,2022-01-20 11:26:53:137
0.5459,4.043,9.1744,0.7429,4.0946,8.8799,-0.4262,0.0586,-0.2934,-0.0644,-0.4457,0.0481,6.68,32.4,-42.45,348.77,-25.62,-3.15,48.843872,2.353345,91.5,NaN,,11.721,,0 / 19,,1100,2022-01-20 11:26:53:142
0.5459,4.043,9.1744,0.7429,4.0946,8.8799,-0.4262,0.0586,-0.2934,-0.0644,-0.4457,0.0481,6.68,32.4,-42.45,348.77,-25.62,-3.15,48.843872,2.353345,91.5,NaN,,11.721,,0 / 19,,1105,2022-01-20 11:26:53:147
0.5459,4.043,9.1744,0.7429,4.0946,8.8799,-0.4262,0.0586,-0.2934,-0.0644,-0.4457,0.0481,6.68,32.4,-42.45,348.77,-25.62,-3.15,48.843872,2.353345,91.5,NaN,,11.721,,0 / 19,,1110,2022-01-20 11:26:53:152
0.5459,4.043,9.1744,0.7429,4.0946,8.8799,-0.4262,0.0586,-0.2934,-0.0644,-0.4457,0.0481,6.68,32.4,-42.45,348.77,-25.62,-3.15,48.843872,2.353345,91.5,NaN,,11.721,,0 / 19,,1115,2022-01-20 11:26:53:157
0.5459,4.043,9.1744,0.7429,4.0946,8.8799,-0.4262,0.0586,-0.2934,-0.0644,-0.4457,0.0481,6.68,32.4,-42.45,348.77,-25.62,-3.15,48.843872,2.353345,91.5,NaN,,11.721,,0 / 19,,1120,2022-01-20 11:26:53:162
0.5459,4.043,9.1744,0.7429,4.0946,8.8799,-0.4262,0.0586,-0.2934,-0.0644,-0.4457,0.0481,6.68,32.4,-42.45,348.77,-25.62,-3.15,48.843872,2.353345,91.5,NaN,,11.721,,0 / 19,,1125,2022-01-20 11:26:53:167
0.5459,4.043,9.1744,0.7429,4.0946,8.8799,-0.4262,0.0586,-0.2934,-0.0644,-0.4457,0.0481,6.68,32.4,-42.45,348.77,-25.62,-3.15,48.843872,2.353345,91.5,NaN,,11.721,,0 / 19,,1130,2022-01-20 11:26:53:172
0.5459,4.043,9.1744,0.7429,4.0946,8.8799,-0.4262,0.0586,-0.2934,-0.0644,-0.4457,0.0481,6.68,32.4,-42.45,348.77,-25.62,-3.15,48.843872,2.353345,91.5,NaN,,11.721,,0 / 19,,1135,2022-01-20 11:26:53:177
0.5459,4.043,9.1744,0.7429,4.0946,8.8799,-0.4262,0.0586,-0.2934,-0.0644,-0.4457,0.0481,6.68,32.4,-42.45,348.77,-25.62,-3.15,48.843872,2.353345,91.5,NaN,,11.721,,0 / 19,,1140,2022-01-20 11:26:53:182
0.5459,4.043,9.1744,0.7429,4.0946,8.8799,-0.4262,0.0586,-0.2934,0.0305,-0.1043,0.2348,6.68,32.4,-42.45,348.77,-25.62,-3.15,48.843872,2.353345,91.5,NaN,,11.721,,0 / 19,,1145,2022-01-20 11:26:53:187
0.9182,3.8201,9.1528,0.7429,4.0946,8.8799,-0.4262,0.0586,-0.2934,0.0305,-0.1043,0.2348,5.33,33.15,-42.52,349.82,-24.68,-4.78,48.843872,2.353345,91.5,NaN,,11.721,,0 / 19,,1150,2022-01-20 11:26:53:192
0.9182,3.8201,9.1528,0.7429,4.0946,8.8799,-0.4262,0.0586,-0.2934,0.0305,-0.1043,0.2348,5.33,33.15,-42.52,349.82,-24.68,-4.78,48.843872,2.353345,91.5,NaN,,11.721,,0 / 19,,1156,2022-01-20 11:26:53:198
0.9182,3.8201,9.1528,0.7429,4.0946,8.8799,-0.4262,0.0586,-0.2934,0.0305,-0.1043,0.2348,5.33,33.15,-42.52,349.82,-24.68,-4.78,48.843872,2.353345,91.5,NaN,,11.721,,0 / 19,,1160,2022-01-20 11:26:53:202
0.9182,3.8201,9.1528,0.7429,4.0946,8.8799,-0.4262,0.0586,-0.2934,0.0305,-0.1043,0.2348,5.33,33.15,-42.52,349.82,-24.68,-4.78,48.843872,2.353345,91.5,NaN,,11.721,,0 / 19,,1166,2022-01-20 11:26:53:208
0.9182,3.8201,9.1528,0.7429,4.0946,8.8799,-0.4262,0.0586,-0.2934,0.0305,-0.1043,0.2348,5.33,33.15,-42.52,349.82,-24.68,-4.78,48.843872,2.353345,91.5,NaN,,11.721,,0 / 19,,1170,2022-01-20 11:26:53:212
0.9182,3.8201,9.1528,0.7429,4.0946,8.8799,-0.4262,0.0586,-0.2934,0.0305,-0.1043,0.2348,5.33,33.15,-42.52,349.82,-24.68,-4.78,48.843872,2.353345,91.5,NaN,,11.721,,0 / 19,,1175,2022-01-20 11:26:53:217
0.9182,3.8201,9.1528,0.7429,4.0946,8.8799,-0.4262,0.0586,-0.2934,0.0305,-0.1043,0.2348,5.33,33.15,-42.52,349.82,-24.68,-4.78,48.843872,2.353345,91.5,NaN,,11.721,,0 / 19,,1180,2022-01-20 11:26:53:222
0.9182,3.8201,9.1528,0.7429,4.0946,8.8799,-0.4262,0.0586,-0.2934,0.0305,-0.1043,0.2348,5.33,33.15,-42.52,349.82,-24.68,-4.78,48.843872,2.353345,91.5,NaN,,11.721,,0 / 19,,1185,2022-01-20 11:26:53:227
0.9182,3.8201,9.1528,0.9971,4.0627,8.8696,-0.7041,-0.3829,0.9772,0.0305,-0.1043,0.2348,5.33,33.15,-42.52,349.82,-24.68,-4.78,48.843872,2.353345,91.5,NaN,,11.721,,0 / 19,,1190,2022-01-20 11:26:53:232
0.9182,3.8201,9.1528,0.9971,4.0627,8.8696,-0.7041,-0.3829,0.9772,0.0305,-0.1043,0.2348,5.33,33.15,-42.52,349.82,-24.68,-4.78,48.843872,2.353345,91.5,NaN,,11.721,,0 / 19,,1195,2022-01-20 11:26:53:237
0.9182,3.8201,9.1528,0.9971,4.0627,8.8696,-0.7041,-0.3829,0.9772,0.0305,-0.1043,0.2348,5.33,33.15,-42.52,349.82,-24.68,-4.78,48.843872,2.353345,91.5,NaN,,11.721,,0 / 19,,1200,2022-01-20 11:26:53:242
2.4299,4.4803,8.4066,0.9971,4.0627,8.8696,-0.7041,-0.3829,0.9772,0.0305,-0.1043,0.2348,5.33,33.15,-42.52,349.82,-24.68,-4.78,48.843872,2.353345,91.5,NaN,,11.721,,0 / 19,,1205,2022-01-20 11:26:53:247
2.4299,4.4803,8.4066,0.9971,4.0627,8.8696,-0.7041,-0.3829,0.9772,0.0305,-0.1043,0.2348,5.33,33.15,-42.52,349.82,-24.68,-4.78,48.843872,2.353345,91.5,NaN,,11.721,,0 / 19,,1210,2022-01-20 11:26:53:252
2.4299,4.4803,8.4066,0.9971,4.0627,8.8696,-0.7041,-0.3829,0.9772,0.0305,-0.1043,0.2348,5.33,33.15,-42.52,349.82,-24.68,-4.78,48.843872,2.353345,91.5,NaN,,11.721,,0 / 19,,1215,2022-01-20 11:26:53:257
2.4299,4.4803,8.4066,0.9971,4.0627,8.8696,-0.7041,-0.3829,0.9772,0.0305,-0.1043,0.2348,5.33,33.15,-42.52,349.82,-24.68,-4.78,48.843872,2.353345,91.5,NaN,,11.721,,0 / 19,,1220,2022-01-20 11:26:53:262
2.4299,4.4803,8.4066,0.9971,4.0627,8.8696,-0.7041,-0.3829,0.9772,0.0305,-0.1043,0.2348,5.33,33.15,-42.52,349.82,-24.68,-4.78,48.843872,2.353345,91.5,NaN,,11.721,,0 / 19,,1225,2022-01-20 11:26:53:267
2.4299,4.4803,8.4066,0.9971,4.0627,8.8696,-0.7041,-0.3829,0.9772,0.0305,-0.1043,0.2348,5.33,33.15,-42.52,349.82,-24.68,-4.78,48.843872,2.353345,91.5,NaN,,11.721,,0 / 19,,1230,2022-01-20 11:26:53:272
2.4299,4.4803,8.4066,0.9971,4.0627,8.8696,-0.7041,-0.3829,0.9772,0.0305,-0.1043,0.2348,5.33,33.15,-42.52,349.82,-24.68,-4.78,48.843872,2.353345,91.5,NaN,,11.721,,0 / 19,,1235,2022-01-20 11:26:53:277
2.4299,4.4803,8.4066,0.9971,4.0627,8.8696,-0.7041,-0.3829,0.9772,0.0305,-0.1043,0.2348,5.33,33.15,-42.52,349.82,-24.68,-4.78,48.843872,2.353345,91.5,NaN,,11.721,,0 / 19,,1240,2022-01-20 11:26:53:282
2.4299,4.4803,8.4066,0.9971,4.0627,8.8696,-0.7041,-0.3829,0.9772,0.0305,-0.1043,0.2348,5.33,33.15,-42.52,349.82,-24.68,-4.78,48.843872,2.353345,91.5,NaN,,11.721,,0 / 19,,1245,2022-01-20 11:26:53:287
2.4299,4.4803,8.4066,0.9971,4.0627,8.8696,-0.7041,-0.3829,0.9772,0.0305,-0.1043,0.2348,4.88,33.23,-42.37,348.41,-24.47,-6.41,48.843872,2.353345,91.5,NaN,,11.721,,0 / 19,,1250,2022-01-20 11:26:53:292
2.4299,4.4803,8.4066,0.9971,4.0627,8.8696,-0.7041,-0.3829,0.9772,0.0305,-0.1043,0.2348,4.88,33.23,-42.37,348.41,-24.47,-6.41,48.843872,2.353345,91.5,NaN,,11.721,,0 / 19,,1255,2022-01-20 11:26:53:297
2.4299,4.4803,8.4066,0.9971,4.0627,8.8696,-0.7041,-0.3829,0.9772,0.0305,-0.1043,0.2348,4.88,33.23,-42.37,348.41,-24.47,-6.41,48.843872,2.353345,91.5,NaN,,11.721,,0 / 19,,1260,2022-01-20 11:26:53:302
2.4299,4.4803,8.4066,0.9971,4.0627,8.8696,-0.7041,-0.3829,0.9772,0.0305,-0.1043,0.2348,4.88,33.23,-42.37,348.41,-24.47,-6.41,48.843872,2.353345,91.5,NaN,,11.721,,0 / 19,,1265,2022-01-20 11:26:53:307
2.4299,4.4803,8.4066,0.9971,4.0627,8.8696,-0.7041,-0.3829,0.9772,-0.2429,0.7852,0.3345,4.88,33.23,-42.37,348.41,-24.47,-6.41,48.843872,2.353345,91.5,NaN,,11.721,,0 / 19,,1270,2022-01-20 11:26:53:312
2.4299,4.4803,8.4066,0.9971,4.0627,8.8696,-0.7041,-0.3829,0.9772,-0.2429,0.7852,0.3345,4.88,33.23,-42.37,348.41,-24.47,-6.41,48.843872,2.353345,91.5,NaN,,11.721,,0 / 19,,1276,2022-01-20 11:26:53:318
2.4299,4.4803,8.4066,0.9971,4.0627,8.8696,-0.7041,-0.3829,0.9772,-0.2429,0.7852,0.3345,4.88,33.23,-42.37,348.41,-24.47,-6.41,48.843872,2.353345,91.5,NaN,,11.721,,0 / 19,,1280,2022-01-20 11:26:53:322
2.4299,4.4803,8.4066,0.9971,4.0627,8.8696,-0.7041,-0.3829,0.9772,-0.2429,0.7852,0.3345,4.88,33.23,-42.37,348.41,-24.47,-6.41,48.843872,2.353345,91.5,NaN,,11.721,,0 / 19,,1285,2022-01-20 11:26:53:327
2.4299,4.4803,8.4066,0.9971,4.0627,8.8696,-0.7041,-0.3829,0.9772,-0.2429,0.7852,0.3345,4.88,33.23,-42.37,348.41,-24.47,-6.41,48.843872,2.353345,91.5,NaN,,11.721,,0 / 19,,1290,2022-01-20 11:26:53:332
2.4299,4.4803,8.4066,0.9971,4.0627,8.8696,-0.7041,-0.3829,0.9772,-0.2429,0.7852,0.3345,4.88,33.23,-42.37,348.41,-24.47,-6.41,48.843872,2.353345,91.5,NaN,,11.721,,0 / 19,,1296,2022-01-20 11:26:53:338
2.7855,5.4179,9.8773,0.9971,4.0627,8.8696,-0.7041,-0.3829,0.9772,-0.2429,0.7852,0.3345,4.88,33.23,-42.37,348.41,-24.47,-6.41,48.843872,2.353345,91.5,NaN,,11.721,,0 / 19,,1300,2022-01-20 11:26:53:342
2.7855,5.4179,9.8773,0.9971,4.0627,8.8696,-0.7041,-0.3829,0.9772,-0.2429,0.7852,0.3345,4.88,33.23,-42.37,348.41,-24.47,-6.41,48.843872,2.353345,91.5,NaN,,11.721,,0 / 19,,1306,2022-01-20 11:26:53:348
2.7855,5.4179,9.8773,0.9971,4.0627,8.8696,-0.7041,-0.3829,0.9772,-0.2429,0.7852,0.3345,4.88,33.23,-42.37,348.41,-24.47,-6.41,48.843872,2.353345,91.5,NaN,,11.721,,0 / 19,,1310,2022-01-20 11:26:53:352
2.7855,5.4179,9.8773,0.9971,4.0627,8.8696,-0.7041,-0.3829,0.9772,-0.2429,0.7852,0.3345,4.88,33.23,-42.37,348.41,-24.47,-6.41,48.843872,2.353345,91.5,NaN,,11.721,,0 / 19,,1316,2022-01-20 11:26:53:358
2.7855,5.4179,9.8773,0.6948,4.0446,8.9067,2.3152,0.5684,0.4351,-0.2429,0.7852,0.3345,4.88,33.23,-42.37,348.41,-24.47,-6.41,48.843872,2.353345,91.5,NaN,,11.721,,0 / 19,,1320,2022-01-20 11:26:53:362
2.7855,5.4179,9.8773,0.6948,4.0446,8.9067,2.3152,0.5684,0.4351,-0.2429,0.7852,0.3345,4.88,33.23,-42.37,348.41,-24.47,-6.41,48.843872,2.353345,91.5,NaN,,11.721,,0 / 19,,1325,2022-01-20 11:26:53:367
2.7855,5.4179,9.8773,0.6948,4.0446,8.9067,2.3152,0.5684,0.4351,-0.2429,0.7852,0.3345,4.88,33.23,-42.37,348.41,-24.47,-6.41,48.843872,2.353345,91.5,NaN,,11.721,,0 / 19,,1331,2022-01-20 11:26:53:373
2.7855,5.4179,9.8773,0.6948,4.0446,8.9067,2.3152,0.5684,0.4351,-0.2429,0.7852,0.3345,4.88,33.23,-42.37,348.41,-24.47,-6.41,48.843872,2.353345,91.5,NaN,,11.721,,0 / 19,,1335,2022-01-20 11:26:53:377
2.7855,5.4179,9.8773,0.6948,4.0446,8.9067,2.3152,0.5684,0.4351,0.2242,0.0594,-0.3486,4.88,33.23,-42.37,348.41,-24.47,-6.41,48.843872,2.353345,91.5,NaN,,11.721,,0 / 19,,1341,2022-01-20 11:26:53:383
2.7855,5.4179,9.8773,0.6948,4.0446,8.9067,2.3152,0.5684,0.4351,0.2242,0.0594,-0.3486,4.88,33.23,-42.37,348.41,-24.47,-6.41,48.843872,2.353345,91.5,NaN,,11.721,,0 / 19,,1346,2022-01-20 11:26:53:388
2.7855,5.4179,9.8773,0.6948,4.0446,8.9067,2.3152,0.5684,0.4351,0.2242,0.0594,-0.3486,4.73,33.75,-42.07,350.26,-24.36,-4.46,48.843872,2.353345,91.5,NaN,,11.721,,0 / 19,,1350,2022-01-20 11:26:53:392
2.7855,5.4179,9.8773,0.6948,4.0446,8.9067,2.3152,0.5684,0.4351,0.2242,0.0594,-0.3486,4.73,33.75,-42.07,350.26,-24.36,-4.46,48.843872,2.353345,91.5,NaN,,11.721,,0 / 19,,1355,2022-01-20 11:26:53:397
2.7855,5.4179,9.8773,0.6948,4.0446,8.9067,2.3152,0.5684,0.4351,0.2242,0.0594,-0.3486,4.73,33.75,-42.07,350.26,-24.36,-4.46,48.843872,2.353345,91.5,NaN,,11.721,,0 / 19,,1361,2022-01-20 11:26:53:403
2.7855,5.4179,9.8773,0.6948,4.0446,8.9067,2.3152,0.5684,0.4351,0.2242,0.0594,-0.3486,4.73,33.75,-42.07,350.26,-24.36,-4.46,48.843872,2.353345,91.5,NaN,,11.721,,0 / 19,,1365,2022-01-20 11:26:53:407
0.7878,3.4765,9.1083,0.6948,4.0446,8.9067,2.3152,0.5684,0.4351,0.2242,0.0594,-0.3486,4.73,33.75,-42.07,350.26,-24.36,-4.46,48.843872,2.353345,91.5,NaN,,11.721,,0 / 19,,1370,2022-01-20 11:26:53:412
0.7878,3.4765,9.1083,0.6948,4.0446,8.9067,2.3152,0.5684,0.4351,0.2242,0.0594,-0.3486,4.73,33.75,-42.07,350.26,-24.36,-4.46,48.843872,2.353345,91.5,NaN,,11.721,,0 / 19,,1375,2022-01-20 11:26:53:417
0.7878,3.4765,9.1083,0.6948,4.0446,8.9067,2.3152,0.5684,0.4351,0.2242,0.0594,-0.3486,4.73,33.75,-42.07,350.26,-24.36,-4.46,48.843872,2.353345,91.5,NaN,,11.721,,0 / 19,,1381,2022-01-20 11:26:53:423
0.7878,3.4765,9.1083,0.6948,4.0446,8.9067,2.3152,0.5684,0.4351,0.2242,0.0594,-0.3486,4.73,33.75,-42.07,350.26,-24.36,-4.46,48.843872,2.353345,91.5,NaN,,11.721,,0 / 19,,1386,2022-01-20 11:26:53:428
0.7878,3.4765,9.1083,0.6948,4.0446,8.9067,2.3152,0.5684,0.4351,0.2242,0.0594,-0.3486,4.73,33.75,-42.07,350.26,-24.36,-4.46,48.843872,2.353345,91.5,NaN,,11.721,,0 / 19,,1392,2022-01-20 11:26:53:434
0.7878,3.4765,9.1083,0.6948,4.0446,8.9067,2.3152,0.5684,0.4351,0.2242,0.0594,-0.3486,4.73,33.75,-42.07,350.26,-24.36,-4.46,48.843872,2.353345,91.5,NaN,,11.721,,0 / 19,,1396,2022-01-20 11:26:53:438
0.7878,3.4765,9.1083,0.6948,4.0446,8.9067,2.3152,0.5684,0.4351,0.2242,0.0594,-0.3486,4.73,33.75,-42.07,350.26,-24.36,-4.46,48.843872,2.353345,91.5,NaN,,11.721,,0 / 19,,1400,2022-01-20 11:26:53:442
0.7878,3.4765,9.1083,0.6948,4.0446,8.9067,2.3152,0.5684,0.4351,0.2242,0.0594,-0.3486,4.73,33.75,-42.07,350.26,-24.36,-4.46,48.843872,2.353345,91.5,NaN,,11.721,,0 / 19,,1405,2022-01-20 11:26:53:447
0.7878,3.4765,9.1083,0.6948,4.0446,8.9067,2.3152,0.5684,0.4351,0.4674,-0.0913,0.0895,4.73,33.75,-42.07,350.26,-24.36,-4.46,48.843872,2.353345,91.5,NaN,,11.721,,0 / 19,,1410,2022-01-20 11:26:53:452
0.7878,3.4765,9.1083,0.6948,4.0446,8.9067,2.3152,0.5684,0.4351,0.4674,-0.0913,0.0895,4.73,33.75,-42.07,350.26,-24.36,-4.46,48.843872,2.353345,91.5,NaN,,11.721,,0 / 19,,1415,2022-01-20 11:26:53:457
0.7878,3.4765,9.1083,0.6948,4.0446,8.9067,2.3152,0.5684,0.4351,0.4674,-0.0913,0.0895,4.73,33.75,-42.07,350.26,-24.36,-4.46,48.843872,2.353345,91.5,NaN,,11.721,,0 / 19,,1421,2022-01-20 11:26:53:463
0.7878,3.4765,9.1083,0.6948,4.0446,8.9067,2.3152,0.5684,0.4351,0.4674,-0.0913,0.0895,4.73,33.75,-42.07,350.26,-24.36,-4.46,48.843872,2.353345,91.5,NaN,,11.721,,0 / 19,,1425,2022-01-20 11:26:53:467
0.335,4.4432,7.1273,0.7174,4.4307,8.7192,0.1614,-0.7528,0.4155,0.4674,-0.0913,0.0895,4.73,33.75,-42.07,350.26,-24.36,-4.46,48.843872,2.353345,91.5,NaN,,11.721,,0 / 19,,1431,2022-01-20 11:26:53:473
0.335,4.4432,7.1273,0.7174,4.4307,8.7192,0.1614,-0.7528,0.4155,0.4674,-0.0913,0.0895,4.73,33.75,-42.07,350.26,-24.36,-4.46,48.843872,2.353345,91.5,NaN,,11.721,,0 / 19,,1435,2022-01-20 11:26:53:477
0.335,4.4432,7.1273,0.7174,4.4307,8.7192,0.1614,-0.7528,0.4155,0.4674,-0.0913,0.0895,4.73,33.75,-42.07,350.26,-24.36,-4.46,48.843872,2.353345,91.5,NaN,,11.721,,0 / 19,,1440,2022-01-20 11:26:53:482
0.335,4.4432,7.1273,0.7174,4.4307,8.7192,0.1614,-0.7528,0.4155,0.4674,-0.0913,0.0895,4.73,33.75,-42.07,350.26,-24.36,-4.46,48.843872,2.353345,91.5,NaN,,11.721,,0 / 19,,1446,2022-01-20 11:26:53:488
0.335,4.4432,7.1273,0.7174,4.4307,8.7192,0.1614,-0.7528,0.4155,0.4674,-0.0913,0.0895,4.35,33.45,-41.93,351.24,-26.86,-4.7,48.843872,2.353345,91.5,NaN,,11.721,,0 / 19,,1451,2022-01-20 11:26:53:493
0.335,4.4432,7.1273,0.7174,4.4307,8.7192,0.1614,-0.7528,0.4155,0.4674,-0.0913,0.0895,4.35,33.45,-41.93,351.24,-26.86,-4.7,48.843872,2.353345,91.5,NaN,,11.721,,0 / 19,,1456,2022-01-20 11:26:53:498
0.335,4.4432,7.1273,0.7174,4.4307,8.7192,0.1614,-0.7528,0.4155,0.4674,-0.0913,0.0895,4.35,33.45,-41.93,351.24,-26.86,-4.7,48.843872,2.353345,91.5,NaN,,11.721,,0 / 19,,1461,2022-01-20 11:26:53:503
0.335,4.4432,7.1273,0.7174,4.4307,8.7192,0.1614,-0.7528,0.4155,0.4674,-0.0913,0.0895,4.35,33.45,-41.93,351.24,-26.86,-4.7,48.843872,2.353345,91.5,NaN,,11.721,,0 / 19,,1466,2022-01-20 11:26:53:508
0.335,4.4432,7.1273,0.7174,4.4307,8.7192,0.1614,-0.7528,0.4155,0.4674,-0.0913,0.0895,4.35,33.45,-41.93,351.24,-26.86,-4.7,48.843872,2.353345,91.5,NaN,,11.721,,0 / 19,,1470,2022-01-20 11:26:53:512
0.335,4.4432,7.1273,0.7174,4.4307,8.7192,0.1614,-0.7528,0.4155,0.4674,-0.0913,0.0895,4.35,33.45,-41.93,351.24,-26.86,-4.7,48.843872,2.353345,91.5,NaN,,11.721,,0 / 19,,1476,2022-01-20 11:26:53:518
0.335,4.4432,7.1273,0.7174,4.4307,8.7192,0.1614,-0.7528,0.4155,0.3774,-0.4714,-0.0161,4.35,33.45,-41.93,351.24,-26.86,-4.7,48.843872,2.353345,91.5,NaN,,11.721,,0 / 19,,1480,2022-01-20 11:26:53:522
0.335,4.4432,7.1273,0.7174,4.4307,8.7192,0.1614,-0.7528,0.4155,0.3774,-0.4714,-0.0161,4.35,33.45,-41.93,351.24,-26.86,-4.7,48.843872,2.353345,91.5,NaN,,11.721,,0 / 19,,1485,2022-01-20 11:26:53:527
0.335,4.4432,7.1273,0.7174,4.4307,8.7192,0.1614,-0.7528,0.4155,0.3774,-0.4714,-0.0161,4.35,33.45,-41.93,351.24,-26.86,-4.7,48.843872,2.353345,91.5,NaN,,11.721,,0 / 19,,1490,2022-01-20 11:26:53:532
-0.0027,4.2383,7.4124,0.9821,4.6472,8.5796,-0.5468,-0.1813,-1.0138,0.3774,-0.4714,-0.0161,4.35,33.45,-41.93,351.24,-26.86,-4.7,48.843872,2.353345,91.5,NaN,,11.721,,0 / 19,,1496,2022-01-20 11:26:53:538
-0.0027,4.2383,7.4124,0.9821,4.6472,8.5796,-0.5468,-0.1813,-1.0138,0.3774,-0.4714,-0.0161,4.35,33.45,-41.93,351.24,-26.86,-4.7,48.843872,2.353345,91.5,NaN,,11.721,,0 / 19,,1500,2022-01-20 11:26:53:542
-0.0027,4.2383,7.4124,0.9821,4.6472,8.5796,-0.5468,-0.1813,-1.0138,0.3774,-0.4714,-0.0161,4.35,33.45,-41.93,351.24,-26.86,-4.7,48.843872,2.353345,91.5,NaN,,11.721,,0 / 19,,1505,2022-01-20 11:26:53:547
-0.0027,4.2383,7.4124,0.9821,4.6472,8.5796,-0.5468,-0.1813,-1.0138,0.3774,-0.4714,-0.0161,4.35,33.45,-41.93,351.24,-26.86,-4.7,48.843872,2.353345,91.5,NaN,,11.721,,0 / 19,,1510,2022-01-20 11:26:53:552
-0.0027,4.2383,7.4124,0.9821,4.6472,8.5796,-0.5468,-0.1813,-1.0138,0.3774,-0.4714,-0.0161,4.35,33.45,-41.93,351.24,-26.86,-4.7,48.843872,2.353345,91.5,NaN,,11.721,,0 / 19,,1515,2022-01-20 11:26:53:557
-0.0027,4.2383,7.4124,0.9821,4.6472,8.5796,-0.5468,-0.1813,-1.0138,0.3774,-0.4714,-0.0161,4.35,33.45,-41.93,351.24,-26.86,-4.7,48.843872,2.353345,91.5,NaN,,11.721,,0 / 19,,1520,2022-01-20 11:26:53:562
-0.0027,4.2383,7.4124,0.9821,4.6472,8.5796,-0.5468,-0.1813,-1.0138,0.3774,-0.4714,-0.0161,4.35,33.45,-41.93,351.24,-26.86,-4.7,48.843872,2.353345,91.5,NaN,,11.721,,0 / 19,,1525,2022-01-20 11:26:53:567
-0.0027,4.2383,7.4124,0.9821,4.6472,8.5796,-0.5468,-0.1813,-1.0138,0.3774,-0.4714,-0.0161,4.35,33.45,-41.93,351.24,-26.86,-4.7,48.843872,2.353345,91.5,NaN,,11.721,,0 / 19,,1531,2022-01-20 11:26:53:573
-0.0027,4.2383,7.4124,0.9821,4.6472,8.5796,-0.5468,-0.1813,-1.0138,0.3774,-0.4714,-0.0161,4.35,33.45,-41.93,351.24,-26.86,-4.7,48.843872,2.353345,91.5,NaN,,11.721,,0 / 19,,1535,2022-01-20 11:26:53:577
-0.0027,4.2383,7.4124,0.9821,4.6472,8.5796,-0.5468,-0.1813,-1.0138,0.3774,-0.4714,-0.0161,4.35,33.45,-41.93,351.24,-26.86,-4.7,48.843872,2.353345,91.5,NaN,,11.721,,0 / 19,,1541,2022-01-20 11:26:53:583
-0.0027,4.2383,7.4124,0.9821,4.6472,8.5796,-0.5468,-0.1813,-1.0138,0.3774,-0.4714,-0.0161,4.35,33.45,-41.93,351.24,-26.86,-4.7,48.843872,2.353345,91.5,NaN,,11.721,,0 / 19,,1546,2022-01-20 11:26:53:588
-0.0027,4.2383,7.4124,0.9821,4.6472,8.5796,-0.5468,-0.1813,-1.0138,0.3774,-0.4714,-0.0161,4.05,32.85,-41.7,349.8,-28.29,-6.53,48.843872,2.353345,91.5,NaN,,11.721,,0 / 19,,1551,2022-01-20 11:26:53:593
-0.0027,4.2383,7.4124,0.9821,4.6472,8.5796,-0.5468,-0.1813,-1.0138,0.3774,-0.4714,-0.0161,4.05,32.85,-41.7,349.8,-28.29,-6.53,48.843872,2.353345,91.5,NaN,,11.721,,0 / 19,,1556,2022-01-20 11:26:53:598
0.2524,3.8118,8.2807,0.98,4.6635,8.571,-0.9129,-0.2526,-1.0284,0.3774,-0.4714,-0.0161,4.05,32.85,-41.7,349.8,-28.29,-6.53,48.843872,2.353345,91.5,NaN,,11.721,,0 / 19,,1560,2022-01-20 11:26:53:602
0.2524,3.8118,8.2807,0.98,4.6635,8.571,-0.9129,-0.2526,-1.0284,0.3774,-0.4714,-0.0161,4.05,32.85,-41.7,349.8,-28.29,-6.53,48.843872,2.353345,91.5,NaN,,11.721,,0 / 19,,1566,2022-01-20 11:26:53:608
0.2524,3.8118,8.2807,0.98,4.6635,8.571,-0.9129,-0.2526,-1.0284,0.3774,-0.4714,-0.0161,4.05,32.85,-41.7,349.8,-28.29,-6.53,48.843872,2.353345,91.5,NaN,,11.721,,0 / 19,,1570,2022-01-20 11:26:53:612
0.2524,3.8118,8.2807,0.98,4.6635,8.571,-0.9129,-0.2526,-1.0284,0.3774,-0.4714,-0.0161,4.05,32.85,-41.7,349.8,-28.29,-6.53,48.843872,2.353345,91.5,NaN,,11.721,,0 / 19,,1575,2022-01-20 11:26:53:617
0.2524,3.8118,8.2807,0.98,4.6635,8.571,-0.9129,-0.2526,-1.0284,0.3774,-0.4714,-0.0161,4.05,32.85,-41.7,349.8,-28.29,-6.53,48.843872,2.353345,91.5,NaN,,11.721,,0 / 19,,1581,2022-01-20 11:26:53:623
0.2524,3.8118,8.2807,0.98,4.6635,8.571,-0.9129,-0.2526,-1.0284,0.3774,-0.4714,-0.0161,4.05,32.85,-41.7,349.8,-28.29,-6.53,48.843872,2.353345,91.5,NaN,,11.721,,0 / 19,,1585,2022-01-20 11:26:53:627
0.2524,3.8118,8.2807,0.98,4.6635,8.571,-0.9129,-0.2526,-1.0284,0.3774,-0.4714,-0.0161,4.05,32.85,-41.7,349.8,-28.29,-6.53,48.843872,2.353345,91.5,NaN,,11.721,,0 / 19,,1591,2022-01-20 11:26:53:633
0.2524,3.8118,8.2807,0.98,4.6635,8.571,-0.9129,-0.2526,-1.0284,0.3774,-0.4714,-0.0161,4.05,32.85,-41.7,349.8,-28.29,-6.53,48.843872,2.353345,91.5,NaN,,11.721,,0 / 19,,1596,2022-01-20 11:26:53:638
0.2524,3.8118,8.2807,0.98,4.6635,8.571,-0.9129,-0.2526,-1.0284,0.3774,-0.4714,-0.0161,4.05,32.85,-41.7,349.8,-28.29,-6.53,48.843872,2.353345,91.5,NaN,,11.721,,0 / 19,,1600,2022-01-20 11:26:53:642
0.2524,3.8118,8.2807,0.98,4.6635,8.571,-0.9129,-0.2526,-1.0284,0.3774,-0.4714,-0.0161,4.05,32.85,-41.7,349.8,-28.29,-6.53,48.843872,2.353345,91.5,NaN,,11.721,,0 / 19,,1605,2022-01-20 11:26:53:647
0.2524,3.8118,8.2807,0.98,4.6635,8.571,-0.9129,-0.2526,-1.0284,0.3774,-0.4714,-0.0161,4.05,32.85,-41.7,349.8,-28.29,-6.53,48.843872,2.353345,91.5,NaN,,11.721,,0 / 19,,1610,2022-01-20 11:26:53:652
0.2524,3.8118,8.2807,0.98,4.6635,8.571,-0.9129,-0.2526,-1.0284,-0.0068,-0.4237,0.2712,4.05,32.85,-41.7,349.8,-28.29,-6.53,48.843872,2.353345,91.5,NaN,,11.721,,0 / 19,,1615,2022-01-20 11:26:53:657
0.2524,3.8118,8.2807,0.98,4.6635,8.571,-0.9129,-0.2526,-1.0284,-0.0068,-0.4237,0.2712,4.05,32.85,-41.7,349.8,-28.29,-6.53,48.843872,2.353345,91.5,NaN,,11.721,,0 / 19,,1621,2022-01-20 11:26:53:663
0.2524,3.8118,8.2807,0.98,4.6635,8.571,-0.9129,-0.2526,-1.0284,-0.0068,-0.4237,0.2712,4.05,32.85,-41.7,349.8,-28.29,-6.53,48.843872,2.353345,91.5,NaN,,11.721,,0 / 19,,1625,2022-01-20 11:26:53:667
0.2524,3.8118,8.2807,0.98,4.6635,8.571,-0.9129,-0.2526,-1.0284,-0.0068,-0.4237,0.2712,4.05,32.85,-41.7,349.8,-28.29,-6.53,48.843872,2.353345,91.5,NaN,,11.721,,0 / 19,,1630,2022-01-20 11:26:53:672
2.5053,3.5363,10.0319,0.98,4.6635,8.571,-0.9129,-0.2526,-1.0284,-0.0068,-0.4237,0.2712,4.05,32.85,-41.7,349.8,-28.29,-6.53,48.843872,2.353345,91.5,NaN,,11.721,,0 / 19,,1635,2022-01-20 11:26:53:677
2.5053,3.5363,10.0319,0.98,4.6635,8.571,-0.9129,-0.2526,-1.0284,-0.0068,-0.4237,0.2712,4.05,32.85,-41.7,349.8,-28.29,-6.53,48.843872,2.353345,91.5,NaN,,11.721,,0 / 19,,1640,2022-01-20 11:26:53:682
2.5053,3.5363,10.0319,0.98,4.6635,8.571,-0.9129,-0.2526,-1.0284,-0.0068,-0.4237,0.2712,4.05,32.85,-41.7,349.8,-28.29,-6.53,48.843872,2.353345,91.5,NaN,,11.721,,0 / 19,,1645,2022-01-20 11:26:53:687
2.5053,3.5363,10.0319,0.98,4.6635,8.571,-0.9129,-0.2526,-1.0284,-0.0068,-0.4237,0.2712,4.13,32.4,-41.77,349.63,-28.39,-6.52,48.843872,2.353345,91.5,NaN,,11.721,,0 / 19,,1650,2022-01-20 11:26:53:692
2.5053,3.5363,10.0319,0.98,4.6635,8.571,-0.9129,-0.2526,-1.0284,-0.0068,-0.4237,0.2712,4.13,32.4,-41.77,349.63,-28.39,-6.52,48.843872,2.353345,91.5,NaN,,11.721,,0 / 19,,1655,2022-01-20 11:26:53:697
2.5053,3.5363,10.0319,0.98,4.6635,8.571,-0.9129,-0.2526,-1.0284,-0.0068,-0.4237,0.2712,4.13,32.4,-41.77,349.63,-28.39,-6.52,48.843872,2.353345,91.5,NaN,,11.721,,0 / 19,,1661,2022-01-20 11:26:53:703
2.5053,3.5363,10.0319,0.98,4.6635,8.571,-0.9129,-0.2526,-1.0284,-0.0068,-0.4237,0.2712,4.13,32.4,-41.77,349.63,-28.39,-6.52,48.843872,2.353345,91.5,NaN,,11.721,,0 / 19,,1665,2022-01-20 11:26:53:707
2.5053,3.5363,10.0319,0.98,4.6635,8.571,-0.9129,-0.2526,-1.0284,-0.0068,-0.4237,0.2712,4.13,32.4,-41.77,349.63,-28.39,-6.52,48.843872,2.353345,91.5,NaN,,11.721,,0 / 19,,1670,2022-01-20 11:26:53:712
2.5053,3.5363,10.0319,1.5284,4.568,8.5421,0.3398,-0.6625,0.4717,-0.0068,-0.4237,0.2712,4.13,32.4,-41.77,349.63,-28.39,-6.52,48.843872,2.353345,91.5,NaN,,11.721,,0 / 19,,1675,2022-01-20 11:26:53:717
2.5053,3.5363,10.0319,1.5284,4.568,8.5421,0.3398,-0.6625,0.4717,-0.0068,-0.4237,0.2712,4.13,32.4,-41.77,349.63,-28.39,-6.52,48.843872,2.353345,91.5,NaN,,11.721,,0 / 19,,1680,2022-01-20 11:26:53:722
2.5053,3.5363,10.0319,1.5284,4.568,8.5421,0.3398,-0.6625,0.4717,-0.0068,-0.4237,0.2712,4.13,32.4,-41.77,349.63,-28.39,-6.52,48.843872,2.353345,91.5,NaN,,11.721,,0 / 19,,1685,2022-01-20 11:26:53:727
2.5053,3.5363,10.0319,1.5284,4.568,8.5421,0.3398,-0.6625,0.4717,-0.0068,-0.4237,0.2712,4.13,32.4,-41.77,349.63,-28.39,-6.52,48.843872,2.353345,91.5,NaN,,11.721,,0 / 19,,1691,2022-01-20 11:26:53:733
2.5053,3.5363,10.0319,1.5284,4.568,8.5421,0.3398,-0.6625,0.4717,-0.0068,-0.4237,0.2712,4.13,32.4,-41.77,349.63,-28.39,-6.52,48.843872,2.353345,91.5,NaN,,11.721,,0 / 19,,1695,2022-01-20 11:26:53:737
1.3866,4.0741,7.9382,1.5284,4.568,8.5421,0.3398,-0.6625,0.4717,-0.0068,-0.4237,0.2712,4.13,32.4,-41.77,349.63,-28.39,-6.52,48.843872,2.353345,91.5,NaN,,11.721,,0 / 19,,1700,2022-01-20 11:26:53:742
1.3866,4.0741,7.9382,1.5284,4.568,8.5421,0.3398,-0.6625,0.4717,-0.0068,-0.4237,0.2712,4.13,32.4,-41.77,349.63,-28.39,-6.52,48.843872,2.353345,91.5,NaN,,11.721,,0 / 19,,1705,2022-01-20 11:26:53:747
1.3866,4.0741,7.9382,1.5284,4.568,8.5421,0.3398,-0.6625,0.4717,-0.0068,-0.4237,0.2712,4.13,32.4,-41.77,349.63,-28.39,-6.52,48.843872,2.353345,91.5,NaN,,11.721,,0 / 19,,1711,2022-01-20 11:26:53:753
1.3866,4.0741,7.9382,1.5284,4.568,8.5421,0.3398,-0.6625,0.4717,-0.0068,-0.4237,0.2712,4.13,32.4,-41.77,349.63,-28.39,-6.52,48.843872,2.353345,91.5,NaN,,11.721,,0 / 19,,1715,2022-01-20 11:26:53:757
1.3866,4.0741,7.9382,1.5284,4.568,8.5421,0.3398,-0.6625,0.4717,-0.0068,-0.4237,0.2712,4.13,32.4,-41.77,349.63,-28.39,-6.52,48.843872,2.353345,91.5,NaN,,11.721,,0 / 19,,1721,2022-01-20 11:26:53:763
1.3866,4.0741,7.9382,1.5284,4.568,8.5421,0.3398,-0.6625,0.4717,-0.0068,-0.4237,0.2712,4.13,32.4,-41.77,349.63,-28.39,-6.52,48.843872,2.353345,91.5,NaN,,11.721,,0 / 19,,1726,2022-01-20 11:26:53:768
1.3866,4.0741,7.9382,1.5284,4.568,8.5421,0.3398,-0.6625,0.4717,-0.0068,-0.4237,0.2712,4.13,32.4,-41.77,349.63,-28.39,-6.52,48.843872,2.353345,91.5,NaN,,11.721,,0 / 19,,1730,2022-01-20 11:26:53:772
1.3866,4.0741,7.9382,1.5284,4.568,8.5421,0.3398,-0.6625,0.4717,-0.0068,-0.4237,0.2712,4.13,32.4,-41.77,349.63,-28.39,-6.52,48.843872,2.353345,91.5,NaN,,11.721,,0 / 19,,1735,2022-01-20 11:26:53:777
1.3866,4.0741,7.9382,1.5284,4.568,8.5421,0.3398,-0.6625,0.4717,-0.0068,-0.4237,0.2712,4.13,32.4,-41.77,349.63,-28.39,-6.52,48.843872,2.353345,91.5,NaN,,11.721,,0 / 19,,1740,2022-01-20 11:26:53:782
1.3866,4.0741,7.9382,1.7647,4.4661,8.5505,0.4302,-0.6338,0.8892,-0.3301,-0.5197,0.48,4.13,32.4,-41.77,349.63,-28.39,-6.52,48.843872,2.353345,91.5,NaN,,11.721,,0 / 19,,1746,2022-01-20 11:26:53:788
1.3866,4.0741,7.9382,1.7647,4.4661,8.5505,0.4302,-0.6338,0.8892,-0.3301,-0.5197,0.48,3.6,31.88,-42.3,345.17,-27.09,-11.66,48.843872,2.353345,91.5,NaN,,11.721,,0 / 19,,1750,2022-01-20 11:26:53:792
1.3866,4.0741,7.9382,1.7647,4.4661,8.5505,0.4302,-0.6338,0.8892,-0.3301,-0.5197,0.48,3.6,31.88,-42.3,345.17,-27.09,-11.66,48.843872,2.353345,91.5,NaN,,11.721,,0 / 19,,1756,2022-01-20 11:26:53:798
1.3866,4.0741,7.9382,1.7647,4.4661,8.5505,0.4302,-0.6338,0.8892,-0.3301,-0.5197,0.48,3.6,31.88,-42.3,345.17,-27.09,-11.66,48.843872,2.353345,91.5,NaN,,11.721,,0 / 19,,1761,2022-01-20 11:26:53:803
0.8812,3.6598,7.3657,1.7647,4.4661,8.5505,0.4302,-0.6338,0.8892,-0.3301,-0.5197,0.48,3.6,31.88,-42.3,345.17,-27.09,-11.66,48.843872,2.353345,91.5,NaN,,11.721,,0 / 19,,1766,2022-01-20 11:26:53:808
0.8812,3.6598,7.3657,1.7647,4.4661,8.5505,0.4302,-0.6338,0.8892,-0.3301,-0.5197,0.48,3.6,31.88,-42.3,345.17,-27.09,-11.66,48.843872,2.353345,91.5,NaN,,11.721,,0 / 19,,1770,2022-01-20 11:26:53:812
0.8812,3.6598,7.3657,1.7647,4.4661,8.5505,0.4302,-0.6338,0.8892,-0.3301,-0.5197,0.48,3.6,31.88,-42.3,345.17,-27.09,-11.66,48.843872,2.353345,91.5,NaN,,11.721,,0 / 19,,1776,2022-01-20 11:26:53:818
0.8812,3.6598,7.3657,1.7647,4.4661,8.5505,0.4302,-0.6338,0.8892,-0.3301,-0.5197,0.48,3.6,31.88,-42.3,345.17,-27.09,-11.66,48.843872,2.353345,91.5,NaN,,11.721,,0 / 19,,1781,2022-01-20 11:26:53:823
0.8812,3.6598,7.3657,1.7647,4.4661,8.5505,0.4302,-0.6338,0.8892,-0.3301,-0.5197,0.48,3.6,31.88,-42.3,345.17,-27.09,-11.66,48.843872,2.353345,91.5,NaN,,11.721,,0 / 19,,1786,2022-01-20 11:26:53:828
0.8812,3.6598,7.3657,1.7647,4.4661,8.5505,0.4302,-0.6338,0.8892,-0.3301,-0.5197,0.48,3.6,31.88,-42.3,345.17,-27.09,-11.66,48.843872,2.353345,91.5,NaN,,11.721,,0 / 19,,1790,2022-01-20 11:26:53:832
0.8812,3.6598,7.3657,1.7647,4.4661,8.5505,0.4302,-0.6338,0.8892,-0.3301,-0.5197,0.48,3.6,31.88,-42.3,345.17,-27.09,-11.66,48.843872,2.353345,91.5,NaN,,11.721,,0 / 19,,1795,2022-01-20 11:26:53:837
0.8812,3.6598,7.3657,1.7647,4.4661,8.5505,0.4302,-0.6338,0.8892,-0.3301,-0.5197,0.48,3.6,31.88,-42.3,345.17,-27.09,-11.66,48.843872,2.353345,91.5,NaN,,11.721,,0 / 19,,1801,2022-01-20 11:26:53:843
0.8812,3.6598,7.3657,2.403,3.9064,8.6681,-1.5367,-0.0336,-1.0346,-0.3301,-0.5197,0.48,3.6,31.88,-42.3,345.17,-27.09,-11.66,48.843872,2.353345,91.5,NaN,,11.721,,0 / 19,,1805,2022-01-20 11:26:53:847
0.8812,3.6598,7.3657,2.403,3.9064,8.6681,-1.5367,-0.0336,-1.0346,-0.3301,-0.5197,0.48,3.6,31.88,-42.3,345.17,-27.09,-11.66,48.843872,2.353345,91.5,NaN,,11.721,,0 / 19,,1811,2022-01-20 11:26:53:853
0.8812,3.6598,7.3657,2.403,3.9064,8.6681,-1.5367,-0.0336,-1.0346,-0.3301,-0.5197,0.48,3.6,31.88,-42.3,345.17,-27.09,-11.66,48.843872,2.353345,91.5,NaN,,11.721,,0 / 19,,1815,2022-01-20 11:26:53:857
0.8812,3.6598,7.3657,2.403,3.9064,8.6681,-1.5367,-0.0336,-1.0346,-0.3301,-0.5197,0.48,3.6,31.88,-42.3,345.17,-27.09,-11.66,48.843872,2.353345,91.5,NaN,,11.721,,0 / 19,,1820,2022-01-20 11:26:53:862
0.8812,3.6598,7.3657,2.403,3.9064,8.6681,-1.5367,-0.0336,-1.0346,-0.3301,-0.5197,0.48,3.6,31.88,-42.3,345.17,-27.09,-11.66,48.843872,2.353345,91.5,NaN,,11.721,,0 / 19,,1825,2022-01-20 11:26:53:867
0.8812,3.6598,7.3657,2.403,3.9064,8.6681,-1.5367,-0.0336,-1.0346,-0.3301,-0.5197,0.48,3.6,31.88,-42.3,345.17,-27.09,-11.66,48.843872,2.353345,91.5,NaN,,11.721,,0 / 19,,1831,2022-01-20 11:26:53:873
0.8812,3.6598,7.3657,2.403,3.9064,8.6681,-1.5367,-0.0336,-1.0346,-0.3301,-0.5197,0.48,3.6,31.88,-42.3,345.17,-27.09,-11.66,48.843872,2.353345,91.5,NaN,,11.721,,0 / 19,,1835,2022-01-20 11:26:53:877
2.1102,2.8884,9.0497,2.403,3.9064,8.6681,-1.5367,-0.0336,-1.0346,-0.3301,-0.5197,0.48,3.6,31.88,-42.3,345.17,-27.09,-11.66,48.843872,2.353345,91.5,NaN,,11.721,,0 / 19,,1840,2022-01-20 11:26:53:882
2.1102,2.8884,9.0497,2.403,3.9064,8.6681,-1.5367,-0.0336,-1.0346,-0.3301,-0.5197,0.48,3.6,31.88,-42.3,345.17,-27.09,-11.66,48.843872,2.353345,91.5,NaN,,11.721,,0 / 19,,1846,2022-01-20 11:26:53:888
2.1102,2.8884,9.0497,2.403,3.9064,8.6681,-1.5367,-0.0336,-1.0346,-0.3301,-0.5197,0.48,2.7,32.1,-42.37,342.65,-23.47,-15.49,48.843872,2.353345,91.5,NaN,,11.721,,0 / 19,,1850,2022-01-20 11:26:53:892
2.1102,2.8884,9.0497,2.403,3.9064,8.6681,-1.5367,-0.0336,-1.0346,-0.3301,-0.5197,0.48,2.7,32.1,-42.37,342.65,-23.47,-15.49,48.843872,2.353345,91.5,NaN,,11.721,,0 / 19,,1855,2022-01-20 11:26:53:897
2.1102,2.8884,9.0497,2.403,3.9064,8.6681,-1.5367,-0.0336,-1.0346,-0.3301,-0.5197,0.48,2.7,32.1,-42.37,342.65,-23.47,-15.49,48.843872,2.353345,91.5,NaN,,11.721,,0 / 19,,1860,2022-01-20 11:26:53:902
2.1102,2.8884,9.0497,2.403,3.9064,8.6681,-1.5367,-0.0336,-1.0346,-0.3301,-0.5197,0.48,2.7,32.1,-42.37,342.65,-23.47,-15.49,48.843872,2.353345,91.5,NaN,,11.721,,0 / 19,,1866,2022-01-20 11:26:53:908
2.1102,2.8884,9.0497,2.403,3.9064,8.6681,-1.5367,-0.0336,-1.0346,-0.3301,-0.5197,0.48,2.7,32.1,-42.37,342.65,-23.47,-15.49,48.843872,2.353345,91.5,NaN,,11.721,,0 / 19,,1870,2022-01-20 11:26:53:912
2.1102,2.8884,9.0497,2.403,3.9064,8.6681,-1.5367,-0.0336,-1.0346,-0.4137,-0.2529,1.4572,2.7,32.1,-42.37,342.65,-23.47,-15.49,48.843872,2.353345,91.5,NaN,,11.721,,0 / 19,,1877,2022-01-20 11:26:53:919
2.1102,2.8884,9.0497,2.403,3.9064,8.6681,-1.5367,-0.0336,-1.0346,-0.4137,-0.2529,1.4572,2.7,32.1,-42.37,342.65,-23.47,-15.49,48.843872,2.353345,91.5,NaN,,11.721,,0 / 19,,1881,2022-01-20 11:26:53:923
2.1102,2.8884,9.0497,2.403,3.9064,8.6681,-1.5367,-0.0336,-1.0346,-0.4137,-0.2529,1.4572,2.7,32.1,-42.37,342.65,-23.47,-15.49,48.843872,2.353345,91.5,NaN,,11.721,,0 / 19,,1885,2022-01-20 11:26:53:927
2.1102,2.8884,9.0497,2.403,3.9064,8.6681,-1.5367,-0.0336,-1.0346,-0.4137,-0.2529,1.4572,2.7,32.1,-42.37,342.65,-23.47,-15.49,48.843872,2.353345,91.5,NaN,,11.721,,0 / 19,,1890,2022-01-20 11:26:53:932
2.1102,2.8884,9.0497,2.403,3.9064,8.6681,-1.5367,-0.0336,-1.0346,-0.4137,-0.2529,1.4572,2.7,32.1,-42.37,342.65,-23.47,-15.49,48.843872,2.353345,91.5,NaN,,11.721,,0 / 19,,1895,2022-01-20 11:26:53:937
3.3915,2.6501,7.6591,2.403,3.9064,8.6681,-1.5367,-0.0336,-1.0346,-0.4137,-0.2529,1.4572,2.7,32.1,-42.37,342.65,-23.47,-15.49,48.843872,2.353345,91.5,NaN,,11.721,,0 / 19,,1900,2022-01-20 11:26:53:942
3.3915,2.6501,7.6591,2.403,3.9064,8.6681,-1.5367,-0.0336,-1.0346,-0.4137,-0.2529,1.4572,2.7,32.1,-42.37,342.65,-23.47,-15.49,48.843872,2.353345,91.5,NaN,,11.721,,0 / 19,,1906,2022-01-20 11:26:53:948
3.3915,2.6501,7.6591,2.403,3.9064,8.6681,-1.5367,-0.0336,-1.0346,-0.4137,-0.2529,1.4572,2.7,32.1,-42.37,342.65,-23.47,-15.49,48.843872,2.353345,91.5,NaN,,11.721,,0 / 19,,1910,2022-01-20 11:26:53:952
3.3915,2.6501,7.6591,2.403,3.9064,8.6681,-1.5367,-0.0336,-1.0346,-0.4137,-0.2529,1.4572,2.7,32.1,-42.37,342.65,-23.47,-15.49,48.843872,2.353345,91.5,NaN,,11.721,,0 / 19,,1915,2022-01-20 11:26:53:957
3.3915,2.6501,7.6591,3.3254,2.761,8.8028,-0.8903,-0.1384,-0.2881,-0.4137,-0.2529,1.4572,2.7,32.1,-42.37,342.65,-23.47,-15.49,48.843872,2.353345,91.5,NaN,,11.721,,0 / 19,,1920,2022-01-20 11:26:53:962
3.3915,2.6501,7.6591,3.3254,2.761,8.8028,-0.8903,-0.1384,-0.2881,-0.4137,-0.2529,1.4572,2.7,32.1,-42.37,342.65,-23.47,-15.49,48.843872,2.353345,91.5,NaN,,11.721,,0 / 19,,1925,2022-01-20 11:26:53:967
3.3915,2.6501,7.6591,3.3254,2.761,8.8028,-0.8903,-0.1384,-0.2881,-0.4137,-0.2529,1.4572,2.7,32.1,-42.37,342.65,-23.47,-15.49,48.843872,2.353345,91.5,NaN,,11.721,,0 / 19,,1931,2022-01-20 11:26:53:973
3.3915,2.6501,7.6591,3.3254,2.761,8.8028,-0.8903,-0.1384,-0.2881,-0.4137,-0.2529,1.4572,2.7,32.1,-42.37,342.65,-23.47,-15.49,48.843872,2.353345,91.5,NaN,,11.721,,0 / 19,,1935,2022-01-20 11:26:53:977
3.3915,2.6501,7.6591,3.3254,2.761,8.8028,-0.8903,-0.1384,-0.2881,-0.4137,-0.2529,1.4572,2.7,32.1,-42.37,342.65,-23.47,-15.49,48.843872,2.353345,91.5,NaN,,11.721,,0 / 19,,1940,2022-01-20 11:26:53:982
3.3915,2.6501,7.6591,3.3254,2.761,8.8028,-0.8903,-0.1384,-0.2881,-0.4137,-0.2529,1.4572,2.7,32.1,-42.37,342.65,-23.47,-15.49,48.843872,2.353345,91.5,NaN,,11.721,,0 / 19,,1946,2022-01-20 11:26:53:988
3.3915,2.6501,7.6591,3.3254,2.761,8.8028,-0.8903,-0.1384,-0.2881,-0.4137,-0.2529,1.4572,0.9,33.0,-42.52,339.39,-16.35,-20.69,48.843872,2.353345,91.5,NaN,,11.721,,0 / 19,,1950,2022-01-20 11:26:53:992
3.3915,2.6501,7.6591,3.3254,2.761,8.8028,-0.8903,-0.1384,-0.2881,-0.4137,-0.2529,1.4572,0.9,33.0,-42.52,339.39,-16.35,-20.69,48.843872,2.353345,91.5,NaN,,11.721,,0 / 19,,1956,2022-01-20 11:26:53:998
3.3915,2.6501,7.6591,3.3254,2.761,8.8028,-0.8903,-0.1384,-0.2881,-0.4137,-0.2529,1.4572,0.9,33.0,-42.52,339.39,-16.35,-20.69,48.843872,2.353345,91.5,NaN,,11.721,,0 / 19,,1960,2022-01-20 11:26:54:002
3.3915,2.6501,7.6591,3.3254,2.761,8.8028,-0.8903,-0.1384,-0.2881,-0.4137,-0.2529,1.4572,0.9,33.0,-42.52,339.39,-16.35,-20.69,48.843872,2.353345,91.5,NaN,,11.721,,0 / 19,,1965,2022-01-20 11:26:54:007
4.0421,2.3207,8.1144,3.3254,2.761,8.8028,-0.8903,-0.1384,-0.2881,-0.4137,-0.2529,1.4572,0.9,33.0,-42.52,339.39,-16.35,-20.69,48.843872,2.353345,91.5,NaN,,11.721,,0 / 19,,1971,2022-01-20 11:26:54:013
4.0421,2.3207,8.1144,3.3254,2.761,8.8028,-0.8903,-0.1384,-0.2881,-0.4137,-0.2529,1.4572,0.9,33.0,-42.52,339.39,-16.35,-20.69,48.843872,2.353345,91.5,NaN,,11.721,,0 / 19,,1975,2022-01-20 11:26:54:017
4.0421,2.3207,8.1144,3.3254,2.761,8.8028,-0.8903,-0.1384,-0.2881,-0.4137,-0.2529,1.4572,0.9,33.0,-42.52,339.39,-16.35,-20.69,48.843872,2.353345,91.5,NaN,,11.721,,0 / 19,,1980,2022-01-20 11:26:54:022
4.0421,2.3207,8.1144,3.5979,2.4982,8.7741,0.2582,0.2792,-0.7869,-0.4137,-0.2529,1.4572,0.9,33.0,-42.52,339.39,-16.35,-20.69,48.843872,2.353345,91.5,NaN,,11.721,,0 / 19,,1986,2022-01-20 11:26:54:028
4.0421,2.3207,8.1144,3.5979,2.4982,8.7741,0.2582,0.2792,-0.7869,-0.4137,-0.2529,1.4572,0.9,33.0,-42.52,339.39,-16.35,-20.69,48.843872,2.353345,91.5,NaN,,11.721,,0 / 19,,1991,2022-01-20 11:26:54:033
4.0421,2.3207,8.1144,3.5979,2.4982,8.7741,0.2582,0.2792,-0.7869,-0.4137,-0.2529,1.4572,0.9,33.0,-42.52,339.39,-16.35,-20.69,48.843872,2.353345,91.5,NaN,,11.721,,0 / 19,,1996,2022-01-20 11:26:54:038
4.0421,2.3207,8.1144,3.5979,2.4982,8.7741,0.2582,0.2792,-0.7869,-0.4137,-0.2529,1.4572,0.9,33.0,-42.52,339.39,-16.35,-20.69,48.843872,2.353345,91.5,NaN,,11.721,,0 / 19,,2000,2022-01-20 11:26:54:042
4.0421,2.3207,8.1144,3.5979,2.4982,8.7741,0.2582,0.2792,-0.7869,-0.4137,-0.2529,1.4572,0.9,33.0,-42.52,339.39,-16.35,-20.69,48.843872,2.353345,91.5,NaN,,11.721,,0 / 19,,2005,2022-01-20 11:26:54:047
4.0421,2.3207,8.1144,3.5979,2.4982,8.7741,0.2582,0.2792,-0.7869,0.0063,-0.035,0.4672,0.9,33.0,-42.52,339.39,-16.35,-20.69,48.843872,2.353345,91.5,NaN,,11.721,,0 / 19,,2010,2022-01-20 11:26:54:052
4.0421,2.3207,8.1144,3.5979,2.4982,8.7741,0.2582,0.2792,-0.7869,0.0063,-0.035,0.4672,0.9,33.0,-42.52,339.39,-16.35,-20.69,48.843872,2.353345,91.5,NaN,,11.721,,0 / 19,,2015,2022-01-20 11:26:54:057
4.0421,2.3207,8.1144,3.5979,2.4982,8.7741,0.2582,0.2792,-0.7869,0.0063,-0.035,0.4672,0.9,33.0,-42.52,339.39,-16.35,-20.69,48.843872,2.353345,91.5,NaN,,11.721,,0 / 19,,2021,2022-01-20 11:26:54:063
4.0421,2.3207,8.1144,3.5979,2.4982,8.7741,0.2582,0.2792,-0.7869,0.0063,-0.035,0.4672,0.9,33.0,-42.52,339.39,-16.35,-20.69,48.843872,2.353345,91.5,NaN,,11.721,,0 / 19,,2026,2022-01-20 11:26:54:068
4.0421,2.3207,8.1144,3.5979,2.4982,8.7741,0.2582,0.2792,-0.7869,0.0063,-0.035,0.4672,0.9,33.0,-42.52,339.39,-16.35,-20.69,48.843872,2.353345,91.5,NaN,,11.721,,0 / 19,,2031,2022-01-20 11:26:54:073
4.0421,2.3207,8.1144,3.5979,2.4982,8.7741,0.2582,0.2792,-0.7869,0.0063,-0.035,0.4672,0.9,33.0,-42.52,339.39,-16.35,-20.69,48.843872,2.353345,91.5,NaN,,11.721,,0 / 19,,2035,2022-01-20 11:26:54:077
5.1416,2.8286,9.0879,3.5979,2.4982,8.7741,0.2582,0.2792,-0.7869,0.0063,-0.035,0.4672,0.9,33.0,-42.52,339.39,-16.35,-20.69,48.843872,2.353345,91.5,NaN,,11.721,,0 / 19,,2041,2022-01-20 11:26:54:083
5.1416,2.8286,9.0879,3.5979,2.4982,8.7741,0.2582,0.2792,-0.7869,0.0063,-0.035,0.4672,0.9,33.0,-42.52,339.39,-16.35,-20.69,48.843872,2.353345,91.5,NaN,,11.721,,0 / 19,,2045,2022-01-20 11:26:54:087
5.1416,2.8286,9.0879,3.5979,2.4982,8.7741,0.2582,0.2792,-0.7869,0.0063,-0.035,0.4672,0.3,33.6,-42.52,339.23,-14.76,-22.3,48.843872,2.353345,91.5,NaN,,11.721,,0 / 19,,2053,2022-01-20 11:26:54:095
5.1416,2.8286,9.0879,3.5979,2.4982,8.7741,0.2582,0.2792,-0.7869,0.0063,-0.035,0.4672,0.3,33.6,-42.52,339.23,-14.76,-22.3,48.843872,2.353345,91.5,NaN,,11.721,,0 / 19,,2058,2022-01-20 11:26:54:100
5.1416,2.8286,9.0879,3.5979,2.4982,8.7741,0.2582,0.2792,-0.7869,0.0063,-0.035,0.4672,0.3,33.6,-42.52,339.23,-14.76,-22.3,48.843872,2.353345,91.5,NaN,,11.721,,0 / 19,,2060,2022-01-20 11:26:54:102
5.1416,2.8286,9.0879,3.5979,2.4982,8.7741,0.2582,0.2792,-0.7869,0.0063,-0.035,0.4672,0.3,33.6,-42.52,339.23,-14.76,-22.3,48.843872,2.353345,91.5,NaN,,11.721,,0 / 19,,2065,2022-01-20 11:26:54:107
5.1416,2.8286,9.0879,3.5979,2.4982,8.7741,0.2582,0.2792,-0.7869,0.0063,-0.035,0.4672,0.3,33.6,-42.52,339.23,-14.76,-22.3,48.843872,2.353345,91.5,NaN,,11.721,,0 / 19,,2070,2022-01-20 11:26:54:112
5.1416,2.8286,9.0879,3.5979,2.4982,8.7741,0.2582,0.2792,-0.7869,0.0063,-0.035,0.4672,0.3,33.6,-42.52,339.23,-14.76,-22.3,48.843872,2.353345,91.5,NaN,,11.721,,0 / 19,,2076,2022-01-20 11:26:54:118
5.1416,2.8286,9.0879,3.5979,2.4982,8.7741,0.2582,0.2792,-0.7869,0.7489,0.4553,-0.2027,0.3,33.6,-42.52,339.23,-14.76,-22.3,48.843872,2.353345,91.5,NaN,,11.721,,0 / 19,,2081,2022-01-20 11:26:54:123
5.1416,2.8286,9.0879,3.5979,2.4982,8.7741,0.2582,0.2792,-0.7869,0.7489,0.4553,-0.2027,0.3,33.6,-42.52,339.23,-14.76,-22.3,48.843872,2.353345,91.5,NaN,,11.721,,0 / 19,,2085,2022-01-20 11:26:54:127
5.1416,2.8286,9.0879,3.5979,2.4982,8.7741,0.2582,0.2792,-0.7869,0.7489,0.4553,-0.2027,0.3,33.6,-42.52,339.23,-14.76,-22.3,48.843872,2.353345,91.5,NaN,,11.721,,0 / 19,,2091,2022-01-20 11:26:54:133
3.2145,3.7926,7.7429,3.3375,2.9453,8.7383,0.6949,-0.4381,0.4158,0.7489,0.4553,-0.2027,0.3,33.6,-42.52,339.23,-14.76,-22.3,48.843872,2.353345,91.5,NaN,,11.721,,0 / 19,,2096,2022-01-20 11:26:54:138
3.2145,3.7926,7.7429,3.3375,2.9453,8.7383,0.6949,-0.4381,0.4158,0.7489,0.4553,-0.2027,0.3,33.6,-42.52,339.23,-14.76,-22.3,48.843872,2.353345,91.5,NaN,,11.721,,0 / 19,,2104,2022-01-20 11:26:54:146
3.2145,3.7926,7.7429,3.3375,2.9453,8.7383,0.6949,-0.4381,0.4158,0.7489,0.4553,-0.2027,0.3,33.6,-42.52,339.23,-14.76,-22.3,48.843872,2.353345,91.5,NaN,,11.721,,0 / 19,,2105,2022-01-20 11:26:54:147
3.2145,3.7926,7.7429,3.3375,2.9453,8.7383,0.6949,-0.4381,0.4158,0.7489,0.4553,-0.2027,0.3,33.6,-42.52,339.23,-14.76,-22.3,48.843872,2.353345,91.5,NaN,,11.721,,0 / 19,,2111,2022-01-20 11:26:54:153
3.2145,3.7926,7.7429,3.3375,2.9453,8.7383,0.6949,-0.4381,0.4158,0.7489,0.4553,-0.2027,0.3,33.6,-42.52,339.23,-14.76,-22.3,48.843872,2.353345,91.5,NaN,,11.721,,0 / 19,,2116,2022-01-20 11:26:54:158
3.2145,3.7926,7.7429,3.3375,2.9453,8.7383,0.6949,-0.4381,0.4158,0.7489,0.4553,-0.2027,0.3,33.6,-42.52,339.23,-14.76,-22.3,48.843872,2.353345,91.5,NaN,,11.721,,0 / 19,,2121,2022-01-20 11:26:54:163
3.2145,3.7926,7.7429,3.3375,2.9453,8.7383,0.6949,-0.4381,0.4158,0.7489,0.4553,-0.2027,0.3,33.6,-42.52,339.23,-14.76,-22.3,48.843872,2.353345,91.5,NaN,,11.721,,0 / 19,,2125,2022-01-20 11:26:54:167
3.2145,3.7926,7.7429,3.3375,2.9453,8.7383,0.6949,-0.4381,0.4158,0.7489,0.4553,-0.2027,0.3,33.6,-42.52,339.23,-14.76,-22.3,48.843872,2.353345,91.5,NaN,,11.721,,0 / 19,,2131,2022-01-20 11:26:54:173
3.2145,3.7926,7.7429,3.3375,2.9453,8.7383,0.6949,-0.4381,0.4158,0.7489,0.4553,-0.2027,0.3,33.6,-42.52,339.23,-14.76,-22.3,48.843872,2.353345,91.5,NaN,,11.721,,0 / 19,,2135,2022-01-20 11:26:54:177
3.2145,3.7926,7.7429,3.3375,2.9453,8.7383,0.6949,-0.4381,0.4158,0.7489,0.4553,-0.2027,0.3,33.6,-42.52,339.23,-14.76,-22.3,48.843872,2.353345,91.5,NaN,,11.721,,0 / 19,,2141,2022-01-20 11:26:54:183
3.2145,3.7926,7.7429,3.3375,2.9453,8.7383,0.6949,-0.4381,0.4158,0.7489,0.4553,-0.2027,0.3,33.6,-42.52,339.23,-14.76,-22.3,48.843872,2.353345,91.5,NaN,,11.721,,0 / 19,,2146,2022-01-20 11:26:54:188
4.3654,3.553,8.761,3.3375,2.9453,8.7383,0.6949,-0.4381,0.4158,0.7489,0.4553,-0.2027,-1.05,34.65,-42.45,342.76,-17.48,-20.9,48.843872,2.353345,91.5,NaN,,11.721,,0 / 19,,2150,2022-01-20 11:26:54:192
4.3654,3.553,8.761,3.3375,2.9453,8.7383,0.6949,-0.4381,0.4158,0.7489,0.4553,-0.2027,-1.05,34.65,-42.45,342.76,-17.48,-20.9,48.843872,2.353345,91.5,NaN,,11.721,,0 / 19,,2155,2022-01-20 11:26:54:197
4.3654,3.553,8.761,3.6907,3.2505,8.4843,-0.1688,0.9053,-0.4243,0.7489,0.4553,-0.2027,-1.05,34.65,-42.45,342.76,-17.48,-20.9,48.843872,2.353345,91.5,NaN,,11.721,,0 / 19,,2161,2022-01-20 11:26:54:203
4.3654,3.553,8.761,3.6907,3.2505,8.4843,-0.1688,0.9053,-0.4243,0.7489,0.4553,-0.2027,-1.05,34.65,-42.45,342.76,-17.48,-20.9,48.843872,2.353345,91.5,NaN,,11.721,,0 / 19,,2165,2022-01-20 11:26:54:207
4.3654,3.553,8.761,3.6907,3.2505,8.4843,-0.1688,0.9053,-0.4243,0.7489,0.4553,-0.2027,-1.05,34.65,-42.45,342.76,-17.48,-20.9,48.843872,2.353345,91.5,NaN,,11.721,,0 / 19,,2171,2022-01-20 11:26:54:213
4.3654,3.553,8.761,3.6907,3.2505,8.4843,-0.1688,0.9053,-0.4243,0.7489,0.4553,-0.2027,-1.05,34.65,-42.45,342.76,-17.48,-20.9,48.843872,2.353345,91.5,NaN,,11.721,,0 / 19,,2175,2022-01-20 11:26:54:217
4.3654,3.553,8.761,3.6907,3.2505,8.4843,-0.1688,0.9053,-0.4243,0.7489,0.4553,-0.2027,-1.05,34.65,-42.45,342.76,-17.48,-20.9,48.843872,2.353345,91.5,NaN,,11.721,,0 / 19,,2181,2022-01-20 11:26:54:223
4.3654,3.553,8.761,3.6907,3.2505,8.4843,-0.1688,0.9053,-0.4243,0.7489,0.4553,-0.2027,-1.05,34.65,-42.45,342.76,-17.48,-20.9,48.843872,2.353345,91.5,NaN,,11.721,,0 / 19,,2185,2022-01-20 11:26:54:227
4.3654,3.553,8.761,3.6907,3.2505,8.4843,-0.1688,0.9053,-0.4243,0.7489,0.4553,-0.2027,-1.05,34.65,-42.45,342.76,-17.48,-20.9,48.843872,2.353345,91.5,NaN,,11.721,,0 / 19,,2190,2022-01-20 11:26:54:232
4.3654,3.553,8.761,3.6907,3.2505,8.4843,-0.1688,0.9053,-0.4243,0.7489,0.4553,-0.2027,-1.05,34.65,-42.45,342.76,-17.48,-20.9,48.843872,2.353345,91.5,NaN,,11.721,,0 / 19,,2196,2022-01-20 11:26:54:238
4.3654,3.553,8.761,3.6907,3.2505,8.4843,-0.1688,0.9053,-0.4243,0.7489,0.4553,-0.2027,-1.05,34.65,-42.45,342.76,-17.48,-20.9,48.843872,2.353345,91.5,NaN,,11.721,,0 / 19,,2200,2022-01-20 11:26:54:242
4.3654,3.553,8.761,3.6907,3.2505,8.4843,-0.1688,0.9053,-0.4243,0.7489,0.4553,-0.2027,-1.05,34.65,-42.45,342.76,-17.48,-20.9,48.843872,2.353345,91.5,NaN,,11.721,,0 / 19,,2206,2022-01-20 11:26:54:248
4.3654,3.553,8.761,3.6907,3.2505,8.4843,-0.1688,0.9053,-0.4243,0.7489,0.4553,-0.2027,-1.05,34.65,-42.45,342.76,-17.48,-20.9,48.843872,2.353345,91.5,NaN,,11.721,,0 / 19,,2211,2022-01-20 11:26:54:253
2.8262,1.2954,9.0114,3.6907,3.2505,8.4843,-0.1688,0.9053,-0.4243,-1.2623,0.1015,-0.2971,-1.05,34.65,-42.45,342.76,-17.48,-20.9,48.843872,2.353345,91.5,NaN,,11.721,,0 / 19,,2215,2022-01-20 11:26:54:257
2.8262,1.2954,9.0114,3.6907,3.2505,8.4843,-0.1688,0.9053,-0.4243,-1.2623,0.1015,-0.2971,-1.05,34.65,-42.45,342.76,-17.48,-20.9,48.843872,2.353345,91.5,NaN,,11.721,,0 / 19,,2220,2022-01-20 11:26:54:262
2.8262,1.2954,9.0114,3.6907,3.2505,8.4843,-0.1688,0.9053,-0.4243,-1.2623,0.1015,-0.2971,-1.05,34.65,-42.45,342.76,-17.48,-20.9,48.843872,2.353345,91.5,NaN,,11.721,,0 / 19,,2225,2022-01-20 11:26:54:267
2.8262,1.2954,9.0114,3.5969,2.7297,8.7053,0.5771,1.084,0.1378,-1.2623,0.1015,-0.2971,-1.05,34.65,-42.45,342.76,-17.48,-20.9,48.843872,2.353345,91.5,NaN,,11.721,,0 / 19,,2230,2022-01-20 11:26:54:272
2.8262,1.2954,9.0114,3.5969,2.7297,8.7053,0.5771,1.084,0.1378,-1.2623,0.1015,-0.2971,-1.05,34.65,-42.45,342.76,-17.48,-20.9,48.843872,2.353345,91.5,NaN,,11.721,,0 / 19,,2236,2022-01-20 11:26:54:278
2.8262,1.2954,9.0114,3.5969,2.7297,8.7053,0.5771,1.084,0.1378,-1.2623,0.1015,-0.2971,-1.05,34.65,-42.45,342.76,-17.48,-20.9,48.843872,2.353345,91.5,NaN,,11.721,,0 / 19,,2240,2022-01-20 11:26:54:282
2.8262,1.2954,9.0114,3.5969,2.7297,8.7053,0.5771,1.084,0.1378,-1.2623,0.1015,-0.2971,-1.05,34.65,-42.45,342.76,-17.48,-20.9,48.843872,2.353345,91.5,NaN,,11.721,,0 / 19,,2245,2022-01-20 11:26:54:287
2.8262,1.2954,9.0114,3.5969,2.7297,8.7053,0.5771,1.084,0.1378,-1.2623,0.1015,-0.2971,-1.05,34.65,-42.45,342.76,-17.48,-20.9,48.843872,2.353345,91.5,NaN,,11.721,,0 / 19,,2250,2022-01-20 11:26:54:292
2.8262,1.2954,9.0114,3.5969,2.7297,8.7053,0.5771,1.084,0.1378,-1.2623,0.1015,-0.2971,-1.8,35.25,-42.45,342.36,-16.16,-22.45,48.843872,2.353345,91.5,NaN,,11.721,,0 / 19,,2255,2022-01-20 11:26:54:297
2.8262,1.2954,9.0114,3.5969,2.7297,8.7053,0.5771,1.084,0.1378,-1.2623,0.1015,-0.2971,-1.8,35.25,-42.45,342.36,-16.16,-22.45,48.843872,2.353345,91.5,NaN,,11.721,,0 / 19,,2260,2022-01-20 11:26:54:302
2.8262,1.2954,9.0114,3.5969,2.7297,8.7053,0.5771,1.084,0.1378,-1.2623,0.1015,-0.2971,-1.8,35.25,-42.45,342.36,-16.16,-22.45,48.843872,2.353345,91.5,NaN,,11.721,,0 / 19,,2266,2022-01-20 11:26:54:308
2.8262,1.2954,9.0114,3.5969,2.7297,8.7053,0.5771,1.084,0.1378,-1.2623,0.1015,-0.2971,-1.8,35.25,-42.45,342.36,-16.16,-22.45,48.843872,2.353345,91.5,NaN,,11.721,,0 / 19,,2270,2022-01-20 11:26:54:312
2.8262,1.2954,9.0114,3.5969,2.7297,8.7053,0.5771,1.084,0.1378,-1.2623,0.1015,-0.2971,-1.8,35.25,-42.45,342.36,-16.16,-22.45,48.843872,2.353345,91.5,NaN,,11.721,,0 / 19,,2276,2022-01-20 11:26:54:318
2.8262,1.2954,9.0114,3.5969,2.7297,8.7053,0.5771,1.084,0.1378,-1.2623,0.1015,-0.2971,-1.8,35.25,-42.45,342.36,-16.16,-22.45,48.843872,2.353345,91.5,NaN,,11.721,,0 / 19,,2281,2022-01-20 11:26:54:323
2.8262,1.2954,9.0114,3.5969,2.7297,8.7053,0.5771,1.084,0.1378,-1.2623,0.1015,-0.2971,-1.8,35.25,-42.45,342.36,-16.16,-22.45,48.843872,2.353345,91.5,NaN,,11.721,,0 / 19,,2286,2022-01-20 11:26:54:328
4.8757,1.1889,11.1015,3.7635,2.0638,8.8174,-0.0456,0.2458,0.0578,-0.8831,-0.2787,0.2474,-1.8,35.25,-42.45,342.36,-16.16,-22.45,48.843872,2.353345,91.5,NaN,,11.721,,0 / 19,,2291,2022-01-20 11:26:54:333
4.8757,1.1889,11.1015,3.7635,2.0638,8.8174,-0.0456,0.2458,0.0578,-0.8831,-0.2787,0.2474,-1.8,35.25,-42.45,342.36,-16.16,-22.45,48.843872,2.353345,91.5,NaN,,11.721,,0 / 19,,2295,2022-01-20 11:26:54:337
4.8757,1.1889,11.1015,3.7635,2.0638,8.8174,-0.0456,0.2458,0.0578,-0.8831,-0.2787,0.2474,-1.8,35.25,-42.45,342.36,-16.16,-22.45,48.843872,2.353345,91.5,NaN,,11.721,,0 / 19,,2300,2022-01-20 11:26:54:342
4.8757,1.1889,11.1015,3.7635,2.0638,8.8174,-0.0456,0.2458,0.0578,-0.8831,-0.2787,0.2474,-1.8,35.25,-42.45,342.36,-16.16,-22.45,48.843872,2.353345,91.5,NaN,,11.721,,0 / 19,,2305,2022-01-20 11:26:54:347
4.8757,1.1889,11.1015,3.7635,2.0638,8.8174,-0.0456,0.2458,0.0578,-0.8831,-0.2787,0.2474,-1.8,35.25,-42.45,342.36,-16.16,-22.45,48.843872,2.353345,91.5,NaN,,11.721,,0 / 19,,2311,2022-01-20 11:26:54:353
4.8757,1.1889,11.1015,3.7635,2.0638,8.8174,-0.0456,0.2458,0.0578,-0.8831,-0.2787,0.2474,-1.8,35.25,-42.45,342.36,-16.16,-22.45,48.843872,2.353345,91.5,NaN,,11.721,,0 / 19,,2317,2022-01-20 11:26:54:359
4.8757,1.1889,11.1015,3.7635,2.0638,8.8174,-0.0456,0.2458,0.0578,-0.8831,-0.2787,0.2474,-1.8,35.25,-42.45,342.36,-16.16,-22.45,48.843872,2.353345,91.5,NaN,,11.721,,0 / 19,,2320,2022-01-20 11:26:54:362
4.8757,1.1889,11.1015,3.7635,2.0638,8.8174,-0.0456,0.2458,0.0578,-0.8831,-0.2787,0.2474,-1.8,35.25,-42.45,342.36,-16.16,-22.45,48.843872,2.353345,91.5,NaN,,11.721,,0 / 19,,2326,2022-01-20 11:26:54:368
4.8757,1.1889,11.1015,3.7635,2.0638,8.8174,-0.0456,0.2458,0.0578,-0.8831,-0.2787,0.2474,-1.8,35.25,-42.45,342.36,-16.16,-22.45,48.843872,2.353345,91.5,NaN,,11.721,,0 / 19,,2331,2022-01-20 11:26:54:373
4.8757,1.1889,11.1015,3.7635,2.0638,8.8174,-0.0456,0.2458,0.0578,-0.8831,-0.2787,0.2474,-1.8,35.25,-42.45,342.36,-16.16,-22.45,48.843872,2.353345,91.5,NaN,,11.721,,0 / 19,,2336,2022-01-20 11:26:54:378
4.8757,1.1889,11.1015,3.7635,2.0638,8.8174,-0.0456,0.2458,0.0578,-0.8831,-0.2787,0.2474,-1.8,35.25,-42.45,342.36,-16.16,-22.45,48.843872,2.353345,91.5,NaN,,11.721,,0 / 19,,2341,2022-01-20 11:26:54:383
2.6898,1.0032,7.6651,3.7635,2.0638,8.8174,-0.0456,0.2458,0.0578,-0.8831,-0.2787,0.2474,-1.8,35.25,-42.45,342.36,-16.16,-22.45,48.843872,2.353345,91.5,NaN,,11.721,,0 / 19,,2346,2022-01-20 11:26:54:388
2.6898,1.0032,7.6651,3.7635,2.0638,8.8174,-0.0456,0.2458,0.0578,-0.8831,-0.2787,0.2474,-2.4,36.6,-42.07,341.77,-12.15,-23.11,48.843872,2.353345,91.5,NaN,,11.721,,0 / 19,,2350,2022-01-20 11:26:54:392
2.6898,1.0032,7.6651,3.7635,2.0638,8.8174,-0.0456,0.2458,0.0578,-0.8831,-0.2787,0.2474,-2.4,36.6,-42.07,341.77,-12.15,-23.11,48.843872,2.353345,91.5,NaN,,11.721,,0 / 19,,2357,2022-01-20 11:26:54:399
2.6898,1.0032,7.6651,3.7635,2.0638,8.8174,-0.0456,0.2458,0.0578,-0.8831,-0.2787,0.2474,-2.4,36.6,-42.07,341.77,-12.15,-23.11,48.843872,2.353345,91.5,NaN,,11.721,,0 / 19,,2360,2022-01-20 11:26:54:402
2.6898,1.0032,7.6651,3.7635,2.0638,8.8174,-0.0456,0.2458,0.0578,-0.8831,-0.2787,0.2474,-2.4,36.6,-42.07,341.77,-12.15,-23.11,48.843872,2.353345,91.5,NaN,,11.721,,0 / 19,,2366,2022-01-20 11:26:54:408
2.6898,1.0032,7.6651,3.7635,2.0638,8.8174,-0.0456,0.2458,0.0578,-0.8831,-0.2787,0.2474,-2.4,36.6,-42.07,341.77,-12.15,-23.11,48.843872,2.353345,91.5,NaN,,11.721,,0 / 19,,2371,2022-01-20 11:26:54:413
2.6898,1.0032,7.6651,3.7635,2.0638,8.8174,-0.0456,0.2458,0.0578,-0.8831,-0.2787,0.2474,-2.4,36.6,-42.07,341.77,-12.15,-23.11,48.843872,2.353345,91.5,NaN,,11.721,,0 / 19,,2376,2022-01-20 11:26:54:418
2.6898,1.0032,7.6651,3.7635,2.0638,8.8174,-0.0456,0.2458,0.0578,-0.8831,-0.2787,0.2474,-2.4,36.6,-42.07,341.77,-12.15,-23.11,48.843872,2.353345,91.5,NaN,,11.721,,0 / 19,,2381,2022-01-20 11:26:54:423
2.6898,1.0032,7.6651,3.7635,2.0638,8.8174,-0.0456,0.2458,0.0578,-0.8831,-0.2787,0.2474,-2.4,36.6,-42.07,341.77,-12.15,-23.11,48.843872,2.353345,91.5,NaN,,11.721,,0 / 19,,2385,2022-01-20 11:26:54:427
2.6898,1.0032,7.6651,3.7635,2.0638,8.8174,-0.0456,0.2458,0.0578,-0.8831,-0.2787,0.2474,-2.4,36.6,-42.07,341.77,-12.15,-23.11,48.843872,2.353345,91.5,NaN,,11.721,,0 / 19,,2391,2022-01-20 11:26:54:433
2.6898,1.0032,7.6651,3.7635,2.0638,8.8174,-0.0456,0.2458,0.0578,-0.8831,-0.2787,0.2474,-2.4,36.6,-42.07,341.77,-12.15,-23.11,48.843872,2.353345,91.5,NaN,,11.721,,0 / 19,,2396,2022-01-20 11:26:54:438
2.6898,1.0032,7.6651,3.7635,2.0638,8.8174,-0.0456,0.2458,0.0578,-0.8831,-0.2787,0.2474,-2.4,36.6,-42.07,341.77,-12.15,-23.11,48.843872,2.353345,91.5,NaN,,11.721,,0 / 19,,2400,2022-01-20 11:26:54:442
4.4934,0.6571,9.912,4.0957,2.1837,8.6387,-1.0538,-1.14,-0.1709,1.0952,-0.7323,1.2201,-2.4,36.6,-42.07,341.77,-12.15,-23.11,48.843872,2.353345,91.5,NaN,,11.721,,0 / 19,,2405,2022-01-20 11:26:54:447
4.4934,0.6571,9.912,4.0957,2.1837,8.6387,-1.0538,-1.14,-0.1709,1.0952,-0.7323,1.2201,-2.4,36.6,-42.07,341.77,-12.15,-23.11,48.843872,2.353345,91.5,NaN,,11.721,,0 / 19,,2410,2022-01-20 11:26:54:452
4.4934,0.6571,9.912,4.0957,2.1837,8.6387,-1.0538,-1.14,-0.1709,1.0952,-0.7323,1.2201,-2.4,36.6,-42.07,341.77,-12.15,-23.11,48.843872,2.353345,91.5,NaN,,11.721,,0 / 19,,2416,2022-01-20 11:26:54:458
4.4934,0.6571,9.912,4.0957,2.1837,8.6387,-1.0538,-1.14,-0.1709,1.0952,-0.7323,1.2201,-2.4,36.6,-42.07,341.77,-12.15,-23.11,48.843872,2.353345,91.5,NaN,,11.721,,0 / 19,,2420,2022-01-20 11:26:54:462
4.4934,0.6571,9.912,4.0957,2.1837,8.6387,-1.0538,-1.14,-0.1709,1.0952,-0.7323,1.2201,-2.4,36.6,-42.07,341.77,-12.15,-23.11,48.843872,2.353345,91.5,NaN,,11.721,,0 / 19,,2425,2022-01-20 11:26:54:467
4.4934,0.6571,9.912,4.0957,2.1837,8.6387,-1.0538,-1.14,-0.1709,1.0952,-0.7323,1.2201,-2.4,36.6,-42.07,341.77,-12.15,-23.11,48.843872,2.353345,91.5,NaN,,11.721,,0 / 19,,2431,2022-01-20 11:26:54:473
4.4934,0.6571,9.912,4.0957,2.1837,8.6387,-1.0538,-1.14,-0.1709,1.0952,-0.7323,1.2201,-2.4,36.6,-42.07,341.77,-12.15,-23.11,48.843872,2.353345,91.5,NaN,,11.721,,0 / 19,,2435,2022-01-20 11:26:54:477
4.4934,0.6571,9.912,4.0957,2.1837,8.6387,-1.0538,-1.14,-0.1709,1.0952,-0.7323,1.2201,-2.4,36.6,-42.07,341.77,-12.15,-23.11,48.843872,2.353345,91.5,NaN,,11.721,,0 / 19,,2440,2022-01-20 11:26:54:482
4.4934,0.6571,9.912,4.0957,2.1837,8.6387,-1.0538,-1.14,-0.1709,1.0952,-0.7323,1.2201,-2.4,36.6,-42.07,341.77,-12.15,-23.11,48.843872,2.353345,91.5,NaN,,11.721,,0 / 19,,2446,2022-01-20 11:26:54:488
4.4934,0.6571,9.912,4.0957,2.1837,8.6387,-1.0538,-1.14,-0.1709,1.0952,-0.7323,1.2201,-2.7,36.6,-42.07,341.17,-12.87,-25.37,48.843872,2.353345,91.5,NaN,,11.721,,0 / 19,,2450,2022-01-20 11:26:54:492
4.4934,0.6571,9.912,4.0957,2.1837,8.6387,-1.0538,-1.14,-0.1709,1.0952,-0.7323,1.2201,-2.7,36.6,-42.07,341.17,-12.87,-25.37,48.843872,2.353345,91.5,NaN,,11.721,,0 / 19,,2455,2022-01-20 11:26:54:497
4.4934,0.6571,9.912,4.0957,2.1837,8.6387,-1.0538,-1.14,-0.1709,1.0952,-0.7323,1.2201,-2.7,36.6,-42.07,341.17,-12.87,-25.37,48.843872,2.353345,91.5,NaN,,11.721,,0 / 19,,2461,2022-01-20 11:26:54:503
4.4934,0.6571,9.912,4.0957,2.1837,8.6387,-1.0538,-1.14,-0.1709,1.0952,-0.7323,1.2201,-2.7,36.6,-42.07,341.17,-12.87,-25.37,48.843872,2.353345,91.5,NaN,,11.721,,0 / 19,,2465,2022-01-20 11:26:54:507
4.4934,0.6571,9.912,4.0957,2.1837,8.6387,-1.0538,-1.14,-0.1709,1.0952,-0.7323,1.2201,-2.7,36.6,-42.07,341.17,-12.87,-25.37,48.843872,2.353345,91.5,NaN,,11.721,,0 / 19,,2471,2022-01-20 11:26:54:513
5.4601,4.1139,7.6771,4.8024,2.7767,8.0869,-0.2412,-1.4523,2.1688,2.0648,-1.3651,1.2738,-2.7,36.6,-42.07,341.17,-12.87,-25.37,48.843872,2.353345,91.5,NaN,,11.721,,0 / 19,,2476,2022-01-20 11:26:54:518
5.4601,4.1139,7.6771,4.8024,2.7767,8.0869,-0.2412,-1.4523,2.1688,2.0648,-1.3651,1.2738,-2.7,36.6,-42.07,341.17,-12.87,-25.37,48.843872,2.353345,91.5,NaN,,11.721,,0 / 19,,2482,2022-01-20 11:26:54:524
5.4601,4.1139,7.6771,4.8024,2.7767,8.0869,-0.2412,-1.4523,2.1688,2.0648,-1.3651,1.2738,-2.7,36.6,-42.07,341.17,-12.87,-25.37,48.843872,2.353345,91.5,NaN,,11.721,,0 / 19,,2486,2022-01-20 11:26:54:528
5.4601,4.1139,7.6771,4.8024,2.7767,8.0869,-0.2412,-1.4523,2.1688,2.0648,-1.3651,1.2738,-2.7,36.6,-42.07,341.17,-12.87,-25.37,48.843872,2.353345,91.5,NaN,,11.721,,0 / 19,,2491,2022-01-20 11:26:54:533
5.4601,4.1139,7.6771,4.8024,2.7767,8.0869,-0.2412,-1.4523,2.1688,2.0648,-1.3651,1.2738,-2.7,36.6,-42.07,341.17,-12.87,-25.37,48.843872,2.353345,91.5,NaN,,11.721,,0 / 19,,2496,2022-01-20 11:26:54:538
5.4601,4.1139,7.6771,4.8024,2.7767,8.0869,-0.2412,-1.4523,2.1688,2.0648,-1.3651,1.2738,-2.7,36.6,-42.07,341.17,-12.87,-25.37,48.843872,2.353345,91.5,NaN,,11.721,,0 / 19,,2500,2022-01-20 11:26:54:542
5.4601,4.1139,7.6771,4.8024,2.7767,8.0869,-0.2412,-1.4523,2.1688,2.0648,-1.3651,1.2738,-2.7,36.6,-42.07,341.17,-12.87,-25.37,48.843872,2.353345,91.5,NaN,,11.721,,0 / 19,,2505,2022-01-20 11:26:54:547
5.4601,4.1139,7.6771,4.8024,2.7767,8.0869,-0.2412,-1.4523,2.1688,2.0648,-1.3651,1.2738,-2.7,36.6,-42.07,341.17,-12.87,-25.37,48.843872,2.353345,91.5,NaN,,11.721,,0 / 19,,2511,2022-01-20 11:26:54:553
5.4601,4.1139,7.6771,4.8024,2.7767,8.0869,-0.2412,-1.4523,2.1688,2.0648,-1.3651,1.2738,-2.7,36.6,-42.07,341.17,-12.87,-25.37,48.843872,2.353345,91.5,NaN,,11.721,,0 / 19,,2515,2022-01-20 11:26:54:557
5.4601,4.1139,7.6771,4.8024,2.7767,8.0869,-0.2412,-1.4523,2.1688,2.0648,-1.3651,1.2738,-2.7,36.6,-42.07,341.17,-12.87,-25.37,48.843872,2.353345,91.5,NaN,,11.721,,0 / 19,,2520,2022-01-20 11:26:54:562
5.4601,4.1139,7.6771,4.8024,2.7767,8.0869,-0.2412,-1.4523,2.1688,2.0648,-1.3651,1.2738,-2.7,36.6,-42.07,341.17,-12.87,-25.37,48.843872,2.353345,91.5,NaN,,11.721,,0 / 19,,2526,2022-01-20 11:26:54:568
5.4601,4.1139,7.6771,4.8024,2.7767,8.0869,-0.2412,-1.4523,2.1688,2.0648,-1.3651,1.2738,-2.7,36.6,-42.07,341.17,-12.87,-25.37,48.843872,2.353345,91.5,NaN,,11.721,,0 / 19,,2531,2022-01-20 11:26:54:573
5.4601,4.1139,7.6771,4.8024,2.7767,8.0869,-0.2412,-1.4523,2.1688,2.0648,-1.3651,1.2738,-2.7,36.6,-42.07,341.17,-12.87,-25.37,48.843872,2.353345,91.5,NaN,,11.721,,0 / 19,,2535,2022-01-20 11:26:54:577
5.4601,4.1139,7.6771,4.8024,2.7767,8.0869,-0.2412,-1.4523,2.1688,2.0648,-1.3651,1.2738,-2.7,36.6,-42.07,341.17,-12.87,-25.37,48.843872,2.353345,91.5,NaN,,11.721,,0 / 19,,2541,2022-01-20 11:26:54:583
5.4601,4.1139,7.6771,4.8024,2.7767,8.0869,-0.2412,-1.4523,2.1688,2.0648,-1.3651,1.2738,-2.7,36.6,-42.07,341.17,-12.87,-25.37,48.843872,2.353345,91.5,NaN,,11.721,,0 / 19,,2546,2022-01-20 11:26:54:588
8.9551,4.6684,6.4854,4.8024,2.7767,8.0869,-0.2412,-1.4523,2.1688,2.0648,-1.3651,1.2738,-4.43,35.03,-41.93,337.91,-16.45,-30.7,48.843872,2.353345,91.5,NaN,,11.721,,0 / 19,,2550,2022-01-20 11:26:54:592
8.9551,4.6684,6.4854,4.8024,2.7767,8.0869,-0.2412,-1.4523,2.1688,2.0648,-1.3651,1.2738,-4.43,35.03,-41.93,337.91,-16.45,-30.7,48.843872,2.353345,91.5,NaN,,11.721,,0 / 19,,2555,2022-01-20 11:26:54:597
8.9551,4.6684,6.4854,4.8024,2.7767,8.0869,-0.2412,-1.4523,2.1688,2.0648,-1.3651,1.2738,-4.43,35.03,-41.93,337.91,-16.45,-30.7,48.843872,2.353345,91.5,NaN,,11.721,,0 / 19,,2561,2022-01-20 11:26:54:603
8.9551,4.6684,6.4854,4.8024,2.7767,8.0869,-0.2412,-1.4523,2.1688,2.0648,-1.3651,1.2738,-4.43,35.03,-41.93,337.91,-16.45,-30.7,48.843872,2.353345,91.5,NaN,,11.721,,0 / 19,,2566,2022-01-20 11:26:54:608
8.9551,4.6684,6.4854,4.8024,2.7767,8.0869,-0.2412,-1.4523,2.1688,2.0648,-1.3651,1.2738,-4.43,35.03,-41.93,337.91,-16.45,-30.7,48.843872,2.353345,91.5,NaN,,11.721,,0 / 19,,2570,2022-01-20 11:26:54:612
8.9551,4.6684,6.4854,4.8024,2.7767,8.0869,-0.2412,-1.4523,2.1688,2.0648,-1.3651,1.2738,-4.43,35.03,-41.93,337.91,-16.45,-30.7,48.843872,2.353345,91.5,NaN,,11.721,,0 / 19,,2575,2022-01-20 11:26:54:617
8.9551,4.6684,6.4854,4.8024,2.7767,8.0869,-0.2412,-1.4523,2.1688,2.0648,-1.3651,1.2738,-4.43,35.03,-41.93,337.91,-16.45,-30.7,48.843872,2.353345,91.5,NaN,,11.721,,0 / 19,,2581,2022-01-20 11:26:54:623
8.9551,4.6684,6.4854,4.8024,2.7767,8.0869,-0.2412,-1.4523,2.1688,2.0648,-1.3651,1.2738,-4.43,35.03,-41.93,337.91,-16.45,-30.7,48.843872,2.353345,91.5,NaN,,11.721,,0 / 19,,2585,2022-01-20 11:26:54:627
8.9551,4.6684,6.4854,6.0939,3.0469,7.0535,-1.5896,-0.9143,-1.4843,2.0648,-1.3651,1.2738,-4.43,35.03,-41.93,337.91,-16.45,-30.7,48.843872,2.353345,91.5,NaN,,11.721,,0 / 19,,2591,2022-01-20 11:26:54:633
8.9551,4.6684,6.4854,6.0939,3.0469,7.0535,-1.5896,-0.9143,-1.4843,2.0648,-1.3651,1.2738,-4.43,35.03,-41.93,337.91,-16.45,-30.7,48.843872,2.353345,91.5,NaN,,11.721,,0 / 19,,2596,2022-01-20 11:26:54:638
8.9551,4.6684,6.4854,6.0939,3.0469,7.0535,-1.5896,-0.9143,-1.4843,2.0648,-1.3651,1.2738,-4.43,35.03,-41.93,337.91,-16.45,-30.7,48.843872,2.353345,91.5,NaN,,11.721,,0 / 19,,2600,2022-01-20 11:26:54:642
8.9551,4.6684,6.4854,6.0939,3.0469,7.0535,-1.5896,-0.9143,-1.4843,2.0648,-1.3651,1.2738,-4.43,35.03,-41.93,337.91,-16.45,-30.7,48.843872,2.353345,91.5,NaN,,11.721,,0 / 19,,2606,2022-01-20 11:26:54:648
4.847,2.359,5.2313,6.0939,3.0469,7.0535,-1.5896,-0.9143,-1.4843,0.0671,0.0939,0.571,-4.43,35.03,-41.93,337.91,-16.45,-30.7,48.843872,2.353345,91.5,NaN,,11.721,,0 / 19,,2610,2022-01-20 11:26:54:652
4.847,2.359,5.2313,6.0939,3.0469,7.0535,-1.5896,-0.9143,-1.4843,0.0671,0.0939,0.571,-4.43,35.03,-41.93,337.91,-16.45,-30.7,48.843872,2.353345,91.5,NaN,,11.721,,0 / 19,,2615,2022-01-20 11:26:54:657
4.847,2.359,5.2313,6.0939,3.0469,7.0535,-1.5896,-0.9143,-1.4843,0.0671,0.0939,0.571,-4.43,35.03,-41.93,337.91,-16.45,-30.7,48.843872,2.353345,91.5,NaN,,11.721,,0 / 19,,2621,2022-01-20 11:26:54:663
4.847,2.359,5.2313,6.0939,3.0469,7.0535,-1.5896,-0.9143,-1.4843,0.0671,0.0939,0.571,-4.43,35.03,-41.93,337.91,-16.45,-30.7,48.843872,2.353345,91.5,NaN,,11.721,,0 / 19,,2625,2022-01-20 11:26:54:667
4.847,2.359,5.2313,6.0939,3.0469,7.0535,-1.5896,-0.9143,-1.4843,0.0671,0.0939,0.571,-4.43,35.03,-41.93,337.91,-16.45,-30.7,48.843872,2.353345,91.5,NaN,,11.721,,0 / 19,,2630,2022-01-20 11:26:54:672
4.847,2.359,5.2313,6.0939,3.0469,7.0535,-1.5896,-0.9143,-1.4843,0.0671,0.0939,0.571,-4.43,35.03,-41.93,337.91,-16.45,-30.7,48.843872,2.353345,91.5,NaN,,11.721,,0 / 19,,2635,2022-01-20 11:26:54:677
4.847,2.359,5.2313,6.0939,3.0469,7.0535,-1.5896,-0.9143,-1.4843,0.0671,0.0939,0.571,-4.43,35.03,-41.93,337.91,-16.45,-30.7,48.843872,2.353345,91.5,NaN,,11.721,,0 / 19,,2640,2022-01-20 11:26:54:682
4.847,2.359,5.2313,6.0939,3.0469,7.0535,-1.5896,-0.9143,-1.4843,0.0671,0.0939,0.571,-4.43,35.03,-41.93,337.91,-16.45,-30.7,48.843872,2.353345,91.5,NaN,,11.721,,0 / 19,,2646,2022-01-20 11:26:54:688
4.847,2.359,5.2313,6.0939,3.0469,7.0535,-1.5896,-0.9143,-1.4843,0.0671,0.0939,0.571,-5.62,34.2,-41.62,332.17,-18.1,-40.83,48.843872,2.353345,91.5,NaN,,11.721,,0 / 19,,2651,2022-01-20 11:26:54:693
4.847,2.359,5.2313,6.0939,3.0469,7.0535,-1.5896,-0.9143,-1.4843,0.0671,0.0939,0.571,-5.62,34.2,-41.62,332.17,-18.1,-40.83,48.843872,2.353345,91.5,NaN,,11.721,,0 / 19,,2656,2022-01-20 11:26:54:698
4.847,2.359,5.2313,6.0219,2.6938,7.2561,1.301,0.9293,-1.4162,0.0671,0.0939,0.571,-5.62,34.2,-41.62,332.17,-18.1,-40.83,48.843872,2.353345,91.5,NaN,,11.721,,0 / 19,,2661,2022-01-20 11:26:54:703
4.847,2.359,5.2313,6.0219,2.6938,7.2561,1.301,0.9293,-1.4162,0.0671,0.0939,0.571,-5.62,34.2,-41.62,332.17,-18.1,-40.83,48.843872,2.353345,91.5,NaN,,11.721,,0 / 19,,2665,2022-01-20 11:26:54:707
4.847,2.359,5.2313,6.0219,2.6938,7.2561,1.301,0.9293,-1.4162,0.0671,0.0939,0.571,-5.62,34.2,-41.62,332.17,-18.1,-40.83,48.843872,2.353345,91.5,NaN,,11.721,,0 / 19,,2670,2022-01-20 11:26:54:712
4.847,2.359,5.2313,6.0219,2.6938,7.2561,1.301,0.9293,-1.4162,0.0671,0.0939,0.571,-5.62,34.2,-41.62,332.17,-18.1,-40.83,48.843872,2.353345,91.5,NaN,,11.721,,0 / 19,,2676,2022-01-20 11:26:54:718
4.847,2.359,5.2313,6.0219,2.6938,7.2561,1.301,0.9293,-1.4162,-0.6228,0.3571,0.8819,-5.62,34.2,-41.62,332.17,-18.1,-40.83,48.843872,2.353345,91.5,NaN,,11.721,,0 / 19,,2680,2022-01-20 11:26:54:722
4.847,2.359,5.2313,6.0219,2.6938,7.2561,1.301,0.9293,-1.4162,-0.6228,0.3571,0.8819,-5.62,34.2,-41.62,332.17,-18.1,-40.83,48.843872,2.353345,91.5,NaN,,11.721,,0 / 19,,2685,2022-01-20 11:26:54:727
4.847,2.359,5.2313,6.0219,2.6938,7.2561,1.301,0.9293,-1.4162,-0.6228,0.3571,0.8819,-5.62,34.2,-41.62,332.17,-18.1,-40.83,48.843872,2.353345,91.5,NaN,,11.721,,0 / 19,,2690,2022-01-20 11:26:54:732
4.847,2.359,5.2313,6.0219,2.6938,7.2561,1.301,0.9293,-1.4162,-0.6228,0.3571,0.8819,-5.62,34.2,-41.62,332.17,-18.1,-40.83,48.843872,2.353345,91.5,NaN,,11.721,,0 / 19,,2696,2022-01-20 11:26:54:738
7.925,1.3313,9.2151,6.0219,2.6938,7.2561,1.301,0.9293,-1.4162,-0.6228,0.3571,0.8819,-5.62,34.2,-41.62,332.17,-18.1,-40.83,48.843872,2.353345,91.5,NaN,,11.721,,0 / 19,,2700,2022-01-20 11:26:54:742
7.925,1.3313,9.2151,6.0219,2.6938,7.2561,1.301,0.9293,-1.4162,-0.6228,0.3571,0.8819,-5.62,34.2,-41.62,332.17,-18.1,-40.83,48.843872,2.353345,91.5,NaN,,11.721,,0 / 19,,2705,2022-01-20 11:26:54:747
7.925,1.3313,9.2151,6.0219,2.6938,7.2561,1.301,0.9293,-1.4162,-0.6228,0.3571,0.8819,-5.62,34.2,-41.62,332.17,-18.1,-40.83,48.843872,2.353345,91.5,NaN,,11.721,,0 / 19,,2711,2022-01-20 11:26:54:753
7.925,1.3313,9.2151,6.0219,2.6938,7.2561,1.301,0.9293,-1.4162,-0.6228,0.3571,0.8819,-5.62,34.2,-41.62,332.17,-18.1,-40.83,48.843872,2.353345,91.5,NaN,,11.721,,0 / 19,,2715,2022-01-20 11:26:54:757
7.925,1.3313,9.2151,5.9604,2.1938,7.472,0.215,0.0156,-1.2231,-0.6228,0.3571,0.8819,-5.62,34.2,-41.62,332.17,-18.1,-40.83,48.843872,2.353345,91.5,NaN,,11.721,,0 / 19,,2720,2022-01-20 11:26:54:762
7.925,1.3313,9.2151,5.9604,2.1938,7.472,0.215,0.0156,-1.2231,-0.6228,0.3571,0.8819,-5.62,34.2,-41.62,332.17,-18.1,-40.83,48.843872,2.353345,91.5,NaN,,11.721,,0 / 19,,2725,2022-01-20 11:26:54:767
7.925,1.3313,9.2151,5.9604,2.1938,7.472,0.215,0.0156,-1.2231,-0.6228,0.3571,0.8819,-5.62,34.2,-41.62,332.17,-18.1,-40.83,48.843872,2.353345,91.5,NaN,,11.721,,0 / 19,,2730,2022-01-20 11:26:54:772
7.925,1.3313,9.2151,5.9604,2.1938,7.472,0.215,0.0156,-1.2231,-0.6228,0.3571,0.8819,-5.62,34.2,-41.62,332.17,-18.1,-40.83,48.843872,2.353345,91.5,NaN,,11.721,,0 / 19,,2736,2022-01-20 11:26:54:778
7.925,1.3313,9.2151,5.9604,2.1938,7.472,0.215,0.0156,-1.2231,-0.6228,0.3571,0.8819,-5.62,34.2,-41.62,332.17,-18.1,-40.83,48.843872,2.353345,91.5,NaN,,11.721,,0 / 19,,2741,2022-01-20 11:26:54:783
7.925,1.3313,9.2151,5.9604,2.1938,7.472,0.215,0.0156,-1.2231,-0.6228,0.3571,0.8819,-5.62,34.2,-41.62,332.17,-18.1,-40.83,48.843872,2.353345,91.5,NaN,,11.721,,0 / 19,,2746,2022-01-20 11:26:54:788
7.925,1.3313,9.2151,5.9604,2.1938,7.472,0.215,0.0156,-1.2231,-0.6228,0.3571,0.8819,-5.62,34.2,-41.62,332.17,-18.1,-40.83,48.843872,2.353345,91.5,NaN,,11.721,,0 / 19,,2751,2022-01-20 11:26:54:793
7.925,1.3313,9.2151,5.9604,2.1938,7.472,0.215,0.0156,-1.2231,-0.6228,0.3571,0.8819,-6.75,33.3,-41.55,332.9,-12.93,-38.58,48.843872,2.353345,91.5,NaN,,11.721,,0 / 19,,2755,2022-01-20 11:26:54:797
7.925,1.3313,9.2151,5.9604,2.1938,7.472,0.215,0.0156,-1.2231,-0.6228,0.3571,0.8819,-6.75,33.3,-41.55,332.9,-12.93,-38.58,48.843872,2.353345,91.5,NaN,,11.721,,0 / 19,,2760,2022-01-20 11:26:54:802
7.925,1.3313,9.2151,5.9604,2.1938,7.472,0.215,0.0156,-1.2231,-0.6228,0.3571,0.8819,-6.75,33.3,-41.55,332.9,-12.93,-38.58,48.843872,2.353345,91.5,NaN,,11.721,,0 / 19,,2766,2022-01-20 11:26:54:808
7.925,1.3313,9.2151,5.9604,2.1938,7.472,0.215,0.0156,-1.2231,-0.6228,0.3571,0.8819,-6.75,33.3,-41.55,332.9,-12.93,-38.58,48.843872,2.353345,91.5,NaN,,11.721,,0 / 19,,2770,2022-01-20 11:26:54:812
6.5381,1.6319,7.4782,5.9604,2.1938,7.472,0.215,0.0156,-1.2231,-0.6228,0.3571,0.8819,-6.75,33.3,-41.55,332.9,-12.93,-38.58,48.843872,2.353345,91.5,NaN,,11.721,,0 / 19,,2775,2022-01-20 11:26:54:817
6.5381,1.6319,7.4782,5.9604,2.1938,7.472,0.215,0.0156,-1.2231,-0.6228,0.3571,0.8819,-6.75,33.3,-41.55,332.9,-12.93,-38.58,48.843872,2.353345,91.5,NaN,,11.721,,0 / 19,,2780,2022-01-20 11:26:54:822
6.5381,1.6319,7.4782,5.9604,2.1938,7.472,0.215,0.0156,-1.2231,-0.6228,0.3571,0.8819,-6.75,33.3,-41.55,332.9,-12.93,-38.58,48.843872,2.353345,91.5,NaN,,11.721,,0 / 19,,2785,2022-01-20 11:26:54:827
6.5381,1.6319,7.4782,5.9604,2.1938,7.472,0.215,0.0156,-1.2231,-0.6228,0.3571,0.8819,-6.75,33.3,-41.55,332.9,-12.93,-38.58,48.843872,2.353345,91.5,NaN,,11.721,,0 / 19,,2793,2022-01-20 11:26:54:835
6.5381,1.6319,7.4782,5.9604,2.1938,7.472,0.215,0.0156,-1.2231,-0.6228,0.3571,0.8819,-6.75,33.3,-41.55,332.9,-12.93,-38.58,48.843872,2.353345,91.5,NaN,,11.721,,0 / 19,,2795,2022-01-20 11:26:54:837
6.5381,1.6319,7.4782,5.9604,2.1938,7.472,0.215,0.0156,-1.2231,-0.6228,0.3571,0.8819,-6.75,33.3,-41.55,332.9,-12.93,-38.58,48.843872,2.353345,91.5,NaN,,11.721,,0 / 19,,2800,2022-01-20 11:26:54:842
6.5381,1.6319,7.4782,5.9604,2.1938,7.472,0.215,0.0156,-1.2231,-0.6228,0.3571,0.8819,-6.75,33.3,-41.55,332.9,-12.93,-38.58,48.843872,2.353345,91.5,NaN,,11.721,,0 / 19,,2805,2022-01-20 11:26:54:847
6.5381,1.6319,7.4782,5.9604,2.1938,7.472,0.215,0.0156,-1.2231,-0.6228,0.3571,0.8819,-6.75,33.3,-41.55,332.9,-12.93,-38.58,48.843872,2.353345,91.5,NaN,,11.721,,0 / 19,,2810,2022-01-20 11:26:54:852
6.5381,1.6319,7.4782,5.9604,2.1938,7.472,0.215,0.0156,-1.2231,-0.6092,0.5945,0.1794,-6.75,33.3,-41.55,332.9,-12.93,-38.58,48.843872,2.353345,91.5,NaN,,11.721,,0 / 19,,2816,2022-01-20 11:26:54:858
6.5381,1.6319,7.4782,5.9604,2.1938,7.472,0.215,0.0156,-1.2231,-0.6092,0.5945,0.1794,-6.75,33.3,-41.55,332.9,-12.93,-38.58,48.843872,2.353345,91.5,NaN,,11.721,,0 / 19,,2820,2022-01-20 11:26:54:862
6.5381,1.6319,7.4782,5.9604,2.1938,7.472,0.215,0.0156,-1.2231,-0.6092,0.5945,0.1794,-6.75,33.3,-41.55,332.9,-12.93,-38.58,48.843872,2.353345,91.5,NaN,,11.721,,0 / 19,,2825,2022-01-20 11:26:54:867
4.9187,0.638,7.8209,5.5054,1.5962,7.957,1.0183,0.0577,-0.609,-0.6092,0.5945,0.1794,-6.75,33.3,-41.55,332.9,-12.93,-38.58,48.843872,2.353345,91.5,NaN,,11.721,,0 / 19,,2830,2022-01-20 11:26:54:872
4.9187,0.638,7.8209,5.5054,1.5962,7.957,1.0183,0.0577,-0.609,-0.6092,0.5945,0.1794,-6.75,33.3,-41.55,332.9,-12.93,-38.58,48.843872,2.353345,91.5,NaN,,11.721,,0 / 19,,2837,2022-01-20 11:26:54:879
4.9187,0.638,7.8209,5.5054,1.5962,7.957,1.0183,0.0577,-0.609,-0.6092,0.5945,0.1794,-6.75,33.3,-41.55,332.9,-12.93,-38.58,48.843872,2.353345,91.5,NaN,,11.721,,0 / 19,,2844,2022-01-20 11:26:54:886
4.9187,0.638,7.8209,5.5054,1.5962,7.957,1.0183,0.0577,-0.609,-0.6092,0.5945,0.1794,-6.75,33.3,-41.55,332.9,-12.93,-38.58,48.843872,2.353345,91.5,NaN,,11.721,,0 / 19,,2845,2022-01-20 11:26:54:887
4.9187,0.638,7.8209,5.5054,1.5962,7.957,1.0183,0.0577,-0.609,-0.6092,0.5945,0.1794,-7.27,32.78,-41.55,334.96,-9.37,-34.68,48.843872,2.353345,91.5,NaN,,11.721,,0 / 19,,2851,2022-01-20 11:26:54:893
4.9187,0.638,7.8209,5.5054,1.5962,7.957,1.0183,0.0577,-0.609,-0.6092,0.5945,0.1794,-7.27,32.78,-41.55,334.96,-9.37,-34.68,48.843872,2.353345,91.5,NaN,,11.721,,0 / 19,,2855,2022-01-20 11:26:54:897
4.9187,0.638,7.8209,5.5054,1.5962,7.957,1.0183,0.0577,-0.609,-0.6092,0.5945,0.1794,-7.27,32.78,-41.55,334.96,-9.37,-34.68,48.843872,2.353345,91.5,NaN,,11.721,,0 / 19,,2860,2022-01-20 11:26:54:902
4.9187,0.638,7.8209,5.5054,1.5962,7.957,1.0183,0.0577,-0.609,-0.6092,0.5945,0.1794,-7.27,32.78,-41.55,334.96,-9.37,-34.68,48.843872,2.353345,91.5,NaN,,11.721,,0 / 19,,2866,2022-01-20 11:26:54:908
4.9187,0.638,7.8209,5.5054,1.5962,7.957,1.0183,0.0577,-0.609,-0.6092,0.5945,0.1794,-7.27,32.78,-41.55,334.96,-9.37,-34.68,48.843872,2.353345,91.5,NaN,,11.721,,0 / 19,,2870,2022-01-20 11:26:54:912
4.9187,0.638,7.8209,5.5054,1.5962,7.957,1.0183,0.0577,-0.609,-0.6092,0.5945,0.1794,-7.27,32.78,-41.55,334.96,-9.37,-34.68,48.843872,2.353345,91.5,NaN,,11.721,,0 / 19,,2876,2022-01-20 11:26:54:918
4.9187,0.638,7.8209,5.5054,1.5962,7.957,1.0183,0.0577,-0.609,-0.6092,0.5945,0.1794,-7.27,32.78,-41.55,334.96,-9.37,-34.68,48.843872,2.353345,91.5,NaN,,11.721,,0 / 19,,2880,2022-01-20 11:26:54:922
4.9187,0.638,7.8209,5.5054,1.5962,7.957,1.0183,0.0577,-0.609,-0.6092,0.5945,0.1794,-7.27,32.78,-41.55,334.96,-9.37,-34.68,48.843872,2.353345,91.5,NaN,,11.721,,0 / 19,,2886,2022-01-20 11:26:54:928
4.9187,0.638,7.8209,5.5054,1.5962,7.957,1.0183,0.0577,-0.609,-0.6092,0.5945,0.1794,-7.27,32.78,-41.55,334.96,-9.37,-34.68,48.843872,2.353345,91.5,NaN,,11.721,,0 / 19,,2890,2022-01-20 11:26:54:932
4.8589,0.542,8.2687,5.4934,1.3683,8.0075,-0.1994,-0.504,-0.1278,-0.6092,0.5945,0.1794,-7.27,32.78,-41.55,334.96,-9.37,-34.68,48.843872,2.353345,91.5,NaN,,11.721,,0 / 19,,2895,2022-01-20 11:26:54:937
4.8589,0.542,8.2687,5.4934,1.3683,8.0075,-0.1994,-0.504,-0.1278,-0.6092,0.5945,0.1794,-7.27,32.78,-41.55,334.96,-9.37,-34.68,48.843872,2.353345,91.5,NaN,,11.721,,0 / 19,,2900,2022-01-20 11:26:54:942
4.8589,0.542,8.2687,5.4934,1.3683,8.0075,-0.1994,-0.504,-0.1278,-0.6092,0.5945,0.1794,-7.27,32.78,-41.55,334.96,-9.37,-34.68,48.843872,2.353345,91.5,NaN,,11.721,,0 / 19,,2905,2022-01-20 11:26:54:947
4.8589,0.542,8.2687,5.4934,1.3683,8.0075,-0.1994,-0.504,-0.1278,-0.6092,0.5945,0.1794,-7.27,32.78,-41.55,334.96,-9.37,-34.68,48.843872,2.353345,91.5,NaN,,11.721,,0 / 19,,2910,2022-01-20 11:26:54:952
4.8589,0.542,8.2687,5.4934,1.3683,8.0075,-0.1994,-0.504,-0.1278,-0.6092,0.5945,0.1794,-7.27,32.78,-41.55,334.96,-9.37,-34.68,48.843872,2.353345,91.5,NaN,,11.721,,0 / 19,,2915,2022-01-20 11:26:54:957
4.8589,0.542,8.2687,5.4934,1.3683,8.0075,-0.1994,-0.504,-0.1278,-0.6092,0.5945,0.1794,-7.27,32.78,-41.55,334.96,-9.37,-34.68,48.843872,2.353345,91.5,NaN,,11.721,,0 / 19,,2920,2022-01-20 11:26:54:962
4.8589,0.542,8.2687,5.4934,1.3683,8.0075,-0.1994,-0.504,-0.1278,-0.6092,0.5945,0.1794,-7.27,32.78,-41.55,334.96,-9.37,-34.68,48.843872,2.353345,91.5,NaN,,11.721,,0 / 19,,2925,2022-01-20 11:26:54:967
4.8589,0.542,8.2687,5.4934,1.3683,8.0075,-0.1994,-0.504,-0.1278,-0.6092,0.5945,0.1794,-7.27,32.78,-41.55,334.96,-9.37,-34.68,48.843872,2.353345,91.5,NaN,,11.721,,0 / 19,,2930,2022-01-20 11:26:54:972
4.8589,0.542,8.2687,5.4934,1.3683,8.0075,-0.1994,-0.504,-0.1278,-0.6092,0.5945,0.1794,-7.27,32.78,-41.55,334.96,-9.37,-34.68,48.843872,2.353345,91.5,NaN,,11.721,,0 / 19,,2935,2022-01-20 11:26:54:977
4.8589,0.542,8.2687,5.4934,1.3683,8.0075,-0.1994,-0.504,-0.1278,-0.6092,0.5945,0.1794,-7.27,32.78,-41.55,334.96,-9.37,-34.68,48.843872,2.353345,91.5,NaN,,11.721,,0 / 19,,2940,2022-01-20 11:26:54:982
4.8589,0.542,8.2687,5.4934,1.3683,8.0075,-0.1994,-0.504,-0.1278,-0.0664,-0.1113,0.4562,-7.27,32.78,-41.55,334.96,-9.37,-34.68,48.843872,2.353345,91.5,NaN,,11.721,,0 / 19,,2946,2022-01-20 11:26:54:988
4.8589,0.542,8.2687,5.4934,1.3683,8.0075,-0.1994,-0.504,-0.1278,-0.0664,-0.1113,0.4562,-7.27,32.78,-41.55,334.96,-9.37,-34.68,48.843872,2.353345,91.5,NaN,,11.721,,0 / 19,,2950,2022-01-20 11:26:54:992
6.149,1.183,8.1574,5.4934,1.3683,8.0075,-0.1994,-0.504,-0.1278,-0.0664,-0.1113,0.4562,-7.88,32.4,-41.7,335.2,-8.02,-34.45,48.843872,2.353345,91.5,NaN,,11.721,,0 / 19,,2955,2022-01-20 11:26:54:997
6.149,1.183,8.1574,5.6136,1.1509,7.9582,-0.4373,-0.4937,0.2353,-0.0664,-0.1113,0.4562,-7.88,32.4,-41.7,335.2,-8.02,-34.45,48.843872,2.353345,91.5,NaN,,11.721,,0 / 19,,2961,2022-01-20 11:26:55:003
6.149,1.183,8.1574,5.6136,1.1509,7.9582,-0.4373,-0.4937,0.2353,-0.0664,-0.1113,0.4562,-7.88,32.4,-41.7,335.2,-8.02,-34.45,48.843872,2.353345,91.5,NaN,,11.721,,0 / 19,,2965,2022-01-20 11:26:55:007
6.149,1.183,8.1574,5.6136,1.1509,7.9582,-0.4373,-0.4937,0.2353,-0.0664,-0.1113,0.4562,-7.88,32.4,-41.7,335.2,-8.02,-34.45,48.843872,2.353345,91.5,NaN,,11.721,,0 / 19,,2970,2022-01-20 11:26:55:012
6.149,1.183,8.1574,5.6136,1.1509,7.9582,-0.4373,-0.4937,0.2353,-0.0664,-0.1113,0.4562,-7.88,32.4,-41.7,335.2,-8.02,-34.45,48.843872,2.353345,91.5,NaN,,11.721,,0 / 19,,2975,2022-01-20 11:26:55:017
6.149,1.183,8.1574,5.6136,1.1509,7.9582,-0.4373,-0.4937,0.2353,-0.0664,-0.1113,0.4562,-7.88,32.4,-41.7,335.2,-8.02,-34.45,48.843872,2.353345,91.5,NaN,,11.721,,0 / 19,,2980,2022-01-20 11:26:55:022
6.149,1.183,8.1574,5.6136,1.1509,7.9582,-0.4373,-0.4937,0.2353,-0.0664,-0.1113,0.4562,-7.88,32.4,-41.7,335.2,-8.02,-34.45,48.843872,2.353345,91.5,NaN,,11.721,,0 / 19,,2985,2022-01-20 11:26:55:027
6.149,1.183,8.1574,5.6136,1.1509,7.9582,-0.4373,-0.4937,0.2353,-0.0664,-0.1113,0.4562,-7.88,32.4,-41.7,335.2,-8.02,-34.45,48.843872,2.353345,91.5,NaN,,11.721,,0 / 19,,2990,2022-01-20 11:26:55:032
6.149,1.183,8.1574,5.6136,1.1509,7.9582,-0.4373,-0.4937,0.2353,-0.0664,-0.1113,0.4562,-7.88,32.4,-41.7,335.2,-8.02,-34.45,48.843872,2.353345,91.5,NaN,,11.721,,0 / 19,,2995,2022-01-20 11:26:55:037
6.149,1.183,8.1574,5.6136,1.1509,7.9582,-0.4373,-0.4937,0.2353,-0.0664,-0.1113,0.4562,-7.88,32.4,-41.7,335.2,-8.02,-34.45,48.843872,2.353345,91.5,NaN,,11.721,,0 / 19,,3001,2022-01-20 11:26:55:043
6.149,1.183,8.1574,5.6136,1.1509,7.9582,-0.4373,-0.4937,0.2353,-0.0664,-0.1113,0.4562,-7.88,32.4,-41.7,335.2,-8.02,-34.45,48.843872,2.353345,91.5,NaN,,11.721,,0 / 19,,3005,2022-01-20 11:26:55:047
6.149,1.183,8.1574,5.6136,1.1509,7.9582,-0.4373,-0.4937,0.2353,-0.0664,-0.1113,0.4562,-7.88,32.4,-41.7,335.2,-8.02,-34.45,48.843872,2.353345,91.5,NaN,,11.721,,0 / 19,,3010,2022-01-20 11:26:55:052
6.4041,0.9996,8.7873,5.6136,1.1509,7.9582,-0.4373,-0.4937,0.2353,-0.0635,-0.1196,0.3812,-7.88,32.4,-41.7,335.2,-8.02,-34.45,48.843872,2.353345,91.5,NaN,,11.721,,0 / 19,,3015,2022-01-20 11:26:55:057
6.4041,0.9996,8.7873,5.6136,1.1509,7.9582,-0.4373,-0.4937,0.2353,-0.0635,-0.1196,0.3812,-7.88,32.4,-41.7,335.2,-8.02,-34.45,48.843872,2.353345,91.5,NaN,,11.721,,0 / 19,,3020,2022-01-20 11:26:55:062
6.4041,0.9996,8.7873,5.6136,1.1509,7.9582,-0.4373,-0.4937,0.2353,-0.0635,-0.1196,0.3812,-7.88,32.4,-41.7,335.2,-8.02,-34.45,48.843872,2.353345,91.5,NaN,,11.721,,0 / 19,,3025,2022-01-20 11:26:55:067
6.4041,0.9996,8.7873,5.6136,1.1509,7.9582,-0.4373,-0.4937,0.2353,-0.0635,-0.1196,0.3812,-7.88,32.4,-41.7,335.2,-8.02,-34.45,48.843872,2.353345,91.5,NaN,,11.721,,0 / 19,,3030,2022-01-20 11:26:55:072
6.4041,0.9996,8.7873,5.6136,1.1509,7.9582,-0.4373,-0.4937,0.2353,-0.0635,-0.1196,0.3812,-7.88,32.4,-41.7,335.2,-8.02,-34.45,48.843872,2.353345,91.5,NaN,,11.721,,0 / 19,,3035,2022-01-20 11:26:55:077
