ACCELEROMETER X (m/s²),ACCELEROMETER Y (m/s²),ACCELEROMETER Z (m/s²),GRAVITY X (m/s²),GRAVITY Y (m/s²),GRAVITY Z (m/s²),LINEAR ACCELERATION X (m/s²),LINEAR ACCELERATION Y (m/s²),LINEAR ACCELERATION Z (m/s²),GYROSCOPE X (rad/s),GYROSCOPE Y (rad/s),GYROSCOPE Z (rad/s),MAGNETIC FIELD X (μT),MAGNETIC FIELD Y (μT),MAGNETIC FIELD Z (μT),ORIENTATION Z (azimuth °),ORIENTATION X (pitch °),ORIENTATION Y (roll °),LOCATION Latitude : ,LOCATION Longitude : ,LOCATION Altitude ( m),LOCATION Altitude-google ( m),LOCATION Speed ( Kmh),LOCATION Accuracy ( m),LOCATION ORIENTATION (°),Satellites in range,GPS NMEA,Time since start in ms ,YYYY-MO-DD HH-MI-SS_SSS
-0.2578,-0.3024,9.7158,-0.0805,-0.2911,9.802,-0.1707,-0.0211,-0.024,5.0E-4,-4.0E-4,0.0023,6.45,-17.03,-29.1,198.05,1.68,0.37,48.84389,2.353348,107.27,NaN,0.0,52.528,,4 / 26,,9,2022-01-10 18:38:58:631
-0.2578,-0.3024,9.7158,-0.0805,-0.2911,9.802,-0.1707,-0.0211,-0.024,5.0E-4,-4.0E-4,0.0023,6.45,-17.03,-29.32,197.88,1.7,0.47,48.84389,2.353348,107.27,NaN,0.0,52.528,,4 / 26,,14,2022-01-10 18:38:58:636
-0.2578,-0.3024,9.7158,-0.0877,-0.292,9.8019,-0.1707,-0.0211,-0.024,5.0E-4,-4.0E-4,0.0023,6.45,-17.03,-29.32,197.88,1.7,0.47,48.84389,2.353348,107.27,NaN,0.0,52.528,,4 / 26,,19,2022-01-10 18:38:58:641
-0.2578,-0.3024,9.7158,-0.0877,-0.292,9.8019,-0.1707,-0.0211,-0.024,5.0E-4,-4.0E-4,0.0023,6.45,-17.03,-29.32,197.88,1.7,0.47,48.84389,2.353348,107.27,NaN,0.0,52.528,,4 / 26,,24,2022-01-10 18:38:58:646
-0.2602,-0.3263,9.7397,-0.0877,-0.292,9.8019,-0.1551,-0.0452,0.0306,5.0E-4,-4.0E-4,0.0023,6.45,-17.03,-29.32,197.88,1.7,0.47,48.84389,2.353348,107.27,NaN,0.0,52.528,,4 / 26,,30,2022-01-10 18:38:58:652
-0.2602,-0.3263,9.7397,-0.0877,-0.292,9.8019,-0.1551,-0.0452,0.0306,5.0E-4,-4.0E-4,0.0023,6.45,-17.03,-29.32,197.88,1.7,0.47,48.84389,2.353348,107.27,NaN,0.0,52.528,,4 / 26,,34,2022-01-10 18:38:58:656
-0.2602,-0.3263,9.7397,-0.0877,-0.292,9.8019,-0.1551,-0.0452,0.0306,-5.0E-4,-4.0E-4,1.0E-4,6.45,-17.03,-29.32,197.88,1.7,0.47,48.84389,2.353348,107.27,NaN,0.0,52.528,,4 / 26,,39,2022-01-10 18:38:58:661
-0.2602,-0.3263,9.7397,-0.0948,-0.2933,9.8018,-0.1551,-0.0452,0.0306,-5.0E-4,-4.0E-4,1.0E-4,6.15,-17.25,-29.78,197.88,1.7,0.47,48.84389,2.353348,107.27,NaN,0.0,52.528,,4 / 26,,44,2022-01-10 18:38:58:666
-0.2602,-0.3263,9.7397,-0.0948,-0.2933,9.8018,-0.1551,-0.0452,0.0306,-5.0E-4,-4.0E-4,1.0E-4,6.15,-17.25,-29.78,197.88,1.7,0.47,48.84389,2.353348,107.27,NaN,0.0,52.528,,4 / 26,,49,2022-01-10 18:38:58:671
-0.2602,-0.3263,9.7397,-0.0948,-0.2933,9.8018,-0.1551,-0.0452,0.0306,-5.0E-4,-4.0E-4,1.0E-4,6.15,-17.25,-29.78,197.88,1.7,0.47,48.84389,2.353348,107.27,NaN,0.0,52.528,,4 / 26,,54,2022-01-10 18:38:58:676
-0.2841,-0.3359,9.7205,-0.0948,-0.2933,9.8018,-0.1388,-0.0246,-0.0063,-5.0E-4,-4.0E-4,1.0E-4,6.15,-17.25,-29.78,197.88,1.7,0.47,48.84389,2.353348,107.27,NaN,0.0,52.528,,4 / 26,,61,2022-01-10 18:38:58:683
-0.2841,-0.3359,9.7205,-0.0948,-0.2933,9.8018,-0.1388,-0.0246,-0.0063,-5.0E-4,-4.0E-4,1.0E-4,6.15,-17.25,-29.78,197.88,1.7,0.47,48.84389,2.353348,107.27,NaN,0.0,52.528,,4 / 26,,65,2022-01-10 18:38:58:687
-0.2841,-0.3359,9.7205,-0.0948,-0.2933,9.8018,-0.1388,-0.0246,-0.0063,5.0E-4,0.0017,-0.002,6.15,-17.25,-29.78,197.88,1.7,0.47,48.84389,2.353348,107.27,NaN,0.0,52.528,,4 / 26,,70,2022-01-10 18:38:58:692
-0.2841,-0.3359,9.7205,-0.1021,-0.2945,9.8017,-0.1388,-0.0246,-0.0063,5.0E-4,0.0017,-0.002,6.15,-17.25,-29.78,197.88,1.7,0.47,48.84389,2.353348,107.27,NaN,0.0,52.528,,4 / 26,,75,2022-01-10 18:38:58:697
-0.2841,-0.3359,9.7205,-0.1021,-0.2945,9.8017,-0.1388,-0.0246,-0.0063,5.0E-4,0.0017,-0.002,6.15,-17.25,-29.78,197.88,1.7,0.47,48.84389,2.353348,107.27,NaN,0.0,52.528,,4 / 26,,80,2022-01-10 18:38:58:702
-0.2483,-0.3215,9.6918,-0.1021,-0.2945,9.8017,-0.1388,-0.0246,-0.0063,5.0E-4,0.0017,-0.002,6.68,-17.03,-29.55,200.49,1.72,0.6,48.84389,2.353348,107.27,NaN,0.0,52.528,,4 / 26,,85,2022-01-10 18:38:58:707
-0.2483,-0.3215,9.6918,-0.1021,-0.2945,9.8017,-0.1502,0.0192,-0.0138,5.0E-4,0.0017,-0.002,6.68,-17.03,-29.55,200.49,1.72,0.6,48.84389,2.353348,107.27,NaN,0.0,52.528,,4 / 26,,90,2022-01-10 18:38:58:712
-0.2483,-0.3215,9.6918,-0.1021,-0.2945,9.8017,-0.1502,0.0192,-0.0138,5.0E-4,0.0017,-0.002,6.68,-17.03,-29.55,200.49,1.72,0.6,48.84389,2.353348,107.27,NaN,0.0,52.528,,4 / 26,,99,2022-01-10 18:38:58:721
-0.2483,-0.3215,9.6918,-0.1021,-0.2945,9.8017,-0.1502,0.0192,-0.0138,5.0E-4,0.0017,-0.002,6.68,-17.03,-29.55,200.49,1.72,0.6,48.84389,2.353348,107.27,NaN,0.0,52.528,,4 / 26,,99,2022-01-10 18:38:58:721
-0.2483,-0.3215,9.6918,-0.1098,-0.2954,9.8016,-0.1502,0.0192,-0.0138,5.0E-4,-0.0015,-9.0E-4,6.68,-17.03,-29.55,200.49,1.72,0.6,48.84389,2.353348,107.27,NaN,0.0,52.528,,4 / 26,,105,2022-01-10 18:38:58:727
-0.2483,-0.3215,9.6918,-0.1098,-0.2954,9.8016,-0.1502,0.0192,-0.0138,5.0E-4,-0.0015,-9.0E-4,6.68,-17.03,-29.55,200.49,1.72,0.6,48.84389,2.353348,107.27,NaN,0.0,52.528,,4 / 26,,111,2022-01-10 18:38:58:733
-0.2506,-0.3311,9.7421,-0.1098,-0.2954,9.8016,-0.1502,0.0192,-0.0138,5.0E-4,-0.0015,-9.0E-4,6.75,-17.25,-29.4,200.49,1.72,0.6,48.84389,2.353348,107.27,NaN,0.0,52.528,,4 / 26,,115,2022-01-10 18:38:58:737
-0.2506,-0.3311,9.7421,-0.1098,-0.2954,9.8016,-0.1408,-0.0343,0.0228,5.0E-4,-0.0015,-9.0E-4,6.75,-17.25,-29.4,200.49,1.72,0.6,48.84389,2.353348,107.27,NaN,0.0,52.528,,4 / 26,,119,2022-01-10 18:38:58:741
-0.2506,-0.3311,9.7421,-0.1098,-0.2954,9.8016,-0.1408,-0.0343,0.0228,5.0E-4,-0.0015,-9.0E-4,6.75,-17.25,-29.4,200.49,1.72,0.6,48.84389,2.353348,107.27,NaN,0.0,52.528,,4 / 26,,124,2022-01-10 18:38:58:746
-0.2506,-0.3311,9.7421,-0.1098,-0.2954,9.8016,-0.1408,-0.0343,0.0228,5.0E-4,-0.0015,-9.0E-4,6.75,-17.25,-29.4,200.49,1.72,0.6,48.84389,2.353348,107.27,NaN,0.0,52.528,,4 / 26,,130,2022-01-10 18:38:58:752
-0.2506,-0.3311,9.7421,-0.1166,-0.2972,9.8015,-0.1408,-0.0343,0.0228,-5.0E-4,-0.0015,-0.0041,6.75,-17.25,-29.4,200.49,1.72,0.6,48.84389,2.353348,107.27,NaN,0.0,52.528,,4 / 26,,134,2022-01-10 18:38:58:756
-0.265,-0.2785,9.6823,-0.1166,-0.2972,9.8015,-0.1408,-0.0343,0.0228,-5.0E-4,-0.0015,-0.0041,6.75,-17.25,-29.4,200.49,1.72,0.6,48.84389,2.353348,107.27,NaN,0.0,52.528,,4 / 26,,141,2022-01-10 18:38:58:763
-0.265,-0.2785,9.6823,-0.1166,-0.2972,9.8015,-0.1408,-0.0343,0.0228,-5.0E-4,-0.0015,-0.0041,6.75,-17.25,-29.4,200.49,1.72,0.6,48.84389,2.353348,107.27,NaN,0.0,52.528,,4 / 26,,144,2022-01-10 18:38:58:766
-0.265,-0.2785,9.6823,-0.1166,-0.2972,9.8015,-0.1306,-0.0017,-0.0156,-5.0E-4,-0.0015,-0.0041,6.75,-17.25,-29.4,200.49,1.72,0.6,48.84389,2.353348,107.27,NaN,0.0,52.528,,4 / 26,,150,2022-01-10 18:38:58:772
-0.265,-0.2785,9.6823,-0.1166,-0.2972,9.8015,-0.1306,-0.0017,-0.0156,-5.0E-4,-0.0015,-0.0041,5.85,-17.78,-29.63,196.62,1.74,0.68,48.84389,2.353348,107.27,NaN,0.0,52.528,,4 / 26,,156,2022-01-10 18:38:58:778
-0.265,-0.2785,9.6823,-0.1166,-0.2972,9.8015,-0.1306,-0.0017,-0.0156,-5.0E-4,-0.0015,-0.0041,5.85,-17.78,-29.63,196.62,1.74,0.68,48.84389,2.353348,107.27,NaN,0.0,52.528,,4 / 26,,159,2022-01-10 18:38:58:781
-0.265,-0.2785,9.6823,-0.1238,-0.2977,9.8013,-0.1306,-0.0017,-0.0156,-5.0E-4,-0.0047,-0.002,5.85,-17.78,-29.63,196.62,1.74,0.68,48.84389,2.353348,107.27,NaN,0.0,52.528,,4 / 26,,165,2022-01-10 18:38:58:787
-0.2267,-0.3359,9.6631,-0.1238,-0.2977,9.8013,-0.1306,-0.0017,-0.0156,-5.0E-4,-0.0047,-0.002,5.85,-17.78,-29.63,196.62,1.74,0.68,48.84389,2.353348,107.27,NaN,0.0,52.528,,4 / 26,,169,2022-01-10 18:38:58:791
-0.2267,-0.3359,9.6631,-0.1238,-0.2977,9.8013,-0.1306,-0.0017,-0.0156,-5.0E-4,-0.0047,-0.002,5.85,-17.78,-29.63,196.62,1.74,0.68,48.84389,2.353348,107.27,NaN,0.0,52.528,,4 / 26,,175,2022-01-10 18:38:58:797
-0.2267,-0.3359,9.6631,-0.1238,-0.2977,9.8013,-0.1168,-0.037,-0.0097,-5.0E-4,-0.0047,-0.002,5.85,-17.78,-29.63,196.62,1.74,0.68,48.84389,2.353348,107.27,NaN,0.0,52.528,,4 / 26,,180,2022-01-10 18:38:58:802
-0.2267,-0.3359,9.6631,-0.1238,-0.2977,9.8013,-0.1168,-0.037,-0.0097,-5.0E-4,-0.0047,-0.002,5.4,-17.55,-29.25,196.62,1.74,0.68,48.84389,2.353348,107.27,NaN,0.0,52.528,,4 / 26,,185,2022-01-10 18:38:58:807
-0.2267,-0.3359,9.6631,-0.1238,-0.2977,9.8013,-0.1168,-0.037,-0.0097,-5.0E-4,-0.0047,-0.002,5.4,-17.55,-29.25,196.62,1.74,0.68,48.84389,2.353348,107.27,NaN,0.0,52.528,,4 / 26,,189,2022-01-10 18:38:58:811
-0.2411,-0.3311,9.6679,-0.1238,-0.2977,9.8013,-0.1168,-0.037,-0.0097,-5.0E-4,-0.0047,-0.002,5.4,-17.55,-29.25,196.62,1.74,0.68,48.84389,2.353348,107.27,NaN,0.0,52.528,,4 / 26,,194,2022-01-10 18:38:58:816
-0.2411,-0.3311,9.6679,-0.1294,-0.2986,9.8012,-0.1168,-0.037,-0.0097,5.0E-4,0.0028,-0.002,5.4,-17.55,-29.25,196.62,1.74,0.68,48.84389,2.353348,107.27,NaN,0.0,52.528,,4 / 26,,201,2022-01-10 18:38:58:823
-0.2411,-0.3311,9.6679,-0.1294,-0.2986,9.8012,-0.1168,-0.037,-0.0097,5.0E-4,0.0028,-0.002,5.4,-17.55,-29.25,196.62,1.74,0.68,48.84389,2.353348,107.27,NaN,0.0,52.528,,4 / 26,,204,2022-01-10 18:38:58:826
-0.2411,-0.3311,9.6679,-0.1294,-0.2986,9.8012,-0.1168,-0.037,-0.0097,5.0E-4,0.0028,-0.002,5.4,-17.55,-29.25,196.62,1.74,0.68,48.84389,2.353348,107.27,NaN,0.0,52.528,,4 / 26,,210,2022-01-10 18:38:58:832
-0.2411,-0.3311,9.6679,-0.1294,-0.2986,9.8012,-0.1407,-0.0134,-0.0117,5.0E-4,0.0028,-0.002,6.08,-16.87,-29.25,197.44,1.74,0.76,48.84389,2.353348,107.27,NaN,0.0,52.528,,4 / 26,,215,2022-01-10 18:38:58:837
-0.2746,-0.3287,9.699,-0.1294,-0.2986,9.8012,-0.1407,-0.0134,-0.0117,5.0E-4,0.0028,-0.002,6.08,-16.87,-29.25,197.44,1.74,0.76,48.84389,2.353348,107.27,NaN,0.0,52.528,,4 / 26,,219,2022-01-10 18:38:58:841
-0.2746,-0.3287,9.699,-0.1359,-0.2993,9.8011,-0.1407,-0.0134,-0.0117,-0.0027,0.0017,0.0023,6.08,-16.87,-29.25,197.44,1.74,0.76,48.84389,2.353348,107.27,NaN,0.0,52.528,,4 / 26,,225,2022-01-10 18:38:58:847
-0.2746,-0.3287,9.699,-0.1359,-0.2993,9.8011,-0.1407,-0.0134,-0.0117,-0.0027,0.0017,0.0023,6.08,-16.87,-29.25,197.44,1.74,0.76,48.84389,2.353348,107.27,NaN,0.0,52.528,,4 / 26,,232,2022-01-10 18:38:58:854
-0.2746,-0.3287,9.699,-0.1359,-0.2993,9.8011,-0.1407,-0.0134,-0.0117,-0.0027,0.0017,0.0023,6.08,-16.87,-29.25,197.44,1.74,0.76,48.84389,2.353348,107.27,NaN,0.0,52.528,,4 / 26,,235,2022-01-10 18:38:58:857
-0.2746,-0.3287,9.699,-0.1359,-0.2993,9.8011,-0.1407,-0.0134,-0.0117,-0.0027,0.0017,0.0023,6.08,-16.87,-29.25,197.44,1.74,0.76,48.84389,2.353348,107.27,NaN,0.0,52.528,,4 / 26,,240,2022-01-10 18:38:58:862
-0.2746,-0.3287,9.699,-0.1359,-0.2993,9.8011,-0.1252,-0.0186,0.0209,-0.0027,0.0017,0.0023,6.08,-16.87,-29.25,197.44,1.74,0.76,48.84389,2.353348,107.27,NaN,0.0,52.528,,4 / 26,,245,2022-01-10 18:38:58:867
-0.265,-0.3048,9.6894,-0.1359,-0.2993,9.8011,-0.1252,-0.0186,0.0209,-0.0027,0.0017,0.0023,6.08,-16.87,-29.25,197.44,1.74,0.76,48.84389,2.353348,107.27,NaN,0.0,52.528,,4 / 26,,250,2022-01-10 18:38:58:872
-0.265,-0.3048,9.6894,-0.1359,-0.2993,9.8011,-0.1252,-0.0186,0.0209,-0.0027,0.0017,0.0023,6.45,-16.8,-29.1,197.44,1.74,0.76,48.84389,2.353348,107.27,NaN,0.0,52.528,,4 / 26,,255,2022-01-10 18:38:58:877
-0.265,-0.3048,9.6894,-0.1419,-0.3005,9.801,-0.1252,-0.0186,0.0209,0.0037,-0.0036,1.0E-4,6.45,-16.8,-29.1,197.44,1.74,0.76,48.84389,2.353348,107.27,NaN,0.0,52.528,,4 / 26,,259,2022-01-10 18:38:58:881
-0.265,-0.3048,9.6894,-0.1419,-0.3005,9.801,-0.1252,-0.0186,0.0209,0.0037,-0.0036,1.0E-4,6.45,-16.8,-29.1,197.44,1.74,0.76,48.84389,2.353348,107.27,NaN,0.0,52.528,,4 / 26,,266,2022-01-10 18:38:58:888
-0.265,-0.3048,9.6894,-0.1419,-0.3005,9.801,-0.1252,-0.0186,0.0209,0.0037,-0.0036,1.0E-4,6.45,-16.8,-29.1,197.44,1.74,0.76,48.84389,2.353348,107.27,NaN,0.0,52.528,,4 / 26,,271,2022-01-10 18:38:58:893
-0.2602,-0.3407,9.6942,-0.1419,-0.3005,9.801,-0.0983,-0.0188,0.005,0.0037,-0.0036,1.0E-4,6.45,-16.8,-29.1,197.44,1.74,0.76,48.84389,2.353348,107.27,NaN,0.0,52.528,,4 / 26,,274,2022-01-10 18:38:58:896
-0.2602,-0.3407,9.6942,-0.1419,-0.3005,9.801,-0.0983,-0.0188,0.005,0.0037,-0.0036,1.0E-4,6.45,-16.8,-29.1,197.44,1.74,0.76,48.84389,2.353348,107.27,NaN,0.0,52.528,,4 / 26,,280,2022-01-10 18:38:58:902
-0.2602,-0.3407,9.6942,-0.1461,-0.3013,9.8009,-0.0983,-0.0188,0.005,0.0037,-0.0036,1.0E-4,6.45,-16.8,-29.1,197.44,1.74,0.76,48.84389,2.353348,107.27,NaN,0.0,52.528,,4 / 26,,284,2022-01-10 18:38:58:906
-0.2602,-0.3407,9.6942,-0.1461,-0.3013,9.8009,-0.0983,-0.0188,0.005,-0.0016,-4.0E-4,0.0023,6.45,-16.8,-29.1,197.44,1.74,0.76,48.84389,2.353348,107.27,NaN,0.0,52.528,,4 / 26,,291,2022-01-10 18:38:58:913
-0.2602,-0.3407,9.6942,-0.1461,-0.3013,9.8009,-0.0983,-0.0188,0.005,-0.0016,-4.0E-4,0.0023,6.6,-17.4,-29.25,200.16,1.76,0.85,48.84389,2.353348,107.27,NaN,0.0,52.528,,4 / 26,,294,2022-01-10 18:38:58:916
-0.2746,-0.3096,9.6966,-0.1461,-0.3013,9.8009,-0.0983,-0.0188,0.005,-0.0016,-4.0E-4,0.0023,6.6,-17.4,-29.25,200.16,1.76,0.85,48.84389,2.353348,107.27,NaN,0.0,52.528,,4 / 26,,300,2022-01-10 18:38:58:922
-0.2746,-0.3096,9.6966,-0.1461,-0.3013,9.8009,-0.0884,0.0024,-7.0E-4,-0.0016,-4.0E-4,0.0023,6.6,-17.4,-29.25,200.16,1.76,0.85,48.84389,2.353348,107.27,NaN,0.0,52.528,,4 / 26,,305,2022-01-10 18:38:58:927
-0.2746,-0.3096,9.6966,-0.1461,-0.3013,9.8009,-0.0884,0.0024,-7.0E-4,-0.0016,-4.0E-4,0.0023,6.6,-17.4,-29.25,200.16,1.76,0.85,48.84389,2.353348,107.27,NaN,0.0,52.528,,4 / 26,,310,2022-01-10 18:38:58:932
-0.2746,-0.3096,9.6966,-0.1509,-0.3016,9.8009,-0.0884,0.0024,-7.0E-4,0.0037,-4.0E-4,-9.0E-4,6.6,-17.4,-29.25,200.16,1.76,0.85,48.84389,2.353348,107.27,NaN,0.0,52.528,,4 / 26,,316,2022-01-10 18:38:58:938
-0.2746,-0.3096,9.6966,-0.1509,-0.3016,9.8009,-0.0884,0.0024,-7.0E-4,0.0037,-4.0E-4,-9.0E-4,6.6,-17.4,-29.25,200.16,1.76,0.85,48.84389,2.353348,107.27,NaN,0.0,52.528,,4 / 26,,320,2022-01-10 18:38:58:942
-0.2746,-0.3096,9.6966,-0.1509,-0.3016,9.8009,-0.0884,0.0024,-7.0E-4,0.0037,-4.0E-4,-9.0E-4,6.6,-17.4,-29.25,200.16,1.76,0.85,48.84389,2.353348,107.27,NaN,0.0,52.528,,4 / 26,,325,2022-01-10 18:38:58:947
-0.2124,-0.3311,9.7301,-0.1509,-0.3016,9.8009,-0.0884,0.0024,-7.0E-4,0.0037,-4.0E-4,-9.0E-4,6.6,-17.4,-29.25,200.16,1.76,0.85,48.84389,2.353348,107.27,NaN,0.0,52.528,,4 / 26,,330,2022-01-10 18:38:58:952
-0.2124,-0.3311,9.7301,-0.1509,-0.3016,9.8009,-0.0849,-0.0212,0.0327,0.0037,-4.0E-4,-9.0E-4,6.83,-17.78,-29.4,200.16,1.76,0.85,48.84389,2.353348,107.27,NaN,0.0,52.528,,4 / 26,,335,2022-01-10 18:38:58:957
-0.2124,-0.3311,9.7301,-0.1509,-0.3016,9.8009,-0.0849,-0.0212,0.0327,0.0037,-4.0E-4,-9.0E-4,6.83,-17.78,-29.4,200.16,1.76,0.85,48.84389,2.353348,107.27,NaN,0.0,52.528,,4 / 26,,339,2022-01-10 18:38:58:961
-0.2124,-0.3311,9.7301,-0.1558,-0.3023,9.8008,-0.0849,-0.0212,0.0327,0.0037,-4.0E-4,-9.0E-4,6.83,-17.78,-29.4,200.16,1.76,0.85,48.84389,2.353348,107.27,NaN,0.0,52.528,,4 / 26,,344,2022-01-10 18:38:58:966
-0.2124,-0.3311,9.7301,-0.1558,-0.3023,9.8008,-0.0849,-0.0212,0.0327,5.0E-4,-4.0E-4,1.0E-4,6.83,-17.78,-29.4,200.16,1.76,0.85,48.84389,2.353348,107.27,NaN,0.0,52.528,,4 / 26,,350,2022-01-10 18:38:58:972
-0.2124,-0.3311,9.7301,-0.1558,-0.3023,9.8008,-0.0849,-0.0212,0.0327,5.0E-4,-4.0E-4,1.0E-4,6.83,-17.78,-29.4,200.16,1.76,0.85,48.84389,2.353348,107.27,NaN,0.0,52.528,,4 / 26,,355,2022-01-10 18:38:58:977
-0.2985,-0.3096,9.7086,-0.1558,-0.3023,9.8008,-0.0849,-0.0212,0.0327,5.0E-4,-4.0E-4,1.0E-4,6.83,-17.78,-29.4,200.16,1.76,0.85,48.84389,2.353348,107.27,NaN,0.0,52.528,,4 / 26,,360,2022-01-10 18:38:58:982
-0.2985,-0.3096,9.7086,-0.1558,-0.3023,9.8008,-0.1203,-0.0072,-0.0147,5.0E-4,-4.0E-4,1.0E-4,6.0,-17.62,-29.25,196.34,1.77,0.91,48.84389,2.353348,107.27,NaN,0.0,52.528,,4 / 26,,365,2022-01-10 18:38:58:987
-0.2985,-0.3096,9.7086,-0.1558,-0.3023,9.8008,-0.1203,-0.0072,-0.0147,5.0E-4,-4.0E-4,1.0E-4,6.0,-17.62,-29.25,196.34,1.77,0.91,48.84389,2.353348,107.27,NaN,0.0,52.528,,4 / 26,,369,2022-01-10 18:38:58:991
-0.2985,-0.3096,9.7086,-0.1615,-0.303,9.8006,-0.1203,-0.0072,-0.0147,5.0E-4,-4.0E-4,1.0E-4,6.0,-17.62,-29.25,196.34,1.77,0.91,48.84389,2.353348,107.27,NaN,0.0,52.528,,4 / 26,,375,2022-01-10 18:38:58:997
-0.2985,-0.3096,9.7086,-0.1615,-0.303,9.8006,-0.1203,-0.0072,-0.0147,5.0E-4,-4.0E-4,1.0E-4,6.0,-17.62,-29.25,196.34,1.77,0.91,48.84389,2.353348,107.27,NaN,0.0,52.528,,4 / 26,,379,2022-01-10 18:38:59:001
-0.2459,-0.3359,9.6556,-0.1615,-0.303,9.8006,-0.1203,-0.0072,-0.0147,0.0037,-0.0025,1.0E-4,6.0,-17.62,-29.25,196.34,1.77,0.91,48.84389,2.353348,107.27,NaN,0.0,52.528,,4 / 26,,385,2022-01-10 18:38:59:007
-0.2459,-0.3359,9.6556,-0.1615,-0.303,9.8006,-0.1203,-0.0072,-0.0147,0.0037,-0.0025,1.0E-4,6.0,-17.62,-29.25,196.34,1.77,0.91,48.84389,2.353348,107.27,NaN,0.0,52.528,,4 / 26,,390,2022-01-10 18:38:59:012
-0.2459,-0.3359,9.6556,-0.1615,-0.303,9.8006,-0.1203,-0.0072,-0.0147,0.0037,-0.0025,1.0E-4,5.93,-17.33,-29.25,196.34,1.77,0.91,48.84389,2.353348,107.27,NaN,0.0,52.528,,4 / 26,,394,2022-01-10 18:38:59:016
-0.2459,-0.3359,9.6556,-0.1615,-0.303,9.8006,-0.1275,-0.0161,0.0262,0.0037,-0.0025,1.0E-4,5.93,-17.33,-29.25,196.34,1.77,0.91,48.84389,2.353348,107.27,NaN,0.0,52.528,,4 / 26,,400,2022-01-10 18:38:59:022
-0.2459,-0.3359,9.6556,-0.1656,-0.3039,9.8005,-0.1275,-0.0161,0.0262,0.0037,-0.0025,1.0E-4,5.93,-17.33,-29.25,196.34,1.77,0.91,48.84389,2.353348,107.27,NaN,0.0,52.528,,4 / 26,,405,2022-01-10 18:38:59:027
-0.2459,-0.3359,9.6556,-0.1656,-0.3039,9.8005,-0.1275,-0.0161,0.0262,0.0037,-0.0025,1.0E-4,5.93,-17.33,-29.25,196.34,1.77,0.91,48.84389,2.353348,107.27,NaN,0.0,52.528,,4 / 26,,410,2022-01-10 18:38:59:032
-0.2387,-0.3072,9.7253,-0.1656,-0.3039,9.8005,-0.1275,-0.0161,0.0262,5.0E-4,-0.0015,0.0023,5.93,-17.33,-29.25,196.34,1.77,0.91,48.84389,2.353348,107.27,NaN,0.0,52.528,,4 / 26,,414,2022-01-10 18:38:59:036
-0.2387,-0.3072,9.7253,-0.1656,-0.3039,9.8005,-0.1275,-0.0161,0.0262,5.0E-4,-0.0015,0.0023,5.93,-17.33,-29.25,196.34,1.77,0.91,48.84389,2.353348,107.27,NaN,0.0,52.528,,4 / 26,,419,2022-01-10 18:38:59:041
-0.2387,-0.3072,9.7253,-0.1656,-0.3039,9.8005,-0.1275,-0.0161,0.0262,5.0E-4,-0.0015,0.0023,5.93,-17.33,-29.25,196.34,1.77,0.91,48.84389,2.353348,107.27,NaN,0.0,52.528,,4 / 26,,425,2022-01-10 18:38:59:047
-0.2387,-0.3072,9.7253,-0.169,-0.3047,9.8005,-0.0774,-0.0342,-0.0205,5.0E-4,-0.0015,0.0023,5.93,-17.33,-29.25,196.34,1.77,0.91,48.84389,2.353348,107.27,NaN,0.0,52.528,,4 / 26,,430,2022-01-10 18:38:59:052
-0.2387,-0.3072,9.7253,-0.169,-0.3047,9.8005,-0.0774,-0.0342,-0.0205,5.0E-4,-0.0015,0.0023,6.0,-17.18,-29.1,197.08,1.78,0.99,48.84389,2.353348,107.27,NaN,0.0,52.528,,4 / 26,,435,2022-01-10 18:38:59:057
-0.2387,-0.3072,9.7253,-0.169,-0.3047,9.8005,-0.0774,-0.0342,-0.0205,5.0E-4,-0.0015,0.0023,6.0,-17.18,-29.1,197.08,1.78,0.99,48.84389,2.353348,107.27,NaN,0.0,52.528,,4 / 26,,439,2022-01-10 18:38:59:061
-0.2506,-0.3048,9.6556,-0.169,-0.3047,9.8005,-0.0774,-0.0342,-0.0205,5.0E-4,-0.0015,0.0023,6.0,-17.18,-29.1,197.08,1.78,0.99,48.84389,2.353348,107.27,NaN,0.0,52.528,,4 / 26,,444,2022-01-10 18:38:59:066
-0.2506,-0.3048,9.6556,-0.169,-0.3047,9.8005,-0.0774,-0.0342,-0.0205,-5.0E-4,-0.0025,0.0012,6.0,-17.18,-29.1,197.08,1.78,0.99,48.84389,2.353348,107.27,NaN,0.0,52.528,,4 / 26,,450,2022-01-10 18:38:59:072
-0.2506,-0.3048,9.6556,-0.169,-0.3047,9.8005,-0.0774,-0.0342,-0.0205,-5.0E-4,-0.0025,0.0012,6.0,-17.18,-29.1,197.08,1.78,0.99,48.84389,2.353348,107.27,NaN,0.0,52.528,,4 / 26,,454,2022-01-10 18:38:59:076
-0.2506,-0.3048,9.6556,-0.1732,-0.305,9.8004,-0.1199,-0.0123,-0.018,-5.0E-4,-0.0025,0.0012,6.0,-17.18,-29.1,197.08,1.78,0.99,48.84389,2.353348,107.27,NaN,0.0,52.528,,4 / 26,,460,2022-01-10 18:38:59:082
-0.2506,-0.3048,9.6556,-0.1732,-0.305,9.8004,-0.1199,-0.0123,-0.018,-5.0E-4,-0.0025,0.0012,6.08,-17.4,-29.78,197.08,1.78,0.99,48.84389,2.353348,107.27,NaN,0.0,52.528,,4 / 26,,464,2022-01-10 18:38:59:086
-0.2124,-0.355,9.7205,-0.1732,-0.305,9.8004,-0.1199,-0.0123,-0.018,-5.0E-4,-0.0025,0.0012,6.08,-17.4,-29.78,197.08,1.78,0.99,48.84389,2.353348,107.27,NaN,0.0,52.528,,4 / 26,,469,2022-01-10 18:38:59:091
-0.2124,-0.355,9.7205,-0.1732,-0.305,9.8004,-0.1199,-0.0123,-0.018,-5.0E-4,-0.0025,0.0012,6.08,-17.4,-29.78,197.08,1.78,0.99,48.84389,2.353348,107.27,NaN,0.0,52.528,,4 / 26,,474,2022-01-10 18:38:59:096
-0.2124,-0.355,9.7205,-0.1732,-0.305,9.8004,-0.1199,-0.0123,-0.018,5.0E-4,-4.0E-4,-9.0E-4,6.08,-17.4,-29.78,197.08,1.78,0.99,48.84389,2.353348,107.27,NaN,0.0,52.528,,4 / 26,,482,2022-01-10 18:38:59:104
-0.2124,-0.355,9.7205,-0.1732,-0.305,9.8004,-0.1199,-0.0123,-0.018,5.0E-4,-4.0E-4,-9.0E-4,6.08,-17.4,-29.78,197.08,1.78,0.99,48.84389,2.353348,107.27,NaN,0.0,52.528,,4 / 26,,485,2022-01-10 18:38:59:107
-0.2124,-0.355,9.7205,-0.1732,-0.305,9.8004,-0.1199,-0.0123,-0.018,5.0E-4,-4.0E-4,-9.0E-4,6.08,-17.4,-29.78,197.08,1.78,0.99,48.84389,2.353348,107.27,NaN,0.0,52.528,,4 / 26,,489,2022-01-10 18:38:59:111
-0.2124,-0.355,9.7205,-0.1732,-0.305,9.8004,-0.1199,-0.0123,-0.018,5.0E-4,-4.0E-4,-9.0E-4,6.08,-17.4,-29.78,197.08,1.78,0.99,48.84389,2.353348,107.27,NaN,0.0,52.528,,4 / 26,,495,2022-01-10 18:38:59:117
-0.2578,-0.2952,9.6461,-0.177,-0.3059,9.8003,-0.1114,-0.0222,-0.0148,5.0E-4,-4.0E-4,-9.0E-4,5.85,-17.18,-30.22,196.93,1.79,1.03,48.84389,2.353348,107.27,NaN,0.0,52.528,,4 / 26,,502,2022-01-10 18:38:59:124
-0.2578,-0.2952,9.6461,-0.177,-0.3059,9.8003,-0.1114,-0.0222,-0.0148,5.0E-4,-4.0E-4,-9.0E-4,5.85,-17.18,-30.22,196.93,1.79,1.03,48.84389,2.353348,107.27,NaN,0.0,52.528,,4 / 26,,505,2022-01-10 18:38:59:127
-0.2124,-0.3335,9.6799,-0.182,-0.306,9.8002,-0.0824,-0.0029,-0.0357,5.0E-4,0.0017,0.0012,6.6,-17.03,-30.3,196.93,1.79,1.03,48.84389,2.353348,107.27,NaN,0.0,52.528,,4 / 26,,558,2022-01-10 18:38:59:180
-0.2124,-0.3335,9.6799,-0.182,-0.306,9.8002,-0.0824,-0.0029,-0.0357,5.0E-4,0.0017,0.0012,6.6,-17.03,-30.3,196.93,1.79,1.03,48.84389,2.353348,107.27,NaN,0.0,52.528,,4 / 26,,560,2022-01-10 18:38:59:182
-0.2124,-0.3335,9.6799,-0.182,-0.306,9.8002,-0.0824,-0.0029,-0.0357,5.0E-4,0.0017,0.0012,6.6,-17.03,-30.3,196.93,1.79,1.03,48.84389,2.353348,107.27,NaN,0.0,52.528,,4 / 26,,560,2022-01-10 18:38:59:182
-0.2124,-0.3335,9.6799,-0.182,-0.306,9.8002,-0.0824,-0.0029,-0.0357,5.0E-4,0.0017,0.0012,6.6,-17.03,-30.3,196.93,1.79,1.03,48.84389,2.353348,107.27,NaN,0.0,52.528,,4 / 26,,560,2022-01-10 18:38:59:182
-0.2124,-0.3335,9.6799,-0.182,-0.306,9.8002,-0.0824,-0.0029,-0.0357,5.0E-4,0.0017,0.0012,6.6,-17.03,-30.3,196.93,1.79,1.03,48.84389,2.353348,107.27,NaN,0.0,52.528,,4 / 26,,561,2022-01-10 18:38:59:183
-0.2124,-0.3335,9.6799,-0.182,-0.306,9.8002,-0.0824,-0.0029,-0.0357,5.0E-4,0.0017,0.0012,6.6,-17.03,-30.3,196.93,1.79,1.03,48.84389,2.353348,107.27,NaN,0.0,52.528,,4 / 26,,561,2022-01-10 18:38:59:183
-0.2124,-0.3335,9.6799,-0.182,-0.306,9.8002,-0.0824,-0.0029,-0.0357,5.0E-4,0.0017,0.0012,6.6,-17.03,-30.3,196.93,1.79,1.03,48.84389,2.353348,107.27,NaN,0.0,52.528,,4 / 26,,561,2022-01-10 18:38:59:183
-0.2124,-0.3335,9.6799,-0.182,-0.306,9.8002,-0.0824,-0.0029,-0.0357,5.0E-4,0.0017,0.0012,6.6,-17.03,-30.3,196.93,1.79,1.03,48.84389,2.353348,107.27,NaN,0.0,52.528,,4 / 26,,561,2022-01-10 18:38:59:183
-0.2124,-0.3335,9.6799,-0.182,-0.306,9.8002,-0.0824,-0.0029,-0.0357,5.0E-4,0.0017,0.0012,6.6,-17.03,-30.3,196.93,1.79,1.03,48.84389,2.353348,107.27,NaN,0.0,52.528,,4 / 26,,561,2022-01-10 18:38:59:183
-0.2124,-0.3335,9.6799,-0.182,-0.306,9.8002,-0.0824,-0.0029,-0.0357,5.0E-4,0.0017,0.0012,6.6,-17.03,-30.3,196.93,1.79,1.03,48.84389,2.353348,107.27,NaN,0.0,52.528,,4 / 26,,561,2022-01-10 18:38:59:183
-0.2124,-0.3335,9.6799,-0.182,-0.306,9.8002,-0.0824,-0.0029,-0.0357,5.0E-4,0.0017,0.0012,6.6,-17.03,-30.3,196.93,1.79,1.03,48.84389,2.353348,107.27,NaN,0.0,52.528,,4 / 26,,561,2022-01-10 18:38:59:183
-0.2124,-0.3335,9.6799,-0.1858,-0.3066,9.8001,-0.0451,-0.0143,-0.0307,5.0E-4,0.0017,0.0012,6.6,-17.03,-30.3,196.93,1.79,1.03,48.84389,2.353348,107.27,NaN,0.0,52.528,,4 / 26,,565,2022-01-10 18:38:59:187
-0.2124,-0.3335,9.6799,-0.1858,-0.3066,9.8001,-0.0451,-0.0143,-0.0307,5.0E-4,0.0017,0.0012,6.6,-17.03,-30.3,196.93,1.79,1.03,48.84389,2.353348,107.27,NaN,0.0,52.528,,4 / 26,,570,2022-01-10 18:38:59:192
-0.2124,-0.3335,9.6799,-0.1858,-0.3066,9.8001,-0.0451,-0.0143,-0.0307,5.0E-4,0.0017,0.0012,7.13,-17.25,-29.63,199.73,1.79,1.09,48.84389,2.353348,107.27,NaN,0.0,52.528,,4 / 26,,575,2022-01-10 18:38:59:197
-0.2626,-0.3287,9.7397,-0.1858,-0.3066,9.8001,-0.0451,-0.0143,-0.0307,-5.0E-4,7.0E-4,0.0023,7.13,-17.25,-29.63,199.73,1.79,1.09,48.84389,2.353348,107.27,NaN,0.0,52.528,,4 / 26,,580,2022-01-10 18:38:59:202
-0.2626,-0.3287,9.7397,-0.1858,-0.3066,9.8001,-0.0451,-0.0143,-0.0307,-5.0E-4,7.0E-4,0.0023,7.13,-17.25,-29.63,199.73,1.79,1.09,48.84389,2.353348,107.27,NaN,0.0,52.528,,4 / 26,,585,2022-01-10 18:38:59:207
-0.2626,-0.3287,9.7397,-0.1858,-0.3066,9.8001,-0.0451,-0.0143,-0.0307,-5.0E-4,7.0E-4,0.0023,7.13,-17.25,-29.63,199.73,1.79,1.09,48.84389,2.353348,107.27,NaN,0.0,52.528,,4 / 26,,590,2022-01-10 18:38:59:212
-0.2626,-0.3287,9.7397,-0.1893,-0.3076,9.8,-0.074,-0.03,-0.0167,-5.0E-4,7.0E-4,0.0023,7.13,-17.25,-29.63,199.73,1.79,1.09,48.84389,2.353348,107.27,NaN,0.0,52.528,,4 / 26,,595,2022-01-10 18:38:59:217
-0.2626,-0.3287,9.7397,-0.1893,-0.3076,9.8,-0.074,-0.03,-0.0167,-5.0E-4,7.0E-4,0.0023,7.13,-17.25,-29.63,199.73,1.79,1.09,48.84389,2.353348,107.27,NaN,0.0,52.528,,4 / 26,,599,2022-01-10 18:38:59:221
-0.2626,-0.3287,9.7397,-0.1893,-0.3076,9.8,-0.074,-0.03,-0.0167,-5.0E-4,7.0E-4,0.0023,6.53,-17.55,-29.25,199.73,1.79,1.09,48.84389,2.353348,107.27,NaN,0.0,52.528,,4 / 26,,604,2022-01-10 18:38:59:226
-0.2506,-0.3144,9.687,-0.1893,-0.3076,9.8,-0.074,-0.03,-0.0167,-0.0016,7.0E-4,-0.002,6.53,-17.55,-29.25,199.73,1.79,1.09,48.84389,2.353348,107.27,NaN,0.0,52.528,,4 / 26,,609,2022-01-10 18:38:59:231
-0.2506,-0.3144,9.687,-0.1893,-0.3076,9.8,-0.074,-0.03,-0.0167,-0.0016,7.0E-4,-0.002,6.53,-17.55,-29.25,199.73,1.79,1.09,48.84389,2.353348,107.27,NaN,0.0,52.528,,4 / 26,,615,2022-01-10 18:38:59:237
-0.2506,-0.3144,9.687,-0.1893,-0.3076,9.8,-0.074,-0.03,-0.0167,-0.0016,7.0E-4,-0.002,6.53,-17.55,-29.25,199.73,1.79,1.09,48.84389,2.353348,107.27,NaN,0.0,52.528,,4 / 26,,620,2022-01-10 18:38:59:242
-0.2506,-0.3144,9.687,-0.1927,-0.3083,9.7999,-0.0647,-0.0257,0.0041,-0.0016,7.0E-4,-0.002,6.53,-17.55,-29.25,199.73,1.79,1.09,48.84389,2.353348,107.27,NaN,0.0,52.528,,4 / 26,,624,2022-01-10 18:38:59:246
-0.2506,-0.3144,9.687,-0.1927,-0.3083,9.7999,-0.0647,-0.0257,0.0041,-0.0016,7.0E-4,-0.002,6.53,-17.55,-29.25,199.73,1.79,1.09,48.84389,2.353348,107.27,NaN,0.0,52.528,,4 / 26,,630,2022-01-10 18:38:59:252
-0.2602,-0.3191,9.7397,-0.1927,-0.3083,9.7999,-0.0647,-0.0257,0.0041,-0.0016,7.0E-4,-0.002,6.23,-17.55,-29.47,196.02,1.8,1.13,48.84389,2.353348,107.27,NaN,0.0,52.528,,4 / 26,,635,2022-01-10 18:38:59:257
-0.2602,-0.3191,9.7397,-0.1927,-0.3083,9.7999,-0.0647,-0.0257,0.0041,0.0027,0.0017,-9.0E-4,6.23,-17.55,-29.47,196.02,1.8,1.13,48.84389,2.353348,107.27,NaN,0.0,52.528,,4 / 26,,640,2022-01-10 18:38:59:262
-0.2602,-0.3191,9.7397,-0.1927,-0.3083,9.7999,-0.0647,-0.0257,0.0041,0.0027,0.0017,-9.0E-4,6.23,-17.55,-29.47,196.02,1.8,1.13,48.84389,2.353348,107.27,NaN,0.0,52.528,,4 / 26,,646,2022-01-10 18:38:59:268
-0.2602,-0.3191,9.7397,-0.1927,-0.3083,9.7999,-0.0647,-0.0257,0.0041,0.0027,0.0017,-9.0E-4,6.23,-17.55,-29.47,196.02,1.8,1.13,48.84389,2.353348,107.27,NaN,0.0,52.528,,4 / 26,,650,2022-01-10 18:38:59:272
-0.2602,-0.3191,9.7397,-0.1956,-0.3088,9.7998,-0.0606,-0.0432,-0.0065,0.0027,0.0017,-9.0E-4,6.23,-17.55,-29.47,196.02,1.8,1.13,48.84389,2.353348,107.27,NaN,0.0,52.528,,4 / 26,,654,2022-01-10 18:38:59:276
-0.2698,-0.3287,9.6918,-0.1956,-0.3088,9.7998,-0.0606,-0.0432,-0.0065,0.0027,0.0017,-9.0E-4,6.23,-17.55,-29.47,196.02,1.8,1.13,48.84389,2.353348,107.27,NaN,0.0,52.528,,4 / 26,,660,2022-01-10 18:38:59:282
-0.2698,-0.3287,9.6918,-0.1956,-0.3088,9.7998,-0.0606,-0.0432,-0.0065,0.0027,0.0017,-9.0E-4,6.38,-17.7,-29.47,196.02,1.8,1.13,48.84389,2.353348,107.27,NaN,0.0,52.528,,4 / 26,,664,2022-01-10 18:38:59:286
-0.2698,-0.3287,9.6918,-0.1956,-0.3088,9.7998,-0.0606,-0.0432,-0.0065,-5.0E-4,7.0E-4,1.0E-4,6.38,-17.7,-29.47,196.02,1.8,1.13,48.84389,2.353348,107.27,NaN,0.0,52.528,,4 / 26,,670,2022-01-10 18:38:59:292
-0.2698,-0.3287,9.6918,-0.1956,-0.3088,9.7998,-0.0606,-0.0432,-0.0065,-5.0E-4,7.0E-4,1.0E-4,6.38,-17.7,-29.47,196.02,1.8,1.13,48.84389,2.353348,107.27,NaN,0.0,52.528,,4 / 26,,675,2022-01-10 18:38:59:297
-0.2698,-0.3287,9.6918,-0.1976,-0.3092,9.7998,-0.0958,-8.0E-4,0.0141,-5.0E-4,7.0E-4,1.0E-4,6.38,-17.7,-29.47,196.02,1.8,1.13,48.84389,2.353348,107.27,NaN,0.0,52.528,,4 / 26,,679,2022-01-10 18:38:59:301
-0.2698,-0.3287,9.6918,-0.1976,-0.3092,9.7998,-0.0958,-8.0E-4,0.0141,-5.0E-4,7.0E-4,1.0E-4,6.38,-17.7,-29.47,196.02,1.8,1.13,48.84389,2.353348,107.27,NaN,0.0,52.528,,4 / 26,,684,2022-01-10 18:38:59:306
-0.2578,-0.3072,9.6703,-0.1976,-0.3092,9.7998,-0.0958,-8.0E-4,0.0141,-5.0E-4,7.0E-4,1.0E-4,6.38,-17.7,-29.47,196.02,1.8,1.13,48.84389,2.353348,107.27,NaN,0.0,52.528,,4 / 26,,690,2022-01-10 18:38:59:312
-0.2578,-0.3072,9.6703,-0.1976,-0.3092,9.7998,-0.0958,-8.0E-4,0.0141,-5.0E-4,7.0E-4,1.0E-4,6.15,-17.55,-29.32,195.98,1.81,1.15,48.84389,2.353348,107.27,NaN,0.0,52.528,,4 / 26,,694,2022-01-10 18:38:59:316
-0.2578,-0.3072,9.6703,-0.1976,-0.3092,9.7998,-0.0958,-8.0E-4,0.0141,-5.0E-4,-0.0015,-0.002,6.15,-17.55,-29.32,195.98,1.81,1.15,48.84389,2.353348,107.27,NaN,0.0,52.528,,4 / 26,,700,2022-01-10 18:38:59:322
-0.2578,-0.3072,9.6703,-0.1976,-0.3092,9.7998,-0.0958,-8.0E-4,0.0141,-5.0E-4,-0.0015,-0.002,6.15,-17.55,-29.32,195.98,1.81,1.15,48.84389,2.353348,107.27,NaN,0.0,52.528,,4 / 26,,705,2022-01-10 18:38:59:327
-0.2578,-0.3072,9.6703,-0.2002,-0.3096,9.7997,-0.0692,-5.0E-4,-0.0355,-5.0E-4,-0.0015,-0.002,6.15,-17.55,-29.32,195.98,1.81,1.15,48.84389,2.353348,107.27,NaN,0.0,52.528,,4 / 26,,710,2022-01-10 18:38:59:332
-0.253,-0.3024,9.7325,-0.2002,-0.3096,9.7997,-0.0692,-5.0E-4,-0.0355,-5.0E-4,-0.0015,-0.002,6.15,-17.55,-29.32,195.98,1.81,1.15,48.84389,2.353348,107.27,NaN,0.0,52.528,,4 / 26,,715,2022-01-10 18:38:59:337
-0.253,-0.3024,9.7325,-0.2002,-0.3096,9.7997,-0.0692,-5.0E-4,-0.0355,-5.0E-4,-0.0015,-0.002,6.15,-17.55,-29.32,195.98,1.81,1.15,48.84389,2.353348,107.27,NaN,0.0,52.528,,4 / 26,,719,2022-01-10 18:38:59:341
-0.253,-0.3024,9.7325,-0.2002,-0.3096,9.7997,-0.0692,-5.0E-4,-0.0355,-5.0E-4,-0.0015,-0.002,6.15,-17.55,-29.32,195.98,1.81,1.15,48.84389,2.353348,107.27,NaN,0.0,52.528,,4 / 26,,725,2022-01-10 18:38:59:347
-0.253,-0.3024,9.7325,-0.2002,-0.3096,9.7997,-0.0692,-5.0E-4,-0.0355,0.0027,-0.0036,-0.002,6.15,-17.55,-29.32,195.98,1.81,1.15,48.84389,2.353348,107.27,NaN,0.0,52.528,,4 / 26,,729,2022-01-10 18:38:59:351
-0.253,-0.3024,9.7325,-0.2002,-0.3096,9.7997,-0.0692,-5.0E-4,-0.0355,0.0027,-0.0036,-0.002,5.93,-17.4,-29.03,195.98,1.81,1.15,48.84389,2.353348,107.27,NaN,0.0,52.528,,4 / 26,,735,2022-01-10 18:38:59:357
-0.2363,-0.2904,9.711,-0.2026,-0.3106,9.7996,-0.0333,-0.0391,0.0108,0.0027,-0.0036,-0.002,5.93,-17.4,-29.03,195.98,1.81,1.15,48.84389,2.353348,107.27,NaN,0.0,52.528,,4 / 26,,740,2022-01-10 18:38:59:362
-0.2363,-0.2904,9.711,-0.2026,-0.3106,9.7996,-0.0333,-0.0391,0.0108,0.0027,-0.0036,-0.002,5.93,-17.4,-29.03,195.98,1.81,1.15,48.84389,2.353348,107.27,NaN,0.0,52.528,,4 / 26,,745,2022-01-10 18:38:59:367
-0.2363,-0.2904,9.711,-0.2026,-0.3106,9.7996,-0.0333,-0.0391,0.0108,0.0027,-0.0036,-0.002,5.93,-17.4,-29.03,195.98,1.81,1.15,48.84389,2.353348,107.27,NaN,0.0,52.528,,4 / 26,,751,2022-01-10 18:38:59:373
-0.2363,-0.2904,9.711,-0.2026,-0.3106,9.7996,-0.0333,-0.0391,0.0108,0.0027,-0.0036,-0.002,5.93,-17.4,-29.03,195.98,1.81,1.15,48.84389,2.353348,107.27,NaN,0.0,52.528,,4 / 26,,756,2022-01-10 18:38:59:378
-0.2363,-0.2904,9.711,-0.2026,-0.3106,9.7996,-0.0333,-0.0391,0.0108,0.0027,-0.0036,-0.002,5.93,-17.4,-29.03,195.98,1.81,1.15,48.84389,2.353348,107.27,NaN,0.0,52.528,,4 / 26,,760,2022-01-10 18:38:59:382
-0.277,-0.312,9.6966,-0.2026,-0.3106,9.7996,-0.0333,-0.0391,0.0108,-0.0016,-0.0015,0.0012,5.93,-17.33,-29.17,196.77,1.81,1.18,48.84389,2.353348,107.27,NaN,0.0,52.528,,5 / 26,,767,2022-01-10 18:38:59:389
-0.277,-0.312,9.6966,-0.2047,-0.3106,9.7996,-0.0372,0.004,-0.0208,-0.0016,-0.0015,0.0012,5.93,-17.33,-29.17,196.77,1.81,1.18,48.84389,2.353348,107.27,NaN,0.0,52.528,,5 / 26,,769,2022-01-10 18:38:59:391
-0.277,-0.312,9.6966,-0.2047,-0.3106,9.7996,-0.0372,0.004,-0.0208,-0.0016,-0.0015,0.0012,5.93,-17.33,-29.17,196.77,1.81,1.18,48.84389,2.353348,107.27,NaN,0.0,52.528,,5 / 26,,774,2022-01-10 18:38:59:396
-0.277,-0.312,9.6966,-0.2047,-0.3106,9.7996,-0.0372,0.004,-0.0208,-0.0016,-0.0015,0.0012,5.93,-17.33,-29.17,196.77,1.81,1.18,48.84389,2.353348,107.27,NaN,0.0,52.528,,5 / 26,,782,2022-01-10 18:38:59:404
-0.277,-0.312,9.6966,-0.2047,-0.3106,9.7996,-0.0372,0.004,-0.0208,-0.0016,-0.0015,0.0012,5.93,-17.33,-29.17,196.77,1.81,1.18,48.84389,2.353348,107.27,NaN,0.0,52.528,,5 / 26,,785,2022-01-10 18:38:59:407
-0.277,-0.312,9.6966,-0.2047,-0.3106,9.7996,-0.0372,0.004,-0.0208,-0.0016,-0.0015,0.0012,5.93,-17.33,-29.17,196.77,1.81,1.18,48.84389,2.353348,107.27,NaN,0.0,52.528,,5 / 26,,790,2022-01-10 18:38:59:412
-0.277,-0.312,9.6966,-0.2047,-0.3106,9.7996,-0.0372,0.004,-0.0208,-0.0016,-0.0015,0.0012,5.93,-17.33,-29.17,196.77,1.81,1.18,48.84389,2.353348,107.27,NaN,0.0,52.528,,5 / 26,,794,2022-01-10 18:38:59:416
-0.2746,-0.3215,9.6607,-0.2067,-0.3108,9.7995,-0.0445,-0.0254,-0.0281,-0.0016,-0.0047,0.0023,5.93,-17.33,-29.17,196.77,1.81,1.18,48.84389,2.353348,107.27,NaN,0.0,52.528,,5 / 26,,800,2022-01-10 18:38:59:422
-0.2746,-0.3215,9.6607,-0.2067,-0.3108,9.7995,-0.0445,-0.0254,-0.0281,-0.0016,-0.0047,0.0023,6.45,-17.4,-29.4,196.77,1.81,1.18,48.84389,2.353348,107.27,NaN,0.0,52.528,,5 / 26,,804,2022-01-10 18:38:59:426
-0.2746,-0.3215,9.6607,-0.2067,-0.3108,9.7995,-0.0445,-0.0254,-0.0281,-0.0016,-0.0047,0.0023,6.45,-17.4,-29.4,196.77,1.81,1.18,48.84389,2.353348,107.27,NaN,0.0,52.528,,5 / 26,,809,2022-01-10 18:38:59:431
-0.2746,-0.3215,9.6607,-0.2067,-0.3108,9.7995,-0.0445,-0.0254,-0.0281,-0.0016,-0.0047,0.0023,6.45,-17.4,-29.4,196.77,1.81,1.18,48.84389,2.353348,107.27,NaN,0.0,52.528,,5 / 26,,814,2022-01-10 18:38:59:436
-0.2746,-0.3215,9.6607,-0.2067,-0.3108,9.7995,-0.0445,-0.0254,-0.0281,-0.0016,-0.0047,0.0023,6.45,-17.4,-29.4,196.77,1.81,1.18,48.84389,2.353348,107.27,NaN,0.0,52.528,,5 / 26,,819,2022-01-10 18:38:59:441
-0.277,-0.3024,9.7421,-0.2094,-0.3116,9.7995,-0.0445,-0.0254,-0.0281,-0.0016,-0.0047,0.0023,6.45,-17.4,-29.4,196.77,1.81,1.18,48.84389,2.353348,107.27,NaN,0.0,52.528,,5 / 26,,824,2022-01-10 18:38:59:446
-0.277,-0.3024,9.7421,-0.2094,-0.3116,9.7995,-0.0668,0.0229,0.0172,5.0E-4,-0.0057,1.0E-4,6.45,-17.4,-29.4,196.77,1.81,1.18,48.84389,2.353348,107.27,NaN,0.0,52.528,,5 / 26,,830,2022-01-10 18:38:59:452
-0.277,-0.3024,9.7421,-0.2094,-0.3116,9.7995,-0.0668,0.0229,0.0172,5.0E-4,-0.0057,1.0E-4,6.45,-17.4,-29.4,196.77,1.81,1.18,48.84389,2.353348,107.27,NaN,0.0,52.528,,5 / 26,,834,2022-01-10 18:38:59:456
-0.277,-0.3024,9.7421,-0.2094,-0.3116,9.7995,-0.0668,0.0229,0.0172,5.0E-4,-0.0057,1.0E-4,6.45,-17.4,-29.4,196.77,1.81,1.18,48.84389,2.353348,107.27,NaN,0.0,52.528,,5 / 26,,840,2022-01-10 18:38:59:462
-0.277,-0.3024,9.7421,-0.2094,-0.3116,9.7995,-0.0668,0.0229,0.0172,5.0E-4,-0.0057,1.0E-4,6.75,-17.33,-29.32,199.6,1.82,1.22,48.84389,2.353348,107.27,NaN,0.0,52.528,,5 / 26,,846,2022-01-10 18:38:59:468
-0.3105,-0.3072,9.7923,-0.2094,-0.3116,9.7995,-0.0668,0.0229,0.0172,5.0E-4,-0.0057,1.0E-4,6.75,-17.33,-29.32,199.6,1.82,1.22,48.84389,2.353348,107.27,NaN,0.0,52.528,,5 / 26,,849,2022-01-10 18:38:59:471
-0.3105,-0.3072,9.7923,-0.2094,-0.3116,9.7995,-0.0668,0.0229,0.0172,5.0E-4,-0.0057,1.0E-4,6.75,-17.33,-29.32,199.6,1.82,1.22,48.84389,2.353348,107.27,NaN,0.0,52.528,,5 / 26,,854,2022-01-10 18:38:59:476
-0.3105,-0.3072,9.7923,-0.2116,-0.3121,9.7994,-0.0668,0.0229,0.0172,0.0027,-0.0015,1.0E-4,6.75,-17.33,-29.32,199.6,1.82,1.22,48.84389,2.353348,107.27,NaN,0.0,52.528,,5 / 26,,859,2022-01-10 18:38:59:481
-0.3105,-0.3072,9.7923,-0.2116,-0.3121,9.7994,-0.0396,-0.0241,-0.0235,0.0027,-0.0015,1.0E-4,6.75,-17.33,-29.32,199.6,1.82,1.22,48.84389,2.353348,107.27,NaN,0.0,52.528,,5 / 26,,864,2022-01-10 18:38:59:486
-0.3105,-0.3072,9.7923,-0.2116,-0.3121,9.7994,-0.0396,-0.0241,-0.0235,0.0027,-0.0015,1.0E-4,6.75,-17.33,-29.32,199.6,1.82,1.22,48.84389,2.353348,107.27,NaN,0.0,52.528,,5 / 26,,870,2022-01-10 18:38:59:492
-0.3105,-0.3072,9.7923,-0.2116,-0.3121,9.7994,-0.0396,-0.0241,-0.0235,0.0027,-0.0015,1.0E-4,6.53,-17.47,-29.32,199.6,1.82,1.22,48.84389,2.353348,107.27,NaN,0.0,52.528,,5 / 26,,874,2022-01-10 18:38:59:496
-0.2411,-0.3072,9.7684,-0.2116,-0.3121,9.7994,-0.0396,-0.0241,-0.0235,0.0027,-0.0015,1.0E-4,6.53,-17.47,-29.32,199.6,1.82,1.22,48.84389,2.353348,107.27,NaN,0.0,52.528,,5 / 26,,881,2022-01-10 18:38:59:503
-0.2411,-0.3072,9.7684,-0.2137,-0.3128,9.7993,-0.0396,-0.0241,-0.0235,0.0027,-0.0015,1.0E-4,6.53,-17.47,-29.32,199.6,1.82,1.22,48.84389,2.353348,107.27,NaN,0.0,52.528,,5 / 26,,885,2022-01-10 18:38:59:507
-0.2411,-0.3072,9.7684,-0.2137,-0.3128,9.7993,-0.0396,-0.0241,-0.0235,5.0E-4,-4.0E-4,0.0023,6.53,-17.47,-29.32,199.6,1.82,1.22,48.84389,2.353348,107.27,NaN,0.0,52.528,,5 / 26,,890,2022-01-10 18:38:59:512
-0.2411,-0.3072,9.7684,-0.2137,-0.3128,9.7993,-0.0553,-0.0211,-0.0036,5.0E-4,-4.0E-4,0.0023,6.53,-17.47,-29.32,199.6,1.82,1.22,48.84389,2.353348,107.27,NaN,0.0,52.528,,5 / 26,,895,2022-01-10 18:38:59:517
-0.2411,-0.3072,9.7684,-0.2137,-0.3128,9.7993,-0.0553,-0.0211,-0.0036,5.0E-4,-4.0E-4,0.0023,6.53,-17.47,-29.32,199.6,1.82,1.22,48.84389,2.353348,107.27,NaN,0.0,52.528,,5 / 26,,901,2022-01-10 18:38:59:523
-0.2411,-0.3072,9.7684,-0.2137,-0.3128,9.7993,-0.0553,-0.0211,-0.0036,5.0E-4,-4.0E-4,0.0023,6.53,-17.47,-29.32,199.6,1.82,1.22,48.84389,2.353348,107.27,NaN,0.0,52.528,,5 / 26,,905,2022-01-10 18:38:59:527
-0.2937,-0.3479,9.7421,-0.2137,-0.3128,9.7993,-0.0553,-0.0211,-0.0036,5.0E-4,-4.0E-4,0.0023,6.53,-17.47,-29.32,199.6,1.82,1.22,48.84389,2.353348,107.27,NaN,0.0,52.528,,5 / 26,,909,2022-01-10 18:38:59:531
-0.2937,-0.3479,9.7421,-0.2157,-0.3138,9.7993,-0.0553,-0.0211,-0.0036,5.0E-4,-4.0E-4,0.0023,6.38,-17.47,-29.25,196.65,1.83,1.26,48.84389,2.353348,107.27,NaN,0.0,52.528,,5 / 26,,915,2022-01-10 18:38:59:537
-0.2937,-0.3479,9.7421,-0.2157,-0.3138,9.7993,-0.0556,-0.0224,0.0291,5.0E-4,-4.0E-4,1.0E-4,6.38,-17.47,-29.25,196.65,1.83,1.26,48.84389,2.353348,107.27,NaN,0.0,52.528,,5 / 26,,921,2022-01-10 18:38:59:543
-0.2937,-0.3479,9.7421,-0.2157,-0.3138,9.7993,-0.0556,-0.0224,0.0291,5.0E-4,-4.0E-4,1.0E-4,6.38,-17.47,-29.25,196.65,1.83,1.26,48.84389,2.353348,107.27,NaN,0.0,52.528,,5 / 26,,925,2022-01-10 18:38:59:547
-0.2937,-0.3479,9.7421,-0.2157,-0.3138,9.7993,-0.0556,-0.0224,0.0291,5.0E-4,-4.0E-4,1.0E-4,6.38,-17.47,-29.25,196.65,1.83,1.26,48.84389,2.353348,107.27,NaN,0.0,52.528,,5 / 26,,930,2022-01-10 18:38:59:552
-0.3176,-0.3024,9.7349,-0.2157,-0.3138,9.7993,-0.0556,-0.0224,0.0291,5.0E-4,-4.0E-4,1.0E-4,6.38,-17.47,-29.25,196.65,1.83,1.26,48.84389,2.353348,107.27,NaN,0.0,52.528,,5 / 26,,935,2022-01-10 18:38:59:557
-0.3176,-0.3024,9.7349,-0.2157,-0.3138,9.7993,-0.0556,-0.0224,0.0291,5.0E-4,-4.0E-4,1.0E-4,6.38,-17.47,-29.25,196.65,1.83,1.26,48.84389,2.353348,107.27,NaN,0.0,52.528,,5 / 26,,940,2022-01-10 18:38:59:562
-0.3176,-0.3024,9.7349,-0.2185,-0.3142,9.7992,-0.0556,-0.0224,0.0291,5.0E-4,-4.0E-4,1.0E-4,6.08,-17.03,-29.17,196.65,1.83,1.26,48.84389,2.353348,107.27,NaN,0.0,52.528,,5 / 26,,945,2022-01-10 18:38:59:567
-0.3176,-0.3024,9.7349,-0.2185,-0.3142,9.7992,-0.0556,-0.0224,0.0291,-0.0016,-0.0047,1.0E-4,6.08,-17.03,-29.17,196.65,1.83,1.26,48.84389,2.353348,107.27,NaN,0.0,52.528,,5 / 26,,950,2022-01-10 18:38:59:572
-0.3176,-0.3024,9.7349,-0.2185,-0.3142,9.7992,-0.0348,-0.0246,0.0074,-0.0016,-0.0047,1.0E-4,6.08,-17.03,-29.17,196.65,1.83,1.26,48.84389,2.353348,107.27,NaN,0.0,52.528,,5 / 26,,955,2022-01-10 18:38:59:577
-0.2937,-0.2976,9.766,-0.2185,-0.3142,9.7992,-0.0348,-0.0246,0.0074,-0.0016,-0.0047,1.0E-4,6.08,-17.03,-29.17,196.65,1.83,1.26,48.84389,2.353348,107.27,NaN,0.0,52.528,,5 / 26,,960,2022-01-10 18:38:59:582
-0.2937,-0.2976,9.766,-0.2185,-0.3142,9.7992,-0.0348,-0.0246,0.0074,-0.0016,-0.0047,1.0E-4,6.08,-17.03,-29.17,196.65,1.83,1.26,48.84389,2.353348,107.27,NaN,0.0,52.528,,5 / 26,,965,2022-01-10 18:38:59:587
-0.2937,-0.2976,9.766,-0.22,-0.3146,9.7991,-0.0348,-0.0246,0.0074,-0.0016,-0.0047,1.0E-4,6.08,-17.03,-29.17,196.65,1.83,1.26,48.84389,2.353348,107.27,NaN,0.0,52.528,,5 / 26,,970,2022-01-10 18:38:59:592
-0.2937,-0.2976,9.766,-0.22,-0.3146,9.7991,-0.0348,-0.0246,0.0074,-0.0016,-0.0047,1.0E-4,6.08,-17.03,-29.32,196.61,1.84,1.29,48.84389,2.353348,107.27,NaN,0.0,52.528,,5 / 26,,974,2022-01-10 18:38:59:596
-0.2937,-0.2976,9.766,-0.22,-0.3146,9.7991,-0.0347,-0.0218,-0.0096,0.0016,0.0017,0.0012,6.08,-17.03,-29.32,196.61,1.84,1.29,48.84389,2.353348,107.27,NaN,0.0,52.528,,5 / 26,,981,2022-01-10 18:38:59:603
-0.2411,-0.3407,9.7086,-0.22,-0.3146,9.7991,-0.0347,-0.0218,-0.0096,0.0016,0.0017,0.0012,6.08,-17.03,-29.32,196.61,1.84,1.29,48.84389,2.353348,107.27,NaN,0.0,52.528,,5 / 26,,984,2022-01-10 18:38:59:606
-0.2411,-0.3407,9.7086,-0.22,-0.3146,9.7991,-0.0347,-0.0218,-0.0096,0.0016,0.0017,0.0012,6.08,-17.03,-29.32,196.61,1.84,1.29,48.84389,2.353348,107.27,NaN,0.0,52.528,,5 / 26,,990,2022-01-10 18:38:59:612
-0.2411,-0.3407,9.7086,-0.22,-0.3146,9.7991,-0.0347,-0.0218,-0.0096,0.0016,0.0017,0.0012,6.08,-17.03,-29.32,196.61,1.84,1.29,48.84389,2.353348,107.27,NaN,0.0,52.528,,5 / 26,,994,2022-01-10 18:38:59:616
-0.2411,-0.3407,9.7086,-0.2216,-0.315,9.7991,-0.0347,-0.0218,-0.0096,0.0016,0.0017,0.0012,6.08,-17.03,-29.32,196.61,1.84,1.29,48.84389,2.353348,107.27,NaN,0.0,52.528,,5 / 26,,999,2022-01-10 18:38:59:621
-0.2411,-0.3407,9.7086,-0.2216,-0.315,9.7991,-0.0347,-0.0218,-0.0096,0.0016,0.0017,0.0012,5.7,-17.33,-29.32,196.61,1.84,1.29,48.84389,2.353348,107.27,NaN,0.0,52.528,,5 / 26,,1006,2022-01-10 18:38:59:628
-0.2698,-0.3072,9.6509,-0.2216,-0.315,9.7991,-0.0424,0.0096,-0.0311,5.0E-4,-0.0025,-9.0E-4,5.7,-17.33,-29.32,196.61,1.84,1.29,48.84389,2.353348,107.27,NaN,0.0,52.528,,5 / 26,,1012,2022-01-10 18:38:59:634
-0.2698,-0.3072,9.6509,-0.2216,-0.315,9.7991,-0.0424,0.0096,-0.0311,5.0E-4,-0.0025,-9.0E-4,5.7,-17.33,-29.32,196.61,1.84,1.29,48.84389,2.353348,107.27,NaN,0.0,52.528,,5 / 26,,1015,2022-01-10 18:38:59:637
-0.2698,-0.3072,9.6509,-0.2216,-0.315,9.7991,-0.0424,0.0096,-0.0311,5.0E-4,-0.0025,-9.0E-4,5.7,-17.33,-29.32,196.61,1.84,1.29,48.84389,2.353348,107.27,NaN,0.0,52.528,,5 / 26,,1019,2022-01-10 18:38:59:641
-0.2698,-0.3072,9.6509,-0.2216,-0.315,9.7991,-0.0424,0.0096,-0.0311,5.0E-4,-0.0025,-9.0E-4,5.7,-17.33,-29.32,196.61,1.84,1.29,48.84389,2.353348,107.27,NaN,0.0,52.528,,5 / 26,,1024,2022-01-10 18:38:59:646
-0.2698,-0.3072,9.6509,-0.2228,-0.3148,9.7991,-0.0424,0.0096,-0.0311,5.0E-4,-0.0025,-9.0E-4,5.7,-17.33,-29.32,196.61,1.84,1.29,48.84389,2.353348,107.27,NaN,0.0,52.528,,5 / 26,,1030,2022-01-10 18:38:59:652
-0.2698,-0.3072,9.6509,-0.2228,-0.3148,9.7991,-0.0424,0.0096,-0.0311,5.0E-4,-0.0025,-9.0E-4,5.78,-17.25,-28.95,196.59,1.84,1.3,48.84389,2.353348,107.27,NaN,0.0,52.528,,5 / 26,,1034,2022-01-10 18:38:59:656
-0.2698,-0.3072,9.6509,-0.2228,-0.3148,9.7991,-0.0424,0.0096,-0.0311,5.0E-4,-0.0025,-9.0E-4,5.78,-17.25,-28.95,196.59,1.84,1.3,48.84389,2.353348,107.27,NaN,0.0,52.528,,5 / 26,,1039,2022-01-10 18:38:59:661
-0.2291,-0.3215,9.6894,-0.2228,-0.3148,9.7991,-0.0185,0.0092,-0.0122,-5.0E-4,-4.0E-4,0.0012,5.78,-17.25,-28.95,196.59,1.84,1.3,48.84389,2.353348,107.27,NaN,0.0,52.528,,5 / 26,,1045,2022-01-10 18:38:59:667
-0.2291,-0.3215,9.6894,-0.2228,-0.3148,9.7991,-0.0185,0.0092,-0.0122,-5.0E-4,-4.0E-4,0.0012,5.78,-17.25,-28.95,196.59,1.84,1.3,48.84389,2.353348,107.27,NaN,0.0,52.528,,5 / 26,,1050,2022-01-10 18:38:59:672
-0.2291,-0.3215,9.6894,-0.2247,-0.3145,9.799,-0.0185,0.0092,-0.0122,-5.0E-4,-4.0E-4,0.0012,5.78,-17.25,-28.95,196.59,1.84,1.3,48.84389,2.353348,107.27,NaN,0.0,52.528,,5 / 26,,1055,2022-01-10 18:38:59:677
-0.2291,-0.3215,9.6894,-0.2247,-0.3145,9.799,-0.0185,0.0092,-0.0122,-5.0E-4,-4.0E-4,0.0012,5.78,-17.25,-28.95,196.59,1.84,1.3,48.84389,2.353348,107.27,NaN,0.0,52.528,,5 / 26,,1060,2022-01-10 18:38:59:682
-0.2291,-0.3215,9.6894,-0.2247,-0.3145,9.799,-0.0185,0.0092,-0.0122,-5.0E-4,-4.0E-4,0.0012,5.78,-17.33,-29.03,196.59,1.84,1.3,48.84389,2.353348,107.27,NaN,0.0,52.528,,5 / 26,,1064,2022-01-10 18:38:59:686
-0.2794,-0.2904,9.6703,-0.2247,-0.3145,9.799,-0.0665,0.0086,0.0573,-5.0E-4,-4.0E-4,0.0012,5.78,-17.33,-29.03,196.59,1.84,1.3,48.84389,2.353348,107.27,NaN,0.0,52.528,,5 / 26,,1070,2022-01-10 18:38:59:692
-0.2794,-0.2904,9.6703,-0.2247,-0.3145,9.799,-0.0665,0.0086,0.0573,-0.0016,0.0017,-9.0E-4,5.78,-17.33,-29.03,196.59,1.84,1.3,48.84389,2.353348,107.27,NaN,0.0,52.528,,5 / 26,,1076,2022-01-10 18:38:59:698
-0.2794,-0.2904,9.6703,-0.2267,-0.3137,9.799,-0.0665,0.0086,0.0573,-0.0016,0.0017,-9.0E-4,5.78,-17.33,-29.03,196.59,1.84,1.3,48.84389,2.353348,107.27,NaN,0.0,52.528,,5 / 26,,1081,2022-01-10 18:38:59:703
-0.2794,-0.2904,9.6703,-0.2267,-0.3137,9.799,-0.0665,0.0086,0.0573,-0.0016,0.0017,-9.0E-4,5.78,-17.33,-29.03,196.59,1.84,1.3,48.84389,2.353348,107.27,NaN,0.0,52.528,,5 / 26,,1086,2022-01-10 18:38:59:708
-0.2794,-0.2904,9.6703,-0.2267,-0.3137,9.799,-0.0665,0.0086,0.0573,-0.0016,0.0017,-9.0E-4,5.78,-17.33,-29.03,196.59,1.84,1.3,48.84389,2.353348,107.27,NaN,0.0,52.528,,5 / 26,,1089,2022-01-10 18:38:59:711
-0.2794,-0.2904,9.6703,-0.2267,-0.3137,9.799,-0.0665,0.0086,0.0573,-0.0016,0.0017,-9.0E-4,6.08,-17.4,-29.32,196.55,1.83,1.33,48.84389,2.353348,107.27,NaN,0.0,52.528,,5 / 26,,1095,2022-01-10 18:38:59:717
-0.2339,-0.2952,9.6751,-0.2267,-0.3137,9.799,-0.0675,-0.0047,0.0135,-0.0016,0.0017,-9.0E-4,6.08,-17.4,-29.32,196.55,1.83,1.33,48.84389,2.353348,107.27,NaN,0.0,52.528,,5 / 26,,1100,2022-01-10 18:38:59:722
-0.2339,-0.2952,9.6751,-0.2267,-0.3137,9.799,-0.0675,-0.0047,0.0135,-0.0016,7.0E-4,1.0E-4,6.08,-17.4,-29.32,196.55,1.83,1.33,48.84389,2.353348,107.27,NaN,0.0,52.528,,5 / 26,,1105,2022-01-10 18:38:59:727
-0.2339,-0.2952,9.6751,-0.2288,-0.3138,9.799,-0.0675,-0.0047,0.0135,-0.0016,7.0E-4,1.0E-4,6.08,-17.4,-29.32,196.55,1.83,1.33,48.84389,2.353348,107.27,NaN,0.0,52.528,,5 / 26,,1110,2022-01-10 18:38:59:732
-0.2339,-0.2952,9.6751,-0.2288,-0.3138,9.799,-0.0675,-0.0047,0.0135,-0.0016,7.0E-4,1.0E-4,6.08,-17.4,-29.32,196.55,1.83,1.33,48.84389,2.353348,107.27,NaN,0.0,52.528,,5 / 26,,1115,2022-01-10 18:38:59:737
-0.2339,-0.2952,9.6751,-0.2288,-0.3138,9.799,-0.0675,-0.0047,0.0135,-0.0016,7.0E-4,1.0E-4,6.08,-17.4,-29.32,196.55,1.83,1.33,48.84389,2.353348,107.27,NaN,0.0,52.528,,5 / 26,,1120,2022-01-10 18:38:59:742
-0.2339,-0.2976,9.6823,-0.2288,-0.3138,9.799,-0.0675,-0.0047,0.0135,-0.0016,7.0E-4,1.0E-4,5.25,-17.4,-29.4,196.55,1.83,1.33,48.84389,2.353348,107.27,NaN,0.0,52.528,,5 / 26,,1124,2022-01-10 18:38:59:746
-0.2841,-0.2976,9.6823,-0.2288,-0.3138,9.799,-0.0675,-0.0047,0.0135,-0.0016,7.0E-4,1.0E-4,5.25,-17.4,-29.4,196.55,1.83,1.33,48.84389,2.353348,107.27,NaN,0.0,52.528,,5 / 26,,1129,2022-01-10 18:38:59:751
-0.2841,-0.2976,9.6823,-0.2288,-0.3138,9.799,-0.0499,0.0031,-0.0197,-0.0016,7.0E-4,1.0E-4,5.25,-17.4,-29.4,196.55,1.83,1.33,48.84389,2.353348,107.27,NaN,0.0,52.528,,5 / 26,,1135,2022-01-10 18:38:59:757
-0.2841,-0.2976,9.6823,-0.2301,-0.3148,9.7989,-0.0499,0.0031,-0.0197,5.0E-4,7.0E-4,-9.0E-4,5.25,-17.4,-29.4,196.55,1.83,1.33,48.84389,2.353348,107.27,NaN,0.0,52.528,,5 / 26,,1139,2022-01-10 18:38:59:761
-0.2841,-0.2976,9.6823,-0.2301,-0.3148,9.7989,-0.0499,0.0031,-0.0197,5.0E-4,7.0E-4,-9.0E-4,5.25,-17.4,-29.4,196.55,1.83,1.33,48.84389,2.353348,107.27,NaN,0.0,52.528,,5 / 26,,1145,2022-01-10 18:38:59:767
-0.2841,-0.2976,9.6823,-0.2301,-0.3148,9.7989,-0.0499,0.0031,-0.0197,5.0E-4,7.0E-4,-9.0E-4,5.25,-17.4,-29.4,196.55,1.83,1.33,48.84389,2.353348,107.27,NaN,0.0,52.528,,5 / 26,,1150,2022-01-10 18:38:59:772
-0.2626,-0.2809,9.7205,-0.2301,-0.3148,9.7989,-0.0499,0.0031,-0.0197,5.0E-4,7.0E-4,-9.0E-4,5.93,-17.55,-29.4,195.69,1.84,1.35,48.84389,2.353348,107.27,NaN,0.0,52.528,,5 / 26,,1154,2022-01-10 18:38:59:776
-0.2626,-0.2809,9.7205,-0.2301,-0.3148,9.7989,-0.0112,0.0129,-0.0024,5.0E-4,7.0E-4,-9.0E-4,5.93,-17.55,-29.4,195.69,1.84,1.35,48.84389,2.353348,107.27,NaN,0.0,52.528,,5 / 26,,1160,2022-01-10 18:38:59:782
-0.2626,-0.2809,9.7205,-0.2301,-0.3148,9.7989,-0.0112,0.0129,-0.0024,5.0E-4,7.0E-4,-9.0E-4,5.93,-17.55,-29.4,195.69,1.84,1.35,48.84389,2.353348,107.27,NaN,0.0,52.528,,5 / 26,,1166,2022-01-10 18:38:59:788
-0.2626,-0.2809,9.7205,-0.2315,-0.3145,9.7989,-0.0112,0.0129,-0.0024,-5.0E-4,0.0028,1.0E-4,5.93,-17.55,-29.4,195.69,1.84,1.35,48.84389,2.353348,107.27,NaN,0.0,52.528,,5 / 26,,1170,2022-01-10 18:38:59:792
-0.2626,-0.2809,9.7205,-0.2315,-0.3145,9.7989,-0.0112,0.0129,-0.0024,-5.0E-4,0.0028,1.0E-4,5.93,-17.55,-29.4,195.69,1.84,1.35,48.84389,2.353348,107.27,NaN,0.0,52.528,,5 / 26,,1175,2022-01-10 18:38:59:797
-0.2626,-0.2809,9.7205,-0.2315,-0.3145,9.7989,-0.0112,0.0129,-0.0024,-5.0E-4,0.0028,1.0E-4,5.93,-17.55,-29.4,195.69,1.84,1.35,48.84389,2.353348,107.27,NaN,0.0,52.528,,5 / 26,,1179,2022-01-10 18:38:59:801
-0.2243,-0.3167,9.7062,-0.2315,-0.3145,9.7989,-0.0112,0.0129,-0.0024,-5.0E-4,0.0028,1.0E-4,6.38,-17.4,-29.55,195.69,1.84,1.35,48.84389,2.353348,107.27,NaN,0.0,52.528,,5 / 26,,1184,2022-01-10 18:38:59:806
-0.2243,-0.3167,9.7062,-0.2315,-0.3145,9.7989,-0.0112,0.0129,-0.0024,-5.0E-4,0.0028,1.0E-4,6.38,-17.4,-29.55,195.69,1.84,1.35,48.84389,2.353348,107.27,NaN,0.0,52.528,,5 / 26,,1189,2022-01-10 18:38:59:811
-0.2243,-0.3167,9.7062,-0.2315,-0.3145,9.7989,-0.0348,-0.019,-0.0127,-5.0E-4,0.0028,1.0E-4,6.38,-17.4,-29.55,195.69,1.84,1.35,48.84389,2.353348,107.27,NaN,0.0,52.528,,5 / 26,,1195,2022-01-10 18:38:59:817
-0.2243,-0.3167,9.7062,-0.2331,-0.315,9.7988,-0.0348,-0.019,-0.0127,5.0E-4,-0.0025,0.0012,6.38,-17.4,-29.55,195.69,1.84,1.35,48.84389,2.353348,107.27,NaN,0.0,52.528,,5 / 26,,1200,2022-01-10 18:38:59:822
-0.2243,-0.3167,9.7062,-0.2331,-0.315,9.7988,-0.0348,-0.019,-0.0127,5.0E-4,-0.0025,0.0012,6.38,-17.4,-29.55,195.69,1.84,1.35,48.84389,2.353348,107.27,NaN,0.0,52.528,,5 / 26,,1205,2022-01-10 18:38:59:827
-0.2626,-0.3311,9.7277,-0.2331,-0.315,9.7988,-0.0348,-0.019,-0.0127,5.0E-4,-0.0025,0.0012,6.38,-17.4,-29.55,195.69,1.84,1.35,48.84389,2.353348,107.27,NaN,0.0,52.528,,5 / 26,,1210,2022-01-10 18:38:59:832
-0.2626,-0.3311,9.7277,-0.2331,-0.315,9.7988,-0.0348,-0.019,-0.0127,5.0E-4,-0.0025,0.0012,6.83,-17.33,-29.7,199.29,1.84,1.36,48.84389,2.353348,107.27,NaN,0.0,52.528,,5 / 26,,1215,2022-01-10 18:38:59:837
-0.2626,-0.3311,9.7277,-0.2331,-0.315,9.7988,-0.0348,-0.019,-0.0127,5.0E-4,-0.0025,0.0012,6.83,-17.33,-29.7,199.29,1.84,1.36,48.84389,2.353348,107.27,NaN,0.0,52.528,,5 / 26,,1220,2022-01-10 18:38:59:842
-0.2626,-0.3311,9.7277,-0.2331,-0.315,9.7988,-0.0121,0.0157,0.0469,5.0E-4,-0.0025,0.0012,6.83,-17.33,-29.7,199.29,1.84,1.36,48.84389,2.353348,107.27,NaN,0.0,52.528,,5 / 26,,1225,2022-01-10 18:38:59:847
-0.2626,-0.3311,9.7277,-0.2331,-0.315,9.7988,-0.0121,0.0157,0.0469,-0.0037,-0.0047,1.0E-4,6.83,-17.33,-29.7,199.29,1.84,1.36,48.84389,2.353348,107.27,NaN,0.0,52.528,,5 / 26,,1230,2022-01-10 18:38:59:852
-0.2459,-0.3359,9.7445,-0.2343,-0.3148,9.7988,-0.0121,0.0157,0.0469,-0.0037,-0.0047,1.0E-4,6.83,-17.33,-29.7,199.29,1.84,1.36,48.84389,2.353348,107.27,NaN,0.0,52.528,,5 / 26,,1236,2022-01-10 18:38:59:858
-0.2459,-0.3359,9.7445,-0.2343,-0.3148,9.7988,-0.0121,0.0157,0.0469,-0.0037,-0.0047,1.0E-4,6.83,-17.33,-29.7,199.29,1.84,1.36,48.84389,2.353348,107.27,NaN,0.0,52.528,,5 / 26,,1239,2022-01-10 18:38:59:861
-0.2459,-0.3359,9.7445,-0.2343,-0.3148,9.7988,-0.0121,0.0157,0.0469,-0.0037,-0.0047,1.0E-4,6.83,-17.33,-29.7,199.29,1.84,1.36,48.84389,2.353348,107.27,NaN,0.0,52.528,,5 / 26,,1244,2022-01-10 18:38:59:866
-0.2459,-0.3359,9.7445,-0.2343,-0.3148,9.7988,-0.0121,0.0157,0.0469,-0.0037,-0.0047,1.0E-4,6.83,-17.33,-29.7,199.29,1.84,1.36,48.84389,2.353348,107.27,NaN,0.0,52.528,,5 / 26,,1250,2022-01-10 18:38:59:872
-0.2459,-0.3359,9.7445,-0.2343,-0.3148,9.7988,-0.0402,0.0235,-0.0059,-0.0037,-0.0047,1.0E-4,6.6,-17.33,-29.1,199.29,1.84,1.36,48.84389,2.353348,107.27,NaN,0.0,52.528,,5 / 26,,1256,2022-01-10 18:38:59:878
-0.2459,-0.3359,9.7445,-0.2343,-0.3148,9.7988,-0.0402,0.0235,-0.0059,-0.0037,-0.0047,1.0E-4,6.6,-17.33,-29.1,199.29,1.84,1.36,48.84389,2.353348,107.27,NaN,0.0,52.528,,5 / 26,,1260,2022-01-10 18:38:59:882
-0.2004,-0.3311,9.6775,-0.2335,-0.3165,9.7988,-0.0402,0.0235,-0.0059,-5.0E-4,-0.0057,-9.0E-4,6.6,-17.33,-29.1,199.29,1.84,1.36,48.84389,2.353348,107.27,NaN,0.0,52.528,,5 / 26,,1264,2022-01-10 18:38:59:886
-0.2004,-0.3311,9.6775,-0.2335,-0.3165,9.7988,-0.0402,0.0235,-0.0059,-5.0E-4,-0.0057,-9.0E-4,6.6,-17.33,-29.1,199.29,1.84,1.36,48.84389,2.353348,107.27,NaN,0.0,52.528,,5 / 26,,1270,2022-01-10 18:38:59:892
-0.2004,-0.3311,9.6775,-0.2335,-0.3165,9.7988,-0.0402,0.0235,-0.0059,-5.0E-4,-0.0057,-9.0E-4,6.6,-17.33,-29.1,199.29,1.84,1.36,48.84389,2.353348,107.27,NaN,0.0,52.528,,5 / 26,,1274,2022-01-10 18:38:59:896
-0.2004,-0.3311,9.6775,-0.2335,-0.3165,9.7988,-0.0402,0.0235,-0.0059,-5.0E-4,-0.0057,-9.0E-4,6.6,-17.33,-29.1,199.29,1.84,1.36,48.84389,2.353348,107.27,NaN,0.0,52.528,,5 / 26,,1280,2022-01-10 18:38:59:902
-0.2004,-0.3311,9.6775,-0.2335,-0.3165,9.7988,-0.0336,-0.0276,-0.0021,-5.0E-4,-0.0057,-9.0E-4,6.38,-17.47,-29.47,196.49,1.85,1.37,48.84389,2.353348,107.27,NaN,0.0,52.528,,5 / 26,,1284,2022-01-10 18:38:59:906
-0.2483,-0.3431,9.7493,-0.2335,-0.3165,9.7988,-0.0336,-0.0276,-0.0021,-5.0E-4,-0.0057,-9.0E-4,6.38,-17.47,-29.47,196.49,1.85,1.37,48.84389,2.353348,107.27,NaN,0.0,52.528,,5 / 26,,1290,2022-01-10 18:38:59:912
-0.2483,-0.3431,9.7493,-0.2341,-0.3173,9.7987,-0.0336,-0.0276,-0.0021,-0.0027,0.0039,0.0012,6.38,-17.47,-29.47,196.49,1.85,1.37,48.84389,2.353348,107.27,NaN,0.0,52.528,,5 / 26,,1294,2022-01-10 18:38:59:916
-0.2483,-0.3431,9.7493,-0.2341,-0.3173,9.7987,-0.0336,-0.0276,-0.0021,-0.0027,0.0039,0.0012,6.38,-17.47,-29.47,196.49,1.85,1.37,48.84389,2.353348,107.27,NaN,0.0,52.528,,5 / 26,,1300,2022-01-10 18:38:59:922
-0.2483,-0.3431,9.7493,-0.2341,-0.3173,9.7987,-0.0336,-0.0276,-0.0021,-0.0027,0.0039,0.0012,6.38,-17.47,-29.47,196.49,1.85,1.37,48.84389,2.353348,107.27,NaN,0.0,52.528,,5 / 26,,1304,2022-01-10 18:38:59:926
-0.2483,-0.3431,9.7493,-0.2341,-0.3173,9.7987,-0.0336,-0.0276,-0.0021,-0.0027,0.0039,0.0012,6.38,-17.47,-29.47,196.49,1.85,1.37,48.84389,2.353348,107.27,NaN,0.0,52.528,,5 / 26,,1310,2022-01-10 18:38:59:932
-0.3129,-0.3407,9.766,-0.2341,-0.3173,9.7987,0.009,0.01,0.028,-0.0027,0.0039,0.0012,6.3,-17.33,-30.07,196.49,1.85,1.37,48.84389,2.353348,107.27,NaN,0.0,52.528,,5 / 26,,1314,2022-01-10 18:38:59:936
-0.3129,-0.3407,9.766,-0.2341,-0.3173,9.7987,0.009,0.01,0.028,-0.0027,0.0039,0.0012,6.3,-17.33,-30.07,196.49,1.85,1.37,48.84389,2.353348,107.27,NaN,0.0,52.528,,5 / 26,,1320,2022-01-10 18:38:59:942
-0.3129,-0.3407,9.766,-0.2349,-0.3179,9.7987,0.009,0.01,0.028,-0.0016,7.0E-4,0.0033,6.3,-17.33,-30.07,196.49,1.85,1.37,48.84389,2.353348,107.27,NaN,0.0,52.528,,5 / 26,,1324,2022-01-10 18:38:59:946
-0.3129,-0.3407,9.766,-0.2349,-0.3179,9.7987,0.009,0.01,0.028,-0.0016,7.0E-4,0.0033,6.3,-17.33,-30.07,196.49,1.85,1.37,48.84389,2.353348,107.27,NaN,0.0,52.528,,5 / 26,,1330,2022-01-10 18:38:59:952
-0.3129,-0.3407,9.766,-0.2349,-0.3179,9.7987,0.009,0.01,0.028,-0.0016,7.0E-4,0.0033,6.3,-17.33,-30.07,196.49,1.85,1.37,48.84389,2.353348,107.27,NaN,0.0,52.528,,5 / 26,,1335,2022-01-10 18:38:59:957
-0.3129,-0.3407,9.766,-0.2349,-0.3179,9.7987,0.009,0.01,0.028,-0.0016,7.0E-4,0.0033,6.3,-17.33,-30.07,196.49,1.85,1.37,48.84389,2.353348,107.27,NaN,0.0,52.528,,5 / 26,,1340,2022-01-10 18:38:59:962
-0.2746,-0.3335,9.6918,-0.2349,-0.3179,9.7987,-0.0293,0.0173,-0.0198,-0.0016,7.0E-4,0.0033,6.3,-17.33,-30.07,196.49,1.85,1.37,48.84389,2.353348,107.27,NaN,0.0,52.528,,5 / 26,,1344,2022-01-10 18:38:59:966
-0.2746,-0.3335,9.6918,-0.2349,-0.3179,9.7987,-0.0293,0.0173,-0.0198,-0.0016,7.0E-4,0.0033,6.3,-17.33,-30.07,196.49,1.85,1.37,48.84389,2.353348,107.27,NaN,0.0,52.528,,5 / 26,,1349,2022-01-10 18:38:59:971
-0.2746,-0.3335,9.6918,-0.2357,-0.3184,9.7986,-0.0293,0.0173,-0.0198,-0.0059,-0.0015,0.0023,6.15,-17.4,-29.63,196.37,1.86,1.37,48.84389,2.353348,107.27,NaN,0.0,52.528,,5 / 26,,1355,2022-01-10 18:38:59:977
-0.2746,-0.3335,9.6918,-0.2357,-0.3184,9.7986,-0.0293,0.0173,-0.0198,-0.0059,-0.0015,0.0023,6.15,-17.4,-29.63,196.37,1.86,1.37,48.84389,2.353348,107.27,NaN,0.0,52.528,,5 / 26,,1360,2022-01-10 18:38:59:982
-0.2746,-0.3335,9.6918,-0.2357,-0.3184,9.7986,-0.0293,0.0173,-0.0198,-0.0059,-0.0015,0.0023,6.15,-17.4,-29.63,196.37,1.86,1.37,48.84389,2.353348,107.27,NaN,0.0,52.528,,5 / 26,,1364,2022-01-10 18:38:59:986
-0.3129,-0.2785,9.7373,-0.2357,-0.3184,9.7986,-0.0293,0.0173,-0.0198,-0.0059,-0.0015,0.0023,6.15,-17.4,-29.63,196.37,1.86,1.37,48.84389,2.353348,107.27,NaN,0.0,52.528,,5 / 26,,1370,2022-01-10 18:38:59:992
-0.3129,-0.2785,9.7373,-0.2357,-0.3184,9.7986,-0.0068,-0.0238,5.0E-4,-0.0059,-0.0015,0.0023,6.15,-17.4,-29.63,196.37,1.86,1.37,48.84389,2.353348,107.27,NaN,0.0,52.528,,5 / 26,,1374,2022-01-10 18:38:59:996
-0.3129,-0.2785,9.7373,-0.2357,-0.3184,9.7986,-0.0068,-0.0238,5.0E-4,-0.0059,-0.0015,0.0023,6.15,-17.4,-29.63,196.37,1.86,1.37,48.84389,2.353348,107.27,NaN,0.0,52.528,,5 / 26,,1380,2022-01-10 18:39:00:002
-0.3129,-0.2785,9.7373,-0.2368,-0.3184,9.7986,-0.0068,-0.0238,5.0E-4,0.0016,-0.0057,1.0E-4,6.15,-17.4,-29.63,196.37,1.86,1.37,48.84389,2.353348,107.27,NaN,0.0,52.528,,5 / 26,,1384,2022-01-10 18:39:00:006
-0.3129,-0.2785,9.7373,-0.2368,-0.3184,9.7986,-0.0068,-0.0238,5.0E-4,0.0016,-0.0057,1.0E-4,6.15,-17.4,-29.63,196.37,1.86,1.37,48.84389,2.353348,107.27,NaN,0.0,52.528,,5 / 26,,1389,2022-01-10 18:39:00:011
-0.3129,-0.2785,9.7373,-0.2368,-0.3184,9.7986,-0.0068,-0.0238,5.0E-4,0.0016,-0.0057,1.0E-4,5.7,-17.78,-29.1,196.37,1.86,1.37,48.84389,2.353348,107.27,NaN,0.0,52.528,,5 / 26,,1394,2022-01-10 18:39:00:016
-0.2841,-0.3191,9.7612,-0.2368,-0.3184,9.7986,-0.0068,-0.0238,5.0E-4,0.0016,-0.0057,1.0E-4,5.7,-17.78,-29.1,196.37,1.86,1.37,48.84389,2.353348,107.27,NaN,0.0,52.528,,5 / 26,,1399,2022-01-10 18:39:00:021
-0.2841,-0.3191,9.7612,-0.2368,-0.3184,9.7986,-0.0355,-0.0067,0.0279,0.0016,-0.0057,1.0E-4,5.7,-17.78,-29.1,196.37,1.86,1.37,48.84389,2.353348,107.27,NaN,0.0,52.528,,5 / 26,,1405,2022-01-10 18:39:00:027
-0.2841,-0.3191,9.7612,-0.2368,-0.3184,9.7986,-0.0355,-0.0067,0.0279,0.0016,-0.0057,1.0E-4,5.7,-17.78,-29.1,196.37,1.86,1.37,48.84389,2.353348,107.27,NaN,0.0,52.528,,5 / 26,,1409,2022-01-10 18:39:00:031
-0.2841,-0.3191,9.7612,-0.2389,-0.3172,9.7986,-0.0355,-0.0067,0.0279,-5.0E-4,0.0103,0.0012,5.7,-17.78,-29.1,196.37,1.86,1.37,48.84389,2.353348,107.27,NaN,0.0,52.528,,5 / 26,,1415,2022-01-10 18:39:00:037
-0.2841,-0.3191,9.7612,-0.2389,-0.3172,9.7986,-0.0355,-0.0067,0.0279,-5.0E-4,0.0103,0.0012,5.7,-17.78,-29.1,196.37,1.86,1.37,48.84389,2.353348,107.27,NaN,0.0,52.528,,5 / 26,,1419,2022-01-10 18:39:00:041
-0.2889,-0.3191,9.7708,-0.2389,-0.3172,9.7986,-0.0355,-0.0067,0.0279,-5.0E-4,0.0103,0.0012,5.7,-17.78,-29.1,196.37,1.86,1.37,48.84389,2.353348,107.27,NaN,0.0,52.528,,5 / 26,,1425,2022-01-10 18:39:00:047
-0.2889,-0.3191,9.7708,-0.2389,-0.3172,9.7986,-0.0355,-0.0067,0.0279,-5.0E-4,0.0103,0.0012,5.7,-17.78,-29.1,196.37,1.86,1.37,48.84389,2.353348,107.27,NaN,0.0,52.528,,5 / 26,,1429,2022-01-10 18:39:00:051
-0.2889,-0.3191,9.7708,-0.2389,-0.3172,9.7986,-0.0355,-0.0067,0.0279,-5.0E-4,0.0103,0.0012,5.85,-17.62,-29.32,195.61,1.85,1.4,48.84389,2.353348,107.27,NaN,0.0,52.528,,5 / 26,,1435,2022-01-10 18:39:00:057
-0.2889,-0.3191,9.7708,-0.2389,-0.3172,9.7986,-0.0097,-0.0059,0.0167,-5.0E-4,0.0103,0.0012,5.85,-17.62,-29.32,195.61,1.85,1.4,48.84389,2.353348,107.27,NaN,0.0,52.528,,5 / 26,,1440,2022-01-10 18:39:00:062
-0.2889,-0.3191,9.7708,-0.2443,-0.3153,9.7985,-0.0097,-0.0059,0.0167,0.0123,0.0188,1.0E-4,5.85,-17.62,-29.32,195.61,1.85,1.4,48.84389,2.353348,107.27,NaN,0.0,52.528,,5 / 26,,1445,2022-01-10 18:39:00:067
-0.2889,-0.3191,9.7708,-0.2443,-0.3153,9.7985,-0.0097,-0.0059,0.0167,0.0123,0.0188,1.0E-4,5.85,-17.62,-29.32,195.61,1.85,1.4,48.84389,2.353348,107.27,NaN,0.0,52.528,,5 / 26,,1450,2022-01-10 18:39:00:072
-0.2674,-0.3024,9.6966,-0.2443,-0.3153,9.7985,-0.0097,-0.0059,0.0167,0.0123,0.0188,1.0E-4,5.85,-17.62,-29.32,195.61,1.85,1.4,48.84389,2.353348,107.27,NaN,0.0,52.528,,5 / 26,,1454,2022-01-10 18:39:00:076
-0.2674,-0.3024,9.6966,-0.2443,-0.3153,9.7985,-0.0097,-0.0059,0.0167,0.0123,0.0188,1.0E-4,5.85,-17.62,-29.32,195.61,1.85,1.4,48.84389,2.353348,107.27,NaN,0.0,52.528,,5 / 26,,1462,2022-01-10 18:39:00:084
-0.2674,-0.3024,9.6966,-0.2443,-0.3153,9.7985,0.0221,-0.0065,-0.0166,0.0123,0.0188,1.0E-4,6.08,-17.47,-29.63,195.61,1.85,1.4,48.84389,2.353348,107.27,NaN,0.0,52.528,,5 / 26,,1465,2022-01-10 18:39:00:087
-0.2674,-0.3024,9.6966,-0.2443,-0.3153,9.7985,0.0221,-0.0065,-0.0166,0.0123,0.0188,1.0E-4,6.08,-17.47,-29.63,195.61,1.85,1.4,48.84389,2.353348,107.27,NaN,0.0,52.528,,5 / 26,,1469,2022-01-10 18:39:00:091
-0.2674,-0.3024,9.6966,-0.2521,-0.3117,9.7985,0.0221,-0.0065,-0.0166,0.0123,0.0188,1.0E-4,6.08,-17.47,-29.63,195.61,1.85,1.4,48.84389,2.353348,107.27,NaN,0.0,52.528,,5 / 26,,1475,2022-01-10 18:39:00:097
-0.2674,-0.3024,9.6966,-0.2521,-0.3117,9.7985,0.0221,-0.0065,-0.0166,0.0208,0.0316,1.0E-4,6.08,-17.47,-29.63,195.61,1.85,1.4,48.84389,2.353348,107.27,NaN,0.0,52.528,,5 / 26,,1479,2022-01-10 18:39:00:101
-0.2506,-0.3431,9.7062,-0.2521,-0.3117,9.7985,0.0221,-0.0065,-0.0166,0.0208,0.0316,1.0E-4,6.08,-17.47,-29.63,195.61,1.85,1.4,48.84389,2.353348,107.27,NaN,0.0,52.528,,5 / 26,,1485,2022-01-10 18:39:00:107
-0.2506,-0.3431,9.7062,-0.2521,-0.3117,9.7985,0.0221,-0.0065,-0.0166,0.0208,0.0316,1.0E-4,6.08,-17.47,-29.63,195.61,1.85,1.4,48.84389,2.353348,107.27,NaN,0.0,52.528,,5 / 26,,1490,2022-01-10 18:39:00:112
-0.2506,-0.3431,9.7062,-0.2521,-0.3117,9.7985,0.0221,-0.0065,-0.0166,0.0208,0.0316,1.0E-4,6.08,-17.47,-29.63,195.61,1.85,1.4,48.84389,2.353348,107.27,NaN,0.0,52.528,,5 / 26,,1494,2022-01-10 18:39:00:116
-0.2506,-0.3431,9.7062,-0.2521,-0.3117,9.7985,0.0233,0.0457,-0.0115,0.0208,0.0316,1.0E-4,6.08,-17.47,-29.63,195.61,1.85,1.4,48.84389,2.353348,107.27,NaN,0.0,52.528,,5 / 26,,1499,2022-01-10 18:39:00:121
-0.2506,-0.3431,9.7062,-0.261,-0.3064,9.7984,0.0233,0.0457,-0.0115,0.0208,0.0316,1.0E-4,6.23,-17.4,-29.92,196.23,1.82,1.47,48.84389,2.353348,107.27,NaN,0.0,52.528,,5 / 26,,1505,2022-01-10 18:39:00:127
-0.2746,-0.2904,9.6847,-0.261,-0.3064,9.7984,0.0233,0.0457,-0.0115,0.0059,0.0134,1.0E-4,6.23,-17.4,-29.92,196.23,1.82,1.47,48.84389,2.353348,107.27,NaN,0.0,52.528,,5 / 26,,1509,2022-01-10 18:39:00:131
-0.2746,-0.2904,9.6847,-0.261,-0.3064,9.7984,0.0233,0.0457,-0.0115,0.0059,0.0134,1.0E-4,6.23,-17.4,-29.92,196.23,1.82,1.47,48.84389,2.353348,107.27,NaN,0.0,52.528,,5 / 26,,1515,2022-01-10 18:39:00:137
-0.2746,-0.2904,9.6847,-0.261,-0.3064,9.7984,0.0233,0.0457,-0.0115,0.0059,0.0134,1.0E-4,6.23,-17.4,-29.92,196.23,1.82,1.47,48.84389,2.353348,107.27,NaN,0.0,52.528,,5 / 26,,1520,2022-01-10 18:39:00:142
-0.2746,-0.2904,9.6847,-0.261,-0.3064,9.7984,0.0233,0.0457,-0.0115,0.0059,0.0134,1.0E-4,6.23,-17.4,-29.92,196.23,1.82,1.47,48.84389,2.353348,107.27,NaN,0.0,52.528,,5 / 26,,1524,2022-01-10 18:39:00:146
-0.2746,-0.2904,9.6847,-0.261,-0.3064,9.7984,-0.0509,0.0748,-0.0505,0.0059,0.0134,1.0E-4,6.23,-17.4,-29.92,196.23,1.82,1.47,48.84389,2.353348,107.27,NaN,0.0,52.528,,5 / 26,,1529,2022-01-10 18:39:00:151
-0.2698,-0.2617,9.5934,-0.2657,-0.3028,9.7984,-0.0509,0.0748,-0.0505,0.0059,0.0134,1.0E-4,5.85,-17.7,-29.78,196.23,1.82,1.47,48.84389,2.353348,107.27,NaN,0.0,52.528,,5 / 26,,1534,2022-01-10 18:39:00:156
-0.2698,-0.2617,9.5934,-0.2657,-0.3028,9.7984,-0.0509,0.0748,-0.0505,-0.0133,-0.0142,-0.0158,5.85,-17.7,-29.78,196.23,1.82,1.47,48.84389,2.353348,107.27,NaN,0.0,52.528,,5 / 26,,1540,2022-01-10 18:39:00:162
-0.2698,-0.2617,9.5934,-0.2657,-0.3028,9.7984,-0.0509,0.0748,-0.0505,-0.0133,-0.0142,-0.0158,5.85,-17.7,-29.78,196.23,1.82,1.47,48.84389,2.353348,107.27,NaN,0.0,52.528,,5 / 26,,1545,2022-01-10 18:39:00:167
-0.2698,-0.2617,9.5934,-0.2657,-0.3028,9.7984,-0.0509,0.0748,-0.0505,-0.0133,-0.0142,-0.0158,5.85,-17.7,-29.78,196.23,1.82,1.47,48.84389,2.353348,107.27,NaN,0.0,52.528,,5 / 26,,1549,2022-01-10 18:39:00:171
-0.2698,-0.2617,9.5934,-0.2657,-0.3028,9.7984,-0.0509,0.0748,-0.0505,-0.0133,-0.0142,-0.0158,5.85,-17.7,-29.78,196.23,1.82,1.47,48.84389,2.353348,107.27,NaN,0.0,52.528,,5 / 26,,1554,2022-01-10 18:39:00:176
-0.2698,-0.2617,9.5934,-0.2657,-0.3028,9.7984,-0.0509,0.0748,-0.0505,-0.0133,-0.0142,-0.0158,5.85,-17.7,-29.78,196.23,1.82,1.47,48.84389,2.353348,107.27,NaN,0.0,52.528,,5 / 26,,1560,2022-01-10 18:39:00:182
-0.3514,-0.3,9.8258,-0.2636,-0.3027,9.7984,-0.0339,0.0621,0.117,-0.0133,-0.0142,-0.0158,5.78,-17.78,-29.25,195.44,1.77,1.54,48.84389,2.353348,107.27,NaN,0.0,52.528,,5 / 26,,1564,2022-01-10 18:39:00:186
-0.3514,-0.3,9.8258,-0.2636,-0.3027,9.7984,-0.0339,0.0621,0.117,0.0016,0.0017,-0.0457,5.78,-17.78,-29.25,195.44,1.77,1.54,48.84389,2.353348,107.27,NaN,0.0,52.528,,5 / 26,,1569,2022-01-10 18:39:00:191
-0.3514,-0.3,9.8258,-0.2636,-0.3027,9.7984,-0.0339,0.0621,0.117,0.0016,0.0017,-0.0457,5.78,-17.78,-29.25,195.44,1.77,1.54,48.84389,2.353348,107.27,NaN,0.0,52.528,,5 / 26,,1575,2022-01-10 18:39:00:197
-0.3514,-0.3,9.8258,-0.2636,-0.3027,9.7984,-0.0339,0.0621,0.117,0.0016,0.0017,-0.0457,5.78,-17.78,-29.25,195.44,1.77,1.54,48.84389,2.353348,107.27,NaN,0.0,52.528,,5 / 26,,1579,2022-01-10 18:39:00:201
-0.3514,-0.3,9.8258,-0.2636,-0.3027,9.7984,-0.0339,0.0621,0.117,0.0016,0.0017,-0.0457,5.78,-17.78,-29.25,195.44,1.77,1.54,48.84389,2.353348,107.27,NaN,0.0,52.528,,5 / 26,,1585,2022-01-10 18:39:00:207
-0.265,-0.2713,9.6631,-0.2636,-0.3027,9.7984,-0.0339,0.0621,0.117,0.0016,0.0017,-0.0457,5.78,-17.78,-29.25,195.44,1.77,1.54,48.84389,2.353348,107.27,NaN,0.0,52.528,,5 / 26,,1590,2022-01-10 18:39:00:212
-0.265,-0.2713,9.6631,-0.2633,-0.3023,9.7985,0.0137,0.0378,-0.1432,0.0016,0.0017,-0.0457,5.78,-17.85,-29.25,195.44,1.77,1.54,48.84389,2.353348,107.27,NaN,0.0,52.528,,5 / 26,,1595,2022-01-10 18:39:00:217
-0.265,-0.2713,9.6631,-0.2633,-0.3023,9.7985,0.0137,0.0378,-0.1432,-0.0144,-0.0185,-0.1213,5.78,-17.85,-29.25,195.44,1.77,1.54,48.84389,2.353348,107.27,NaN,0.0,52.528,,5 / 26,,1599,2022-01-10 18:39:00:221
-0.265,-0.2713,9.6631,-0.2633,-0.3023,9.7985,0.0137,0.0378,-0.1432,-0.0144,-0.0185,-0.1213,5.78,-17.85,-29.25,195.44,1.77,1.54,48.84389,2.353348,107.27,NaN,0.0,52.528,,5 / 26,,1604,2022-01-10 18:39:00:226
-0.265,-0.2713,9.6631,-0.2633,-0.3023,9.7985,0.0137,0.0378,-0.1432,-0.0144,-0.0185,-0.1213,5.78,-17.85,-29.25,195.44,1.77,1.54,48.84389,2.353348,107.27,NaN,0.0,52.528,,5 / 26,,1610,2022-01-10 18:39:00:232
-0.265,-0.2713,9.6631,-0.2633,-0.3023,9.7985,0.0137,0.0378,-0.1432,-0.0144,-0.0185,-0.1213,5.78,-17.85,-29.25,195.44,1.77,1.54,48.84389,2.353348,107.27,NaN,0.0,52.528,,5 / 26,,1614,2022-01-10 18:39:00:236
-0.1143,-0.3335,9.7229,-0.2633,-0.3023,9.7985,0.0137,0.0378,-0.1432,-0.0144,-0.0185,-0.1213,5.78,-17.85,-29.25,195.44,1.77,1.54,48.84389,2.353348,107.27,NaN,0.0,52.528,,5 / 26,,1620,2022-01-10 18:39:00:242
-0.1143,-0.3335,9.7229,-0.2533,-0.3053,9.7986,0.1307,-0.0096,0.0203,-0.0144,-0.0185,-0.1213,6.38,-17.47,-29.32,196.34,1.78,1.48,48.84389,2.353348,107.27,NaN,0.0,52.528,,5 / 26,,1624,2022-01-10 18:39:00:246
-0.1143,-0.3335,9.7229,-0.2533,-0.3053,9.7986,0.1307,-0.0096,0.0203,0.008,0.0049,-0.2449,6.38,-17.47,-29.32,196.34,1.78,1.48,48.84389,2.353348,107.27,NaN,0.0,52.528,,5 / 26,,1629,2022-01-10 18:39:00:251
-0.1143,-0.3335,9.7229,-0.2533,-0.3053,9.7986,0.1307,-0.0096,0.0203,0.008,0.0049,-0.2449,6.38,-17.47,-29.32,196.34,1.78,1.48,48.84389,2.353348,107.27,NaN,0.0,52.528,,5 / 26,,1634,2022-01-10 18:39:00:256
-0.1143,-0.3335,9.7229,-0.2533,-0.3053,9.7986,0.1307,-0.0096,0.0203,0.008,0.0049,-0.2449,6.38,-17.47,-29.32,196.34,1.78,1.48,48.84389,2.353348,107.27,NaN,0.0,52.528,,5 / 26,,1639,2022-01-10 18:39:00:261
0.1564,-0.0915,9.6966,-0.2533,-0.3053,9.7986,0.1307,-0.0096,0.0203,0.008,0.0049,-0.2449,6.38,-17.47,-29.32,196.34,1.78,1.48,48.84389,2.353348,107.27,NaN,0.0,52.528,,5 / 26,,1645,2022-01-10 18:39:00:267
0.1564,-0.0915,9.6966,-0.2533,-0.3053,9.7986,0.1307,-0.0096,0.0203,0.008,0.0049,-0.2449,6.38,-17.47,-29.32,196.34,1.78,1.48,48.84389,2.353348,107.27,NaN,0.0,52.528,,5 / 26,,1649,2022-01-10 18:39:00:271
0.1564,-0.0915,9.6966,-0.239,-0.3006,9.7991,0.4196,0.2253,0.0196,0.008,0.0049,-0.2449,6.75,-17.1,-28.95,196.34,1.78,1.48,48.84389,2.353348,107.27,NaN,0.0,52.528,,5 / 26,,1655,2022-01-10 18:39:00:277
0.1564,-0.0915,9.6966,-0.239,-0.3006,9.7991,0.4196,0.2253,0.0196,0.008,0.0049,-0.2449,6.75,-17.1,-28.95,196.34,1.78,1.48,48.84389,2.353348,107.27,NaN,0.0,52.528,,5 / 26,,1659,2022-01-10 18:39:00:281
0.1564,-0.0915,9.6966,-0.239,-0.3006,9.7991,0.4196,0.2253,0.0196,0.0282,0.0656,-0.6177,6.75,-17.1,-28.95,196.34,1.78,1.48,48.84389,2.353348,107.27,NaN,0.0,52.528,,5 / 26,,1664,2022-01-10 18:39:00:286
0.1564,-0.0915,9.6966,-0.239,-0.3006,9.7991,0.4196,0.2253,0.0196,0.0282,0.0656,-0.6177,6.75,-17.1,-28.95,196.34,1.78,1.48,48.84389,2.353348,107.27,NaN,0.0,52.528,,5 / 26,,1669,2022-01-10 18:39:00:291
0.3577,0.0664,9.7708,-0.239,-0.3006,9.7991,0.4196,0.2253,0.0196,0.0282,0.0656,-0.6177,6.75,-17.1,-28.95,196.34,1.78,1.48,48.84389,2.353348,107.27,NaN,0.0,52.528,,5 / 26,,1675,2022-01-10 18:39:00:297
0.3577,0.0664,9.7708,-0.2263,-0.2845,9.7999,0.5892,0.3365,0.0921,0.0282,0.0656,-0.6177,6.75,-17.1,-28.95,196.34,1.78,1.48,48.84389,2.353348,107.27,NaN,0.0,52.528,,5 / 26,,1679,2022-01-10 18:39:00:301
0.3577,0.0664,9.7708,-0.2263,-0.2845,9.7999,0.5892,0.3365,0.0921,0.0282,0.0656,-0.6177,6.83,-17.25,-29.25,199.53,1.66,1.32,48.84389,2.353348,107.27,NaN,0.0,52.528,,5 / 26,,1685,2022-01-10 18:39:00:307
0.3577,0.0664,9.7708,-0.2263,-0.2845,9.7999,0.5892,0.3365,0.0921,0.0282,0.0656,-0.6177,6.83,-17.25,-29.25,199.53,1.66,1.32,48.84389,2.353348,107.27,NaN,0.0,52.528,,5 / 26,,1690,2022-01-10 18:39:00:312
0.3577,0.0664,9.7708,-0.2263,-0.2845,9.7999,0.5892,0.3365,0.0921,0.0431,0.0348,-0.9948,6.83,-17.25,-29.25,199.53,1.66,1.32,48.84389,2.353348,107.27,NaN,0.0,52.528,,5 / 26,,1694,2022-01-10 18:39:00:316
0.1062,0.105,9.6532,-0.2263,-0.2845,9.7999,0.5892,0.3365,0.0921,0.0431,0.0348,-0.9948,6.83,-17.25,-29.25,199.53,1.66,1.32,48.84389,2.353348,107.27,NaN,0.0,52.528,,5 / 26,,1700,2022-01-10 18:39:00:322
0.1062,0.105,9.6532,-0.2263,-0.2845,9.7999,0.5892,0.3365,0.0921,0.0431,0.0348,-0.9948,6.83,-17.25,-29.25,199.53,1.66,1.32,48.84389,2.353348,107.27,NaN,0.0,52.528,,5 / 26,,1705,2022-01-10 18:39:00:327
0.1062,0.105,9.6532,-0.2263,-0.2845,9.7999,0.5892,0.3365,0.0921,0.0431,0.0348,-0.9948,6.83,-17.25,-29.25,199.53,1.66,1.32,48.84389,2.353348,107.27,NaN,0.0,52.528,,5 / 26,,1710,2022-01-10 18:39:00:332
0.1062,0.105,9.6532,-0.212,-0.2594,9.8009,0.351,0.3655,-0.0958,0.0431,0.0348,-0.9948,6.6,-17.47,-29.4,199.53,1.66,1.32,48.84389,2.353348,107.27,NaN,0.0,52.528,,5 / 26,,1715,2022-01-10 18:39:00:337
0.1062,0.105,9.6532,-0.212,-0.2594,9.8009,0.351,0.3655,-0.0958,0.0431,0.0348,-0.9948,6.6,-17.47,-29.4,199.53,1.66,1.32,48.84389,2.353348,107.27,NaN,0.0,52.528,,5 / 26,,1720,2022-01-10 18:39:00:342
0.0679,-0.0843,9.778,-0.212,-0.2594,9.8009,0.351,0.3655,-0.0958,0.0399,0.0049,-1.3122,6.6,-17.47,-29.4,199.53,1.66,1.32,48.84389,2.353348,107.27,NaN,0.0,52.528,,5 / 26,,1725,2022-01-10 18:39:00:347
0.0679,-0.0843,9.778,-0.212,-0.2594,9.8009,0.351,0.3655,-0.0958,0.0399,0.0049,-1.3122,6.6,-17.47,-29.4,199.53,1.66,1.32,48.84389,2.353348,107.27,NaN,0.0,52.528,,5 / 26,,1730,2022-01-10 18:39:00:352
0.0679,-0.0843,9.778,-0.212,-0.2594,9.8009,0.351,0.3655,-0.0958,0.0399,0.0049,-1.3122,6.6,-17.47,-29.4,199.53,1.66,1.32,48.84389,2.353348,107.27,NaN,0.0,52.528,,5 / 26,,1735,2022-01-10 18:39:00:357
0.0679,-0.0843,9.778,-0.212,-0.2594,9.8009,0.351,0.3655,-0.0958,0.0399,0.0049,-1.3122,6.6,-17.47,-29.4,199.53,1.66,1.32,48.84389,2.353348,107.27,NaN,0.0,52.528,,5 / 26,,1741,2022-01-10 18:39:00:363
0.0679,-0.0843,9.778,-0.212,-0.2594,9.8009,0.351,0.3655,-0.0958,0.0399,0.0049,-1.3122,6.6,-17.47,-29.4,199.53,1.66,1.32,48.84389,2.353348,107.27,NaN,0.0,52.528,,5 / 26,,1744,2022-01-10 18:39:00:366
0.0679,-0.0843,9.778,-0.1861,-0.2435,9.8019,0.2655,-0.0348,0.0943,0.0399,0.0049,-1.3122,6.6,-17.47,-29.4,199.53,1.66,1.32,48.84389,2.353348,107.27,NaN,0.0,52.528,,5 / 26,,1750,2022-01-10 18:39:00:372
0.3673,-0.3885,9.7756,-0.1861,-0.2435,9.8019,0.2655,-0.0348,0.0943,0.0644,0.0071,-1.6222,7.58,-17.33,-28.95,202.8,1.42,1.09,48.84389,2.353348,107.27,NaN,0.0,52.528,,5 / 26,,1755,2022-01-10 18:39:00:377
0.3673,-0.3885,9.7756,-0.1861,-0.2435,9.8019,0.2655,-0.0348,0.0943,0.0644,0.0071,-1.6222,7.58,-17.33,-28.95,202.8,1.42,1.09,48.84389,2.353348,107.27,NaN,0.0,52.528,,5 / 26,,1759,2022-01-10 18:39:00:381
0.3673,-0.3885,9.7756,-0.1861,-0.2435,9.8019,0.2655,-0.0348,0.0943,0.0644,0.0071,-1.6222,7.58,-17.33,-28.95,202.8,1.42,1.09,48.84389,2.353348,107.27,NaN,0.0,52.528,,5 / 26,,1765,2022-01-10 18:39:00:387
0.3673,-0.3885,9.7756,-0.1861,-0.2435,9.8019,0.2655,-0.0348,0.0943,0.0644,0.0071,-1.6222,7.58,-17.33,-28.95,202.8,1.42,1.09,48.84389,2.353348,107.27,NaN,0.0,52.528,,5 / 26,,1769,2022-01-10 18:39:00:391
0.3673,-0.3885,9.7756,-0.1558,-0.2394,9.8025,0.4055,-0.1956,0.0335,0.0644,0.0071,-1.6222,7.58,-17.33,-28.95,202.8,1.42,1.09,48.84389,2.353348,107.27,NaN,0.0,52.528,,5 / 26,,1774,2022-01-10 18:39:00:396
0.2692,-0.3048,9.711,-0.1558,-0.2394,9.8025,0.4055,-0.1956,0.0335,0.0644,0.0071,-1.6222,7.58,-17.33,-28.95,202.8,1.42,1.09,48.84389,2.353348,107.27,NaN,0.0,52.528,,5 / 26,,1781,2022-01-10 18:39:00:403
0.2692,-0.3048,9.711,-0.1558,-0.2394,9.8025,0.4055,-0.1956,0.0335,0.0858,0.0326,-2.0335,7.58,-17.33,-28.95,202.8,1.42,1.09,48.84389,2.353348,107.27,NaN,0.0,52.528,,5 / 26,,1784,2022-01-10 18:39:00:406
0.2692,-0.3048,9.711,-0.1558,-0.2394,9.8025,0.4055,-0.1956,0.0335,0.0858,0.0326,-2.0335,7.58,-17.33,-28.95,202.8,1.42,1.09,48.84389,2.353348,107.27,NaN,0.0,52.528,,5 / 26,,1790,2022-01-10 18:39:00:412
0.2692,-0.3048,9.711,-0.1558,-0.2394,9.8025,0.4055,-0.1956,0.0335,0.0858,0.0326,-2.0335,8.93,-16.95,-28.8,202.8,1.42,1.09,48.84389,2.353348,107.27,NaN,0.0,52.528,,5 / 26,,1796,2022-01-10 18:39:00:418
0.2692,-0.3048,9.711,-0.1558,-0.2394,9.8025,0.4055,-0.1956,0.0335,0.0858,0.0326,-2.0335,8.93,-16.95,-28.8,202.8,1.42,1.09,48.84389,2.353348,107.27,NaN,0.0,52.528,,5 / 26,,1800,2022-01-10 18:39:00:422
0.2692,-0.3048,9.711,-0.1311,-0.2295,9.8031,0.3056,-0.008,-0.259,0.0858,0.0326,-2.0335,8.93,-16.95,-28.8,202.8,1.42,1.09,48.84389,2.353348,107.27,NaN,0.0,52.528,,5 / 26,,1804,2022-01-10 18:39:00:426
0.0272,-0.2378,9.5001,-0.1311,-0.2295,9.8031,0.3056,-0.008,-0.259,0.0858,0.0326,-2.0335,8.93,-16.95,-28.8,202.8,1.42,1.09,48.84389,2.353348,107.27,NaN,0.0,52.528,,5 / 26,,1810,2022-01-10 18:39:00:432
0.0272,-0.2378,9.5001,-0.1311,-0.2295,9.8031,0.3056,-0.008,-0.259,0.0037,0.0113,-2.3329,8.93,-16.95,-28.8,202.8,1.42,1.09,48.84389,2.353348,107.27,NaN,0.0,52.528,,5 / 26,,1814,2022-01-10 18:39:00:436
0.0272,-0.2378,9.5001,-0.1311,-0.2295,9.8031,0.3056,-0.008,-0.259,0.0037,0.0113,-2.3329,8.93,-16.95,-28.8,202.8,1.42,1.09,48.84389,2.353348,107.27,NaN,0.0,52.528,,5 / 26,,1819,2022-01-10 18:39:00:441
0.0272,-0.2378,9.5001,-0.1311,-0.2295,9.8031,0.3056,-0.008,-0.259,0.0037,0.0113,-2.3329,8.93,-16.95,-28.8,202.8,1.42,1.09,48.84389,2.353348,107.27,NaN,0.0,52.528,,5 / 26,,1824,2022-01-10 18:39:00:446
0.0272,-0.2378,9.5001,-0.1311,-0.2295,9.8031,0.3056,-0.008,-0.259,0.0037,0.0113,-2.3329,8.93,-16.95,-28.8,202.8,1.42,1.09,48.84389,2.353348,107.27,NaN,0.0,52.528,,5 / 26,,1829,2022-01-10 18:39:00:451
-0.2243,-0.3694,9.7229,-0.111,-0.2396,9.8031,-0.0725,-0.1431,0.0662,0.0037,0.0113,-2.3329,10.58,-16.58,-28.13,211.04,1.34,0.77,48.84389,2.353348,107.27,NaN,0.0,52.528,,5 / 26,,1835,2022-01-10 18:39:00:457
-0.2243,-0.3694,9.7229,-0.111,-0.2396,9.8031,-0.0725,-0.1431,0.0662,0.0037,0.0113,-2.3329,10.58,-16.58,-28.13,211.04,1.34,0.77,48.84389,2.353348,107.27,NaN,0.0,52.528,,5 / 26,,1839,2022-01-10 18:39:00:461
-0.2243,-0.3694,9.7229,-0.111,-0.2396,9.8031,-0.0725,-0.1431,0.0662,-5.0E-4,-0.108,-2.3776,10.58,-16.58,-28.13,211.04,1.34,0.77,48.84389,2.353348,107.27,NaN,0.0,52.528,,5 / 26,,1845,2022-01-10 18:39:00:467
-0.2243,-0.3694,9.7229,-0.111,-0.2396,9.8031,-0.0725,-0.1431,0.0662,-5.0E-4,-0.108,-2.3776,10.58,-16.58,-28.13,211.04,1.34,0.77,48.84389,2.353348,107.27,NaN,0.0,52.528,,5 / 26,,1850,2022-01-10 18:39:00:472
-0.2243,-0.3694,9.7229,-0.111,-0.2396,9.8031,-0.0725,-0.1431,0.0662,-5.0E-4,-0.108,-2.3776,10.58,-16.58,-28.13,211.04,1.34,0.77,48.84389,2.353348,107.27,NaN,0.0,52.528,,5 / 26,,1854,2022-01-10 18:39:00:476
-0.2243,-0.3694,9.7229,-0.111,-0.2396,9.8031,-0.0725,-0.1431,0.0662,-5.0E-4,-0.108,-2.3776,10.58,-16.58,-28.13,211.04,1.34,0.77,48.84389,2.353348,107.27,NaN,0.0,52.528,,5 / 26,,1860,2022-01-10 18:39:00:482
-0.131,-0.3981,9.6942,-0.0807,-0.2503,9.8031,-0.0725,-0.1431,0.0662,-5.0E-4,-0.108,-2.3776,12.68,-16.2,-27.75,211.04,1.34,0.77,48.84389,2.353348,107.27,NaN,0.0,52.528,,5 / 26,,1864,2022-01-10 18:39:00:486
-0.131,-0.3981,9.6942,-0.0807,-0.2503,9.8031,-0.0819,-0.1229,-0.0143,-5.0E-4,-0.108,-2.3776,12.68,-16.2,-27.75,211.04,1.34,0.77,48.84389,2.353348,107.27,NaN,0.0,52.528,,5 / 26,,1870,2022-01-10 18:39:00:492
-0.131,-0.3981,9.6942,-0.0807,-0.2503,9.8031,-0.0819,-0.1229,-0.0143,-0.024,-0.0995,-2.5054,12.68,-16.2,-27.75,211.04,1.34,0.77,48.84389,2.353348,107.27,NaN,0.0,52.528,,5 / 26,,1875,2022-01-10 18:39:00:497
-0.131,-0.3981,9.6942,-0.0807,-0.2503,9.8031,-0.0819,-0.1229,-0.0143,-0.024,-0.0995,-2.5054,12.68,-16.2,-27.75,211.04,1.34,0.77,48.84389,2.353348,107.27,NaN,0.0,52.528,,5 / 26,,1880,2022-01-10 18:39:00:502
-0.131,-0.3981,9.6942,-0.0807,-0.2503,9.8031,-0.0819,-0.1229,-0.0143,-0.024,-0.0995,-2.5054,12.68,-16.2,-27.75,211.04,1.34,0.77,48.84389,2.353348,107.27,NaN,0.0,52.528,,5 / 26,,1885,2022-01-10 18:39:00:507
0.1971,-0.6257,9.6775,-0.0221,-0.2706,9.8029,-0.0819,-0.1229,-0.0143,-0.024,-0.0995,-2.5054,12.68,-16.2,-27.75,211.04,1.34,0.77,48.84389,2.353348,107.27,NaN,0.0,52.528,,5 / 26,,1890,2022-01-10 18:39:00:512
0.1971,-0.6257,9.6775,-0.0221,-0.2706,9.8029,-0.0819,-0.1229,-0.0143,-0.024,-0.0995,-2.5054,14.78,-15.0,-27.53,223.45,1.58,0.13,48.84389,2.353348,107.27,NaN,0.0,52.528,,5 / 26,,1895,2022-01-10 18:39:00:517
0.1971,-0.6257,9.6775,-0.0221,-0.2706,9.8029,0.2045,-0.3728,-0.0134,-0.024,-0.0995,-2.5054,14.78,-15.0,-27.53,223.45,1.58,0.13,48.84389,2.353348,107.27,NaN,0.0,52.528,,5 / 26,,1900,2022-01-10 18:39:00:522
0.1971,-0.6257,9.6775,-0.0221,-0.2706,9.8029,0.2045,-0.3728,-0.0134,-0.024,-0.1027,-2.7675,14.78,-15.0,-27.53,223.45,1.58,0.13,48.84389,2.353348,107.27,NaN,0.0,52.528,,5 / 26,,1905,2022-01-10 18:39:00:527
0.1971,-0.6257,9.6775,-0.0221,-0.2706,9.8029,0.2045,-0.3728,-0.0134,-0.0538,-0.1027,-2.7675,14.78,-15.0,-27.53,223.45,1.58,0.13,48.84389,2.353348,107.27,NaN,0.0,52.528,,5 / 26,,1910,2022-01-10 18:39:00:532
0.3936,-0.6497,9.7062,-0.0221,-0.2706,9.8029,0.2045,-0.3728,-0.0134,-0.0538,-0.1027,-2.7675,14.78,-15.0,-27.53,223.45,1.58,0.13,48.84389,2.353348,107.27,NaN,0.0,52.528,,5 / 26,,1914,2022-01-10 18:39:00:536
0.3936,-0.6497,9.7062,-0.0221,-0.2706,9.8029,0.2045,-0.3728,-0.0134,-0.0538,-0.1027,-2.7675,14.78,-15.0,-27.53,223.45,1.58,0.13,48.84389,2.353348,107.27,NaN,0.0,52.528,,5 / 26,,1920,2022-01-10 18:39:00:542
0.3936,-0.6497,9.7062,0.0488,-0.3043,9.8018,0.1586,-0.3944,-0.0925,-0.0538,-0.1027,-2.7675,15.6,-13.65,-27.67,223.45,1.58,0.13,48.84389,2.353348,107.27,NaN,0.0,52.528,,5 / 26,,1926,2022-01-10 18:39:00:548
0.3936,-0.6497,9.7062,0.0488,-0.3043,9.8018,0.1586,-0.3944,-0.0925,-0.0538,-0.1027,-2.7675,15.6,-13.65,-27.67,223.45,1.58,0.13,48.84389,2.353348,107.27,NaN,0.0,52.528,,5 / 26,,1931,2022-01-10 18:39:00:553
0.3936,-0.6497,9.7062,0.0488,-0.3043,9.8018,0.1586,-0.3944,-0.0925,-0.0538,-0.1027,-2.7675,15.6,-13.65,-27.67,223.45,1.58,0.13,48.84389,2.353348,107.27,NaN,0.0,52.528,,5 / 26,,1934,2022-01-10 18:39:00:556
0.3936,-0.6497,9.7062,0.0488,-0.3043,9.8018,0.1586,-0.3944,-0.0925,-0.0911,-0.1527,-3.0498,15.6,-13.65,-27.67,223.45,1.58,0.13,48.84389,2.353348,107.27,NaN,0.0,52.528,,5 / 26,,1940,2022-01-10 18:39:00:562
-0.0808,-0.6879,9.7756,0.0488,-0.3043,9.8018,0.1586,-0.3944,-0.0925,-0.0911,-0.1527,-3.0498,15.6,-13.65,-27.67,223.45,1.58,0.13,48.84389,2.353348,107.27,NaN,0.0,52.528,,5 / 26,,1944,2022-01-10 18:39:00:566
-0.0808,-0.6879,9.7756,0.0488,-0.3043,9.8018,0.1586,-0.3944,-0.0925,-0.0911,-0.1527,-3.0498,15.6,-13.65,-27.67,223.45,1.58,0.13,48.84389,2.353348,107.27,NaN,0.0,52.528,,5 / 26,,1949,2022-01-10 18:39:00:571
-0.0808,-0.6879,9.7756,0.1169,-0.3382,9.8001,0.1586,-0.3944,-0.0925,-0.0911,-0.1527,-3.0498,15.6,-13.65,-27.67,223.45,1.58,0.13,48.84389,2.353348,107.27,NaN,0.0,52.528,,5 / 26,,1955,2022-01-10 18:39:00:577
-0.0808,-0.6879,9.7756,0.1169,-0.3382,9.8001,-0.1065,-0.441,0.021,-0.0911,-0.1527,-3.0498,15.6,-13.65,-27.67,223.45,1.58,0.13,48.84389,2.353348,107.27,NaN,0.0,52.528,,5 / 26,,1960,2022-01-10 18:39:00:582
-0.0808,-0.6879,9.7756,0.1169,-0.3382,9.8001,-0.1065,-0.441,0.021,-0.0911,-0.1527,-3.0498,17.18,-11.85,-28.5,233.18,1.98,-0.68,48.84389,2.353348,107.27,NaN,0.0,52.528,,5 / 26,,1965,2022-01-10 18:39:00:587
-0.1071,-0.8629,9.8545,0.1169,-0.3382,9.8001,-0.1065,-0.441,0.021,-0.073,-0.0526,-3.1893,17.18,-11.85,-28.5,233.18,1.98,-0.68,48.84389,2.353348,107.27,NaN,0.0,52.528,,5 / 26,,1969,2022-01-10 18:39:00:591
-0.1071,-0.8629,9.8545,0.1169,-0.3382,9.8001,-0.1065,-0.441,0.021,-0.073,-0.0526,-3.1893,17.18,-11.85,-28.5,233.18,1.98,-0.68,48.84389,2.353348,107.27,NaN,0.0,52.528,,5 / 26,,1974,2022-01-10 18:39:00:596
-0.1071,-0.8629,9.8545,0.1597,-0.3658,9.7985,-0.1065,-0.441,0.021,-0.073,-0.0526,-3.1893,17.18,-11.85,-28.5,233.18,1.98,-0.68,48.84389,2.353348,107.27,NaN,0.0,52.528,,5 / 26,,1980,2022-01-10 18:39:00:602
-0.1071,-0.8629,9.8545,0.1597,-0.3658,9.7985,-0.1065,-0.441,0.021,-0.073,-0.0526,-3.1893,17.18,-11.85,-28.5,233.18,1.98,-0.68,48.84389,2.353348,107.27,NaN,0.0,52.528,,5 / 26,,1985,2022-01-10 18:39:00:607
-0.1071,-0.8629,9.8545,0.1597,-0.3658,9.7985,0.0492,-0.4998,-0.1322,-0.073,-0.0526,-3.1893,17.18,-11.85,-28.5,233.18,1.98,-0.68,48.84389,2.353348,107.27,NaN,0.0,52.528,,5 / 26,,1989,2022-01-10 18:39:00:611
-0.1071,-0.8629,9.8545,0.1597,-0.3658,9.7985,0.0492,-0.4998,-0.1322,-0.073,-0.0526,-3.1893,17.18,-11.85,-28.5,233.18,1.98,-0.68,48.84389,2.353348,107.27,NaN,0.0,52.528,,5 / 26,,1994,2022-01-10 18:39:00:616
0.0894,-0.8557,9.7851,0.1597,-0.3658,9.7985,0.0492,-0.4998,-0.1322,-0.1113,-0.0707,-3.2202,17.18,-11.85,-28.5,233.18,1.98,-0.68,48.84389,2.353348,107.27,NaN,0.0,52.528,,5 / 26,,2001,2022-01-10 18:39:00:623
0.0894,-0.8557,9.7851,0.1597,-0.3658,9.7985,0.0492,-0.4998,-0.1322,-0.1113,-0.0707,-3.2202,19.35,-9.45,-29.1,233.18,1.98,-0.68,48.84389,2.353348,107.27,NaN,0.0,52.528,,5 / 26,,2005,2022-01-10 18:39:00:627
0.0894,-0.8557,9.7851,0.2078,-0.4007,9.7963,0.0492,-0.4998,-0.1322,-0.1113,-0.0707,-3.2202,19.35,-9.45,-29.1,233.18,1.98,-0.68,48.84389,2.353348,107.27,NaN,0.0,52.528,,5 / 26,,2010,2022-01-10 18:39:00:632
0.0894,-0.8557,9.7851,0.2078,-0.4007,9.7963,0.0492,-0.4998,-0.1322,-0.1113,-0.0707,-3.2202,19.35,-9.45,-29.1,233.18,1.98,-0.68,48.84389,2.353348,107.27,NaN,0.0,52.528,,5 / 26,,2014,2022-01-10 18:39:00:636
0.0894,-0.8557,9.7851,0.2078,-0.4007,9.7963,-0.2178,-0.4567,0.2171,-0.1113,-0.0707,-3.2202,19.35,-9.45,-29.1,233.18,1.98,-0.68,48.84389,2.353348,107.27,NaN,0.0,52.528,,5 / 26,,2019,2022-01-10 18:39:00:641
0.1301,-0.7382,9.9096,0.2078,-0.4007,9.7963,-0.2178,-0.4567,0.2171,-0.1113,-0.0707,-3.2202,19.35,-9.45,-29.1,233.18,1.98,-0.68,48.84389,2.353348,107.27,NaN,0.0,52.528,,5 / 26,,2024,2022-01-10 18:39:00:646
0.1301,-0.7382,9.9096,0.2078,-0.4007,9.7963,-0.2178,-0.4567,0.2171,-0.0154,0.0262,-3.1147,19.35,-9.45,-29.1,233.18,1.98,-0.68,48.84389,2.353348,107.27,NaN,0.0,52.528,,5 / 26,,2029,2022-01-10 18:39:00:651
0.1301,-0.7382,9.9096,0.2078,-0.4007,9.7963,-0.2178,-0.4567,0.2171,-0.0154,0.0262,-3.1147,19.35,-9.45,-29.1,233.18,1.98,-0.68,48.84389,2.353348,107.27,NaN,0.0,52.528,,5 / 26,,2034,2022-01-10 18:39:00:656
0.1301,-0.7382,9.9096,0.2424,-0.4093,9.7951,-0.2178,-0.4567,0.2171,-0.0154,0.0262,-3.1147,19.35,-9.45,-29.1,233.18,1.98,-0.68,48.84389,2.353348,107.27,NaN,0.0,52.528,,5 / 26,,2040,2022-01-10 18:39:00:662
0.1301,-0.7382,9.9096,0.2424,-0.4093,9.7951,-0.2178,-0.4567,0.2171,-0.0154,0.0262,-3.1147,20.63,-6.9,-29.92,249.28,2.39,-1.42,48.84389,2.353348,107.27,NaN,0.0,52.528,,5 / 26,,2044,2022-01-10 18:39:00:666
0.1301,-0.7382,9.9096,0.2424,-0.4093,9.7951,-0.087,-0.0595,0.2101,-0.0154,0.0262,-3.1147,20.63,-6.9,-29.92,249.28,2.39,-1.42,48.84389,2.353348,107.27,NaN,0.0,52.528,,5 / 26,,2049,2022-01-10 18:39:00:671
0.166,-0.288,9.7301,0.2424,-0.4093,9.7951,-0.087,-0.0595,0.2101,-0.0154,0.0262,-3.1147,20.63,-6.9,-29.92,249.28,2.39,-1.42,48.84389,2.353348,107.27,NaN,0.0,52.528,,5 / 26,,2054,2022-01-10 18:39:00:676
0.166,-0.288,9.7301,0.2424,-0.4093,9.7951,-0.087,-0.0595,0.2101,-0.0154,0.0262,-3.1147,20.63,-6.9,-29.92,249.28,2.39,-1.42,48.84389,2.353348,107.27,NaN,0.0,52.528,,5 / 26,,2059,2022-01-10 18:39:00:681
0.166,-0.288,9.7301,0.2424,-0.4093,9.7951,-0.087,-0.0595,0.2101,0.0453,0.1583,-3.0689,20.63,-6.9,-29.92,249.28,2.39,-1.42,48.84389,2.353348,107.27,NaN,0.0,52.528,,5 / 26,,2065,2022-01-10 18:39:00:687
0.166,-0.288,9.7301,0.2406,-0.3724,9.7966,-0.087,-0.0595,0.2101,0.0453,0.1583,-3.0689,20.63,-6.9,-29.92,249.28,2.39,-1.42,48.84389,2.353348,107.27,NaN,0.0,52.528,,5 / 26,,2070,2022-01-10 18:39:00:692
0.166,-0.288,9.7301,0.2406,-0.3724,9.7966,-0.087,-0.0595,0.2101,0.0453,0.1583,-3.0689,20.63,-6.9,-29.92,249.28,2.39,-1.42,48.84389,2.353348,107.27,NaN,0.0,52.528,,5 / 26,,2074,2022-01-10 18:39:00:696
0.1062,0.0377,9.603,0.2406,-0.3724,9.7966,0.098,0.3432,-0.2033,0.0453,0.1583,-3.0689,20.63,-6.9,-29.92,249.28,2.39,-1.42,48.84389,2.353348,107.27,NaN,0.0,52.528,,5 / 26,,2080,2022-01-10 18:39:00:702
0.1062,0.0377,9.603,0.2406,-0.3724,9.7966,0.098,0.3432,-0.2033,0.0453,0.1583,-3.0689,20.78,-3.82,-30.6,249.28,2.39,-1.42,48.84389,2.353348,107.27,NaN,0.0,52.528,,5 / 26,,2084,2022-01-10 18:39:00:706
0.1062,0.0377,9.603,0.2406,-0.3724,9.7966,0.098,0.3432,-0.2033,0.0453,0.1583,-3.0689,20.78,-3.82,-30.6,249.28,2.39,-1.42,48.84389,2.353348,107.27,NaN,0.0,52.528,,5 / 26,,2089,2022-01-10 18:39:00:711
0.1062,0.0377,9.603,0.2406,-0.3724,9.7966,0.098,0.3432,-0.2033,0.0453,0.1583,-3.0689,20.78,-3.82,-30.6,249.28,2.39,-1.42,48.84389,2.353348,107.27,NaN,0.0,52.528,,5 / 26,,2095,2022-01-10 18:39:00:717
0.1062,0.0377,9.603,0.2635,-0.3373,9.7973,0.098,0.3432,-0.2033,-0.0506,-0.0856,-3.0562,20.78,-3.82,-30.6,249.28,2.39,-1.42,48.84389,2.353348,107.27,NaN,0.0,52.528,,5 / 26,,2099,2022-01-10 18:39:00:721
0.2333,-0.2043,9.6174,0.2635,-0.3373,9.7973,0.098,0.3432,-0.2033,-0.0506,-0.0856,-3.0562,20.78,-3.82,-30.6,249.28,2.39,-1.42,48.84389,2.353348,107.27,NaN,0.0,52.528,,5 / 26,,2104,2022-01-10 18:39:00:726
0.2333,-0.2043,9.6174,0.2635,-0.3373,9.7973,-0.0401,0.1746,-0.0421,-0.0506,-0.0856,-3.0562,20.78,-3.82,-30.6,249.28,2.39,-1.42,48.84389,2.353348,107.27,NaN,0.0,52.528,,5 / 26,,2110,2022-01-10 18:39:00:732
0.2333,-0.2043,9.6174,0.2635,-0.3373,9.7973,-0.0401,0.1746,-0.0421,-0.0506,-0.0856,-3.0562,20.85,-1.42,-30.75,264.64,1.97,-1.54,48.84389,2.353348,107.27,NaN,0.0,52.528,,5 / 26,,2115,2022-01-10 18:39:00:737
0.2333,-0.2043,9.6174,0.2635,-0.3373,9.7973,-0.0401,0.1746,-0.0421,-0.0506,-0.0856,-3.0562,20.85,-1.42,-30.75,264.64,1.97,-1.54,48.84389,2.353348,107.27,NaN,0.0,52.528,,5 / 26,,2119,2022-01-10 18:39:00:741
0.2333,-0.2043,9.6174,0.3237,-0.3202,9.7961,-0.0401,0.1746,-0.0421,-0.0506,-0.0856,-3.0562,20.85,-1.42,-30.75,264.64,1.97,-1.54,48.84389,2.353348,107.27,NaN,0.0,52.528,,5 / 26,,2125,2022-01-10 18:39:00:747
0.2333,-0.2043,9.6174,0.3237,-0.3202,9.7961,-0.0401,0.1746,-0.0421,-0.0112,-0.0675,-3.249,20.85,-1.42,-30.75,264.64,1.97,-1.54,48.84389,2.353348,107.27,NaN,0.0,52.528,,5 / 26,,2129,2022-01-10 18:39:00:751
0.2644,-0.7071,9.8402,0.3237,-0.3202,9.7961,-0.0401,0.1746,-0.0421,-0.0112,-0.0675,-3.249,20.85,-1.42,-30.75,264.64,1.97,-1.54,48.84389,2.353348,107.27,NaN,0.0,52.528,,5 / 26,,2134,2022-01-10 18:39:00:756
0.2644,-0.7071,9.8402,0.3237,-0.3202,9.7961,-0.1547,-0.3842,0.125,-0.0112,-0.0675,-3.249,20.85,-1.42,-30.75,264.64,1.97,-1.54,48.84389,2.353348,107.27,NaN,0.0,52.528,,5 / 26,,2140,2022-01-10 18:39:00:762
0.2644,-0.7071,9.8402,0.3237,-0.3202,9.7961,-0.1547,-0.3842,0.125,-0.0112,-0.0675,-3.249,21.6,0.68,-31.2,264.64,1.97,-1.54,48.84389,2.353348,107.27,NaN,0.0,52.528,,5 / 26,,2144,2022-01-10 18:39:00:766
0.2644,-0.7071,9.8402,0.3237,-0.3202,9.7961,-0.1547,-0.3842,0.125,-0.0112,-0.0675,-3.249,21.6,0.68,-31.2,264.64,1.97,-1.54,48.84389,2.353348,107.27,NaN,0.0,52.528,,5 / 26,,2150,2022-01-10 18:39:00:772
0.2644,-0.7071,9.8402,0.3237,-0.3202,9.7961,-0.1547,-0.3842,0.125,-0.0112,-0.0675,-3.249,21.6,0.68,-31.2,264.64,1.97,-1.54,48.84389,2.353348,107.27,NaN,0.0,52.528,,5 / 26,,2154,2022-01-10 18:39:00:776
0.329,-0.5587,9.7038,0.3528,-0.3055,9.7955,-0.1547,-0.3842,0.125,0.025,0.088,-3.2862,21.6,0.68,-31.2,264.64,1.97,-1.54,48.84389,2.353348,107.27,NaN,0.0,52.528,,5 / 26,,2159,2022-01-10 18:39:00:781
0.329,-0.5587,9.7038,0.3528,-0.3055,9.7955,-0.1547,-0.3842,0.125,0.025,0.088,-3.2862,21.6,0.68,-31.2,264.64,1.97,-1.54,48.84389,2.353348,107.27,NaN,0.0,52.528,,5 / 26,,2164,2022-01-10 18:39:00:786
0.329,-0.5587,9.7038,0.3528,-0.3055,9.7955,-0.1547,-0.3842,0.125,0.025,0.088,-3.2862,21.6,0.68,-31.2,264.64,1.97,-1.54,48.84389,2.353348,107.27,NaN,0.0,52.528,,5 / 26,,2169,2022-01-10 18:39:00:791
0.329,-0.5587,9.7038,0.3528,-0.3055,9.7955,0.0779,-0.1246,-0.0904,0.025,0.088,-3.2862,21.6,0.68,-31.2,264.64,1.97,-1.54,48.84389,2.353348,107.27,NaN,0.0,52.528,,5 / 26,,2174,2022-01-10 18:39:00:796
0.329,-0.5587,9.7038,0.3528,-0.3055,9.7955,0.0779,-0.1246,-0.0904,0.025,0.088,-3.2862,21.6,0.68,-31.2,264.64,1.97,-1.54,48.84389,2.353348,107.27,NaN,0.0,52.528,,5 / 26,,2180,2022-01-10 18:39:00:802
0.329,-0.5587,9.7038,0.3528,-0.3055,9.7955,0.0779,-0.1246,-0.0904,0.025,0.088,-3.2862,21.68,3.08,-30.97,275.09,1.78,-2.06,48.84389,2.353348,107.27,NaN,0.0,52.528,,5 / 26,,2185,2022-01-10 18:39:00:807
0.2716,-0.2928,9.6054,0.3657,-0.2708,9.7961,0.0779,-0.1246,-0.0904,0.0048,-0.0142,-3.4119,21.68,3.08,-30.97,275.09,1.78,-2.06,48.84389,2.353348,107.27,NaN,0.0,52.528,,5 / 26,,2189,2022-01-10 18:39:00:811
0.2716,-0.2928,9.6054,0.3657,-0.2708,9.7961,0.0779,-0.1246,-0.0904,0.0048,-0.0142,-3.4119,21.68,3.08,-30.97,275.09,1.78,-2.06,48.84389,2.353348,107.27,NaN,0.0,52.528,,5 / 26,,2194,2022-01-10 18:39:00:816
0.2716,-0.2928,9.6054,0.3657,-0.2708,9.7961,0.0779,-0.1246,-0.0904,0.0048,-0.0142,-3.4119,21.68,3.08,-30.97,275.09,1.78,-2.06,48.84389,2.353348,107.27,NaN,0.0,52.528,,5 / 26,,2200,2022-01-10 18:39:00:822
0.2716,-0.2928,9.6054,0.3657,-0.2708,9.7961,-0.1023,0.0259,-0.1571,0.0048,-0.0142,-3.4119,21.68,3.08,-30.97,275.09,1.78,-2.06,48.84389,2.353348,107.27,NaN,0.0,52.528,,5 / 26,,2204,2022-01-10 18:39:00:826
0.2716,-0.2928,9.6054,0.3657,-0.2708,9.7961,-0.1023,0.0259,-0.1571,0.0048,-0.0142,-3.4119,21.68,3.08,-30.97,275.09,1.78,-2.06,48.84389,2.353348,107.27,NaN,0.0,52.528,,5 / 26,,2210,2022-01-10 18:39:00:832
0.0464,-0.0915,9.548,0.3936,-0.2388,9.7958,-0.1023,0.0259,-0.1571,0.0048,-0.0142,-3.4119,20.63,4.8,-30.45,275.09,1.78,-2.06,48.84389,2.353348,107.27,NaN,0.0,52.528,,5 / 26,,2215,2022-01-10 18:39:00:837
0.0464,-0.0915,9.548,0.3936,-0.2388,9.7958,-0.1023,0.0259,-0.1571,-0.0527,-0.1197,-3.3257,20.63,4.8,-30.45,275.09,1.78,-2.06,48.84389,2.353348,107.27,NaN,0.0,52.528,,5 / 26,,2219,2022-01-10 18:39:00:841
0.0464,-0.0915,9.548,0.3936,-0.2388,9.7958,-0.1023,0.0259,-0.1571,-0.0527,-0.1197,-3.3257,20.63,4.8,-30.45,275.09,1.78,-2.06,48.84389,2.353348,107.27,NaN,0.0,52.528,,5 / 26,,2224,2022-01-10 18:39:00:846
0.0464,-0.0915,9.548,0.3936,-0.2388,9.7958,-0.1023,0.0259,-0.1571,-0.0527,-0.1197,-3.3257,20.63,4.8,-30.45,275.09,1.78,-2.06,48.84389,2.353348,107.27,NaN,0.0,52.528,,5 / 26,,2229,2022-01-10 18:39:00:851
0.0464,-0.0915,9.548,0.3936,-0.2388,9.7958,-0.5676,0.0175,0.0183,-0.0527,-0.1197,-3.3257,20.63,4.8,-30.45,275.09,1.78,-2.06,48.84389,2.353348,107.27,NaN,0.0,52.528,,5 / 26,,2235,2022-01-10 18:39:00:857
-0.2506,-0.3718,9.6631,0.3936,-0.2388,9.7958,-0.5676,0.0175,0.0183,-0.0527,-0.1197,-3.3257,20.63,4.8,-30.45,275.09,1.78,-2.06,48.84389,2.353348,107.27,NaN,0.0,52.528,,5 / 26,,2239,2022-01-10 18:39:00:861
-0.2506,-0.3718,9.6631,0.4206,-0.2111,9.7954,-0.5676,0.0175,0.0183,-0.0527,-0.1197,-3.3257,20.63,4.8,-30.45,275.09,1.78,-2.06,48.84389,2.353348,107.27,NaN,0.0,52.528,,5 / 26,,2245,2022-01-10 18:39:00:867
-0.2506,-0.3718,9.6631,0.4206,-0.2111,9.7954,-0.5676,0.0175,0.0183,-0.0218,-0.0899,-3.0455,20.63,4.8,-30.45,275.09,1.78,-2.06,48.84389,2.353348,107.27,NaN,0.0,52.528,,5 / 26,,2250,2022-01-10 18:39:00:872
-0.2506,-0.3718,9.6631,0.4206,-0.2111,9.7954,-0.5676,0.0175,0.0183,-0.0218,-0.0899,-3.0455,18.83,7.88,-30.45,289.98,1.23,-2.46,48.84389,2.353348,107.27,NaN,0.0,52.528,,5 / 26,,2254,2022-01-10 18:39:00:876
-0.2506,-0.3718,9.6631,0.4206,-0.2111,9.7954,-0.5676,0.0175,0.0183,-0.0218,-0.0899,-3.0455,18.83,7.88,-30.45,289.98,1.23,-2.46,48.84389,2.353348,107.27,NaN,0.0,52.528,,5 / 26,,2259,2022-01-10 18:39:00:881
-0.3443,-0.3694,10.0176,0.4206,-0.2111,9.7954,-0.6101,-0.1207,0.0594,-0.0218,-0.0899,-3.0455,18.83,7.88,-30.45,289.98,1.23,-2.46,48.84389,2.353348,107.27,NaN,0.0,52.528,,5 / 26,,2265,2022-01-10 18:39:00:887
-0.3443,-0.3694,10.0176,0.4206,-0.2111,9.7954,-0.6101,-0.1207,0.0594,-0.0218,-0.0899,-3.0455,18.83,7.88,-30.45,289.98,1.23,-2.46,48.84389,2.353348,107.27,NaN,0.0,52.528,,5 / 26,,2270,2022-01-10 18:39:00:892
-0.3443,-0.3694,10.0176,0.4322,-0.1859,9.7954,-0.6101,-0.1207,0.0594,-0.0218,-0.0899,-3.0455,18.83,7.88,-30.45,289.98,1.23,-2.46,48.84389,2.353348,107.27,NaN,0.0,52.528,,5 / 26,,2274,2022-01-10 18:39:00:896
-0.3443,-0.3694,10.0176,0.4322,-0.1859,9.7954,-0.6101,-0.1207,0.0594,0.0218,-0.0153,-2.9603,18.83,7.88,-30.45,289.98,1.23,-2.46,48.84389,2.353348,107.27,NaN,0.0,52.528,,5 / 26,,2280,2022-01-10 18:39:00:902
-0.3443,-0.3694,10.0176,0.4322,-0.1859,9.7954,-0.6101,-0.1207,0.0594,0.0218,-0.0153,-2.9603,17.85,10.13,-30.22,289.98,1.23,-2.46,48.84389,2.353348,107.27,NaN,0.0,52.528,,5 / 26,,2284,2022-01-10 18:39:00:906
-0.3443,-0.3694,10.0176,0.4322,-0.1859,9.7954,-0.6101,-0.1207,0.0594,0.0218,-0.0153,-2.9603,17.85,10.13,-30.22,289.98,1.23,-2.46,48.84389,2.353348,107.27,NaN,0.0,52.528,,5 / 26,,2290,2022-01-10 18:39:00:912
0.492,-0.1825,9.6894,0.4322,-0.1859,9.7954,-0.4645,-0.1698,0.066,0.0218,-0.0153,-2.9603,17.85,10.13,-30.22,289.98,1.23,-2.46,48.84389,2.353348,107.27,NaN,0.0,52.528,,5 / 26,,2295,2022-01-10 18:39:00:917
0.492,-0.1825,9.6894,0.4322,-0.1859,9.7954,-0.4645,-0.1698,0.066,0.0218,-0.0153,-2.9603,17.85,10.13,-30.22,289.98,1.23,-2.46,48.84389,2.353348,107.27,NaN,0.0,52.528,,5 / 26,,2299,2022-01-10 18:39:00:921
0.492,-0.1825,9.6894,0.4277,-0.1444,9.7963,-0.4645,-0.1698,0.066,0.0218,-0.0153,-2.9603,17.85,10.13,-30.22,289.98,1.23,-2.46,48.84389,2.353348,107.27,NaN,0.0,52.528,,5 / 26,,2304,2022-01-10 18:39:00:926
0.492,-0.1825,9.6894,0.4277,-0.1444,9.7963,-0.4645,-0.1698,0.066,0.0368,0.0028,-3.1584,17.85,10.13,-30.22,289.98,1.23,-2.46,48.84389,2.353348,107.27,NaN,0.0,52.528,,5 / 26,,2310,2022-01-10 18:39:00:932
0.492,-0.1825,9.6894,0.4277,-0.1444,9.7963,-0.4645,-0.1698,0.066,0.0368,0.0028,-3.1584,17.25,11.93,-30.0,302.31,0.84,-2.5,48.84389,2.353348,107.27,NaN,0.0,52.528,,5 / 26,,2314,2022-01-10 18:39:00:936
0.8297,-0.0939,9.7421,0.4277,-0.1444,9.7963,-0.4645,-0.1698,0.066,0.0368,0.0028,-3.1584,17.25,11.93,-30.0,302.31,0.84,-2.5,48.84389,2.353348,107.27,NaN,0.0,52.528,,5 / 26,,2320,2022-01-10 18:39:00:942
0.8297,-0.0939,9.7421,0.4277,-0.1444,9.7963,0.3684,0.0467,0.0184,0.0368,0.0028,-3.1584,17.25,11.93,-30.0,302.31,0.84,-2.5,48.84389,2.353348,107.27,NaN,0.0,52.528,,5 / 26,,2325,2022-01-10 18:39:00:947
0.8297,-0.0939,9.7421,0.4277,-0.1444,9.7963,0.3684,0.0467,0.0184,0.0368,0.0028,-3.1584,17.25,11.93,-30.0,302.31,0.84,-2.5,48.84389,2.353348,107.27,NaN,0.0,52.528,,5 / 26,,2331,2022-01-10 18:39:00:953
0.8297,-0.0939,9.7421,0.4578,-0.0894,9.7956,0.3684,0.0467,0.0184,0.0368,0.0028,-3.1584,17.25,11.93,-30.0,302.31,0.84,-2.5,48.84389,2.353348,107.27,NaN,0.0,52.528,,5 / 26,,2334,2022-01-10 18:39:00:956
0.8297,-0.0939,9.7421,0.4578,-0.0894,9.7956,0.3684,0.0467,0.0184,0.0048,-0.1059,-3.4556,17.25,11.93,-30.0,302.31,0.84,-2.5,48.84389,2.353348,107.27,NaN,0.0,52.528,,5 / 26,,2340,2022-01-10 18:39:00:962
0.8297,-0.0939,9.7421,0.4578,-0.0894,9.7956,0.3684,0.0467,0.0184,0.0048,-0.1059,-3.4556,17.25,11.93,-30.0,302.31,0.84,-2.5,48.84389,2.353348,107.27,NaN,0.0,52.528,,5 / 26,,2345,2022-01-10 18:39:00:967
0.4415,-0.3263,9.687,0.4578,-0.0894,9.7956,0.3684,0.0467,0.0184,0.0048,-0.1059,-3.4556,17.25,11.93,-30.0,302.31,0.84,-2.5,48.84389,2.353348,107.27,NaN,0.0,52.528,,5 / 26,,2349,2022-01-10 18:39:00:971
0.4415,-0.3263,9.687,0.4578,-0.0894,9.7956,-0.0329,-0.2878,-0.0471,0.0048,-0.1059,-3.4556,15.98,14.33,-29.47,302.31,0.84,-2.5,48.84389,2.353348,107.27,NaN,0.0,52.528,,5 / 26,,2355,2022-01-10 18:39:00:977
0.4415,-0.3263,9.687,0.4578,-0.0894,9.7956,-0.0329,-0.2878,-0.0471,0.0048,-0.1059,-3.4556,15.98,14.33,-29.47,302.31,0.84,-2.5,48.84389,2.353348,107.27,NaN,0.0,52.528,,5 / 26,,2359,2022-01-10 18:39:00:981
0.4415,-0.3263,9.687,0.5044,-0.0524,9.7935,-0.0329,-0.2878,-0.0471,0.0048,-0.1059,-3.4556,15.98,14.33,-29.47,302.31,0.84,-2.5,48.84389,2.353348,107.27,NaN,0.0,52.528,,5 / 26,,2364,2022-01-10 18:39:00:986
0.4415,-0.3263,9.687,0.5044,-0.0524,9.7935,-0.0329,-0.2878,-0.0471,0.0048,-0.1059,-3.4556,15.98,14.33,-29.47,302.31,0.84,-2.5,48.84389,2.353348,107.27,NaN,0.0,52.528,,5 / 26,,2370,2022-01-10 18:39:00:992
-0.1143,-0.6808,9.8067,0.5044,-0.0524,9.7935,-0.0329,-0.2878,-0.0471,-0.0325,-0.1719,-3.6942,15.98,14.33,-29.47,302.31,0.84,-2.5,48.84389,2.353348,107.27,NaN,0.0,52.528,,5 / 26,,2374,2022-01-10 18:39:00:996
-0.1143,-0.6808,9.8067,0.5044,-0.0524,9.7935,-0.0329,-0.2878,-0.0471,-0.0325,-0.1719,-3.6942,15.98,14.33,-29.47,302.31,0.84,-2.5,48.84389,2.353348,107.27,NaN,0.0,52.528,,5 / 26,,2380,2022-01-10 18:39:01:002
-0.1143,-0.6808,9.8067,0.5044,-0.0524,9.7935,-0.5619,-0.5993,0.0039,-0.0325,-0.1719,-3.6942,14.78,15.83,-29.03,313.9,0.31,-2.95,48.84389,2.353348,107.27,NaN,0.0,52.528,,5 / 26,,2384,2022-01-10 18:39:01:006
-0.1143,-0.6808,9.8067,0.5044,-0.0524,9.7935,-0.5619,-0.5993,0.0039,-0.0325,-0.1719,-3.6942,14.78,15.83,-29.03,313.9,0.31,-2.95,48.84389,2.353348,107.27,NaN,0.0,52.528,,5 / 26,,2389,2022-01-10 18:39:01:011
-0.1143,-0.6808,9.8067,0.5044,-0.0524,9.7935,-0.5619,-0.5993,0.0039,-0.0325,-0.1719,-3.6942,14.78,15.83,-29.03,313.9,0.31,-2.95,48.84389,2.353348,107.27,NaN,0.0,52.528,,5 / 26,,2395,2022-01-10 18:39:01:017
-0.0159,-0.3766,9.5815,0.5295,-0.0347,9.7923,-0.5619,-0.5993,0.0039,-0.0325,-0.1719,-3.6942,14.78,15.83,-29.03,313.9,0.31,-2.95,48.84389,2.353348,107.27,NaN,0.0,52.528,,5 / 26,,2399,2022-01-10 18:39:01:021
-0.0159,-0.3766,9.5815,0.5295,-0.0347,9.7923,-0.5619,-0.5993,0.0039,-0.0527,0.0678,-3.6623,14.78,15.83,-29.03,313.9,0.31,-2.95,48.84389,2.353348,107.27,NaN,0.0,52.528,,5 / 26,,2405,2022-01-10 18:39:01:027
-0.0159,-0.3766,9.5815,0.5295,-0.0347,9.7923,-0.5619,-0.5993,0.0039,-0.0527,0.0678,-3.6623,14.78,15.83,-29.03,313.9,0.31,-2.95,48.84389,2.353348,107.27,NaN,0.0,52.528,,5 / 26,,2409,2022-01-10 18:39:01:031
-0.0159,-0.3766,9.5815,0.5295,-0.0347,9.7923,-0.4532,-0.2249,-0.2915,-0.0527,0.0678,-3.6623,13.58,16.95,-28.72,313.9,0.31,-2.95,48.84389,2.353348,107.27,NaN,0.0,52.528,,5 / 26,,2416,2022-01-10 18:39:01:038
-0.0159,-0.3766,9.5815,0.5295,-0.0347,9.7923,-0.4532,-0.2249,-0.2915,-0.0527,0.0678,-3.6623,13.58,16.95,-28.72,313.9,0.31,-2.95,48.84389,2.353348,107.27,NaN,0.0,52.528,,5 / 26,,2419,2022-01-10 18:39:01:041
-0.0159,-0.3766,9.5815,0.4955,-0.0076,9.7941,-0.4532,-0.2249,-0.2915,-0.0527,0.0678,-3.6623,13.58,16.95,-28.72,313.9,0.31,-2.95,48.84389,2.353348,107.27,NaN,0.0,52.528,,5 / 26,,2424,2022-01-10 18:39:01:046
0.25,0.0739,9.7182,0.4955,-0.0076,9.7941,-0.4532,-0.2249,-0.2915,-0.0527,0.0678,-3.6623,13.58,16.95,-28.72,313.9,0.31,-2.95,48.84389,2.353348,107.27,NaN,0.0,52.528,,5 / 26,,2430,2022-01-10 18:39:01:052
0.25,0.0739,9.7182,0.4955,-0.0076,9.7941,-0.4532,-0.2249,-0.2915,-0.0059,0.0177,-3.6378,13.58,16.95,-28.72,313.9,0.31,-2.95,48.84389,2.353348,107.27,NaN,0.0,52.528,,5 / 26,,2435,2022-01-10 18:39:01:057
0.25,0.0739,9.7182,0.4955,-0.0076,9.7941,-0.4532,-0.2249,-0.2915,-0.0059,0.0177,-3.6378,13.58,16.95,-28.72,313.9,0.31,-2.95,48.84389,2.353348,107.27,NaN,0.0,52.528,,5 / 26,,2439,2022-01-10 18:39:01:061
0.25,0.0739,9.7182,0.4955,-0.0076,9.7941,-0.4532,-0.2249,-0.2915,-0.0059,0.0177,-3.6378,13.58,16.95,-28.72,313.9,0.31,-2.95,48.84389,2.353348,107.27,NaN,0.0,52.528,,5 / 26,,2445,2022-01-10 18:39:01:067
0.25,0.0739,9.7182,0.4955,-0.0076,9.7941,-0.0346,0.2728,0.1501,-0.0059,0.0177,-3.6378,13.58,16.95,-28.72,313.9,0.31,-2.95,48.84389,2.353348,107.27,NaN,0.0,52.528,,5 / 26,,2449,2022-01-10 18:39:01:071
0.6356,0.4235,9.6485,0.4738,0.0574,9.795,-0.0346,0.2728,0.1501,-0.0059,0.0177,-3.6378,11.03,18.3,-28.42,325.4,0.04,-2.9,48.84389,2.353348,107.27,NaN,0.0,52.528,,5 / 26,,2455,2022-01-10 18:39:01:077
0.6356,0.4235,9.6485,0.4738,0.0574,9.795,-0.0346,0.2728,0.1501,-0.0059,0.0177,-3.6378,11.03,18.3,-28.42,325.4,0.04,-2.9,48.84389,2.353348,107.27,NaN,0.0,52.528,,5 / 26,,2460,2022-01-10 18:39:01:082
0.6356,0.4235,9.6485,0.4738,0.0574,9.795,-0.0346,0.2728,0.1501,-0.0059,0.0177,-3.6378,11.03,18.3,-28.42,325.4,0.04,-2.9,48.84389,2.353348,107.27,NaN,0.0,52.528,,5 / 26,,2465,2022-01-10 18:39:01:087
0.6356,0.4235,9.6485,0.4738,0.0574,9.795,-0.0346,0.2728,0.1501,-0.0101,0.121,-3.6825,11.03,18.3,-28.42,325.4,0.04,-2.9,48.84389,2.353348,107.27,NaN,0.0,52.528,,5 / 26,,2470,2022-01-10 18:39:01:092
0.6356,0.4235,9.6485,0.4738,0.0574,9.795,-0.0346,0.2728,0.1501,-0.0101,0.121,-3.6825,11.03,18.3,-28.42,325.4,0.04,-2.9,48.84389,2.353348,107.27,NaN,0.0,52.528,,5 / 26,,2474,2022-01-10 18:39:01:096
0.6356,0.4235,9.6485,0.4738,0.0574,9.795,-0.0648,0.1599,-0.1286,-0.0101,0.121,-3.6825,11.03,18.3,-28.42,325.4,0.04,-2.9,48.84389,2.353348,107.27,NaN,0.0,52.528,,5 / 26,,2479,2022-01-10 18:39:01:101
0.2189,0.16,9.6847,0.4415,0.1059,9.7961,-0.0648,0.1599,-0.1286,-0.0101,0.121,-3.6825,9.38,19.35,-28.13,325.4,0.04,-2.9,48.84389,2.353348,107.27,NaN,0.0,52.528,,5 / 26,,2485,2022-01-10 18:39:01:107
0.2189,0.16,9.6847,0.4415,0.1059,9.7961,-0.0648,0.1599,-0.1286,-0.0101,0.121,-3.6825,9.38,19.35,-28.13,325.4,0.04,-2.9,48.84389,2.353348,107.27,NaN,0.0,52.528,,5 / 26,,2489,2022-01-10 18:39:01:111
0.2189,0.16,9.6847,0.4415,0.1059,9.7961,-0.0648,0.1599,-0.1286,-0.0101,0.121,-3.6825,9.38,19.35,-28.13,325.4,0.04,-2.9,48.84389,2.353348,107.27,NaN,0.0,52.528,,5 / 26,,2496,2022-01-10 18:39:01:118
0.2189,0.16,9.6847,0.4415,0.1059,9.7961,-0.0648,0.1599,-0.1286,-0.0112,-0.0569,-3.7592,9.38,19.35,-28.13,325.4,0.04,-2.9,48.84389,2.353348,107.27,NaN,0.0,52.528,,5 / 26,,2500,2022-01-10 18:39:01:122
0.2189,0.16,9.6847,0.4415,0.1059,9.7961,-0.0648,0.1599,-0.1286,-0.0112,-0.0569,-3.7592,9.38,19.35,-28.13,325.4,0.04,-2.9,48.84389,2.353348,107.27,NaN,0.0,52.528,,5 / 26,,2505,2022-01-10 18:39:01:127
0.2189,0.16,9.6847,0.4415,0.1059,9.7961,-0.079,-0.1313,0.1998,-0.0112,-0.0569,-3.7592,9.38,19.35,-28.13,325.4,0.04,-2.9,48.84389,2.353348,107.27,NaN,0.0,52.528,,5 / 26,,2510,2022-01-10 18:39:01:132
0.4558,0.0162,9.9215,0.4257,0.1443,9.7963,-0.079,-0.1313,0.1998,-0.0112,-0.0569,-3.7592,9.38,19.35,-28.13,325.4,0.04,-2.9,48.84389,2.353348,107.27,NaN,0.0,52.528,,5 / 26,,2514,2022-01-10 18:39:01:136
0.4558,0.0162,9.9215,0.4257,0.1443,9.7963,-0.079,-0.1313,0.1998,-0.0112,-0.0569,-3.7592,9.38,19.35,-28.13,325.4,0.04,-2.9,48.84389,2.353348,107.27,NaN,0.0,52.528,,5 / 26,,2520,2022-01-10 18:39:01:142
0.4558,0.0162,9.9215,0.4257,0.1443,9.7963,-0.079,-0.1313,0.1998,-0.0112,-0.0569,-3.7592,6.98,21.23,-29.03,338.93,-0.84,-2.49,48.84389,2.353348,107.27,NaN,0.0,52.528,,5 / 26,,2524,2022-01-10 18:39:01:146
0.4558,0.0162,9.9215,0.4257,0.1443,9.7963,-0.079,-0.1313,0.1998,-0.0112,-0.0569,-3.7592,6.98,21.23,-29.03,338.93,-0.84,-2.49,48.84389,2.353348,107.27,NaN,0.0,52.528,,5 / 26,,2530,2022-01-10 18:39:01:152
0.4558,0.0162,9.9215,0.4257,0.1443,9.7963,-0.079,-0.1313,0.1998,-0.0858,0.0273,-3.8828,6.98,21.23,-29.03,338.93,-0.84,-2.49,48.84389,2.353348,107.27,NaN,0.0,52.528,,5 / 26,,2534,2022-01-10 18:39:01:156
0.1134,-0.1633,9.6293,0.4257,0.1443,9.7963,-0.2129,-0.1935,0.037,-0.0858,0.0273,-3.8828,6.98,21.23,-29.03,338.93,-0.84,-2.49,48.84389,2.353348,107.27,NaN,0.0,52.528,,5 / 26,,2540,2022-01-10 18:39:01:162
0.1134,-0.1633,9.6293,0.4007,0.1637,9.7971,-0.2129,-0.1935,0.037,-0.0858,0.0273,-3.8828,6.98,21.23,-29.03,338.93,-0.84,-2.49,48.84389,2.353348,107.27,NaN,0.0,52.528,,5 / 26,,2545,2022-01-10 18:39:01:167
0.1134,-0.1633,9.6293,0.4007,0.1637,9.7971,-0.2129,-0.1935,0.037,-0.0858,0.0273,-3.8828,6.98,21.23,-29.03,338.93,-0.84,-2.49,48.84389,2.353348,107.27,NaN,0.0,52.528,,5 / 26,,2550,2022-01-10 18:39:01:172
0.1134,-0.1633,9.6293,0.4007,0.1637,9.7971,-0.2129,-0.1935,0.037,-0.0858,0.0273,-3.8828,4.43,21.83,-29.03,338.93,-0.84,-2.49,48.84389,2.353348,107.27,NaN,0.0,52.528,,5 / 26,,2555,2022-01-10 18:39:01:177
0.1134,-0.1633,9.6293,0.4007,0.1637,9.7971,-0.2129,-0.1935,0.037,-0.0858,0.0273,-3.8828,4.43,21.83,-29.03,338.93,-0.84,-2.49,48.84389,2.353348,107.27,NaN,0.0,52.528,,5 / 26,,2559,2022-01-10 18:39:01:181
-0.1884,-0.3024,9.4594,0.4007,0.1637,9.7971,-0.4464,-0.4209,-0.0687,-0.0336,0.0316,-3.5302,4.43,21.83,-29.03,338.93,-0.84,-2.49,48.84389,2.353348,107.27,NaN,0.0,52.528,,5 / 26,,2567,2022-01-10 18:39:01:189
-0.1884,-0.3024,9.4594,0.4007,0.1637,9.7971,-0.4464,-0.4209,-0.0687,-0.0336,0.0316,-3.5302,4.43,21.83,-29.03,338.93,-0.84,-2.49,48.84389,2.353348,107.27,NaN,0.0,52.528,,5 / 26,,2570,2022-01-10 18:39:01:192
-0.1884,-0.3024,9.4594,0.3623,0.1685,9.7985,-0.4464,-0.4209,-0.0687,-0.0336,0.0316,-3.5302,4.43,21.83,-29.03,338.93,-0.84,-2.49,48.84389,2.353348,107.27,NaN,0.0,52.528,,5 / 26,,2575,2022-01-10 18:39:01:197
-0.1884,-0.3024,9.4594,0.3623,0.1685,9.7985,-0.4464,-0.4209,-0.0687,-0.0336,0.0316,-3.5302,4.43,21.83,-29.03,338.93,-0.84,-2.49,48.84389,2.353348,107.27,NaN,0.0,52.528,,5 / 26,,2579,2022-01-10 18:39:01:201
-0.1884,-0.3024,9.4594,0.3623,0.1685,9.7985,-0.4464,-0.4209,-0.0687,-0.0336,0.0316,-3.5302,1.95,22.05,-29.1,352.23,-0.98,-2.12,48.84389,2.353348,107.27,NaN,0.0,52.528,,5 / 26,,2585,2022-01-10 18:39:01:207
-0.1884,-0.3024,9.4594,0.3623,0.1685,9.7985,-0.4464,-0.4209,-0.0687,-0.0336,0.0316,-3.5302,1.95,22.05,-29.1,352.23,-0.98,-2.12,48.84389,2.353348,107.27,NaN,0.0,52.528,,5 / 26,,2590,2022-01-10 18:39:01:212
-0.198,-0.0939,9.9168,0.3623,0.1685,9.7985,-0.4464,-0.4209,-0.0687,0.0101,-0.0302,-3.3182,1.95,22.05,-29.1,352.23,-0.98,-2.12,48.84389,2.353348,107.27,NaN,0.0,52.528,,5 / 26,,2595,2022-01-10 18:39:01:217
-0.198,-0.0939,9.9168,0.3623,0.1685,9.7985,-0.5263,-0.2774,0.2306,0.0101,-0.0302,-3.3182,1.95,22.05,-29.1,352.23,-0.98,-2.12,48.84389,2.353348,107.27,NaN,0.0,52.528,,5 / 26,,2600,2022-01-10 18:39:01:222
-0.198,-0.0939,9.9168,0.314,0.1854,9.7999,-0.5263,-0.2774,0.2306,0.0101,-0.0302,-3.3182,1.95,22.05,-29.1,352.23,-0.98,-2.12,48.84389,2.353348,107.27,NaN,0.0,52.528,,5 / 26,,2605,2022-01-10 18:39:01:227
-0.198,-0.0939,9.9168,0.314,0.1854,9.7999,-0.5263,-0.2774,0.2306,0.0101,-0.0302,-3.3182,1.95,22.05,-29.1,352.23,-0.98,-2.12,48.84389,2.353348,107.27,NaN,0.0,52.528,,5 / 26,,2610,2022-01-10 18:39:01:232
-0.198,-0.0939,9.9168,0.314,0.1854,9.7999,-0.5263,-0.2774,0.2306,0.0101,-0.0302,-3.3182,1.95,22.05,-29.1,352.23,-0.98,-2.12,48.84389,2.353348,107.27,NaN,0.0,52.528,,5 / 26,,2614,2022-01-10 18:39:01:236
0.4558,0.3323,9.6894,0.314,0.1854,9.7999,-0.5263,-0.2774,0.2306,0.0101,-0.0302,-3.3182,-0.6,21.83,-29.32,352.23,-0.98,-2.12,48.84389,2.353348,107.27,NaN,0.0,52.528,,5 / 26,,2620,2022-01-10 18:39:01:242
0.4558,0.3323,9.6894,0.314,0.1854,9.7999,-0.5263,-0.2774,0.2306,0.008,0.072,-3.7581,-0.6,21.83,-29.32,352.23,-0.98,-2.12,48.84389,2.353348,107.27,NaN,0.0,52.528,,5 / 26,,2625,2022-01-10 18:39:01:247
0.4558,0.3323,9.6894,0.314,0.1854,9.7999,-0.5263,-0.2774,0.2306,0.008,0.072,-3.7581,-0.6,21.83,-29.32,352.23,-0.98,-2.12,48.84389,2.353348,107.27,NaN,0.0,52.528,,5 / 26,,2629,2022-01-10 18:39:01:251
0.4558,0.3323,9.6894,0.2799,0.2221,9.8001,0.1778,0.1786,0.0187,0.008,0.072,-3.7581,-0.6,21.83,-29.32,352.23,-0.98,-2.12,48.84389,2.353348,107.27,NaN,0.0,52.528,,5 / 26,,2635,2022-01-10 18:39:01:257
0.4558,0.3323,9.6894,0.2799,0.2221,9.8001,0.1778,0.1786,0.0187,0.008,0.072,-3.7581,-0.6,21.83,-29.32,352.23,-0.98,-2.12,48.84389,2.353348,107.27,NaN,0.0,52.528,,5 / 26,,2640,2022-01-10 18:39:01:262
0.4558,0.3323,9.6894,0.2799,0.2221,9.8001,0.1778,0.1786,0.0187,0.008,0.072,-3.7581,-0.6,21.83,-29.32,352.23,-0.98,-2.12,48.84389,2.353348,107.27,NaN,0.0,52.528,,5 / 26,,2645,2022-01-10 18:39:01:267
-0.0374,-0.1944,9.6847,0.2799,0.2221,9.8001,0.1778,0.1786,0.0187,0.008,0.072,-3.7581,-0.6,21.83,-29.32,352.23,-0.98,-2.12,48.84389,2.353348,107.27,NaN,0.0,52.528,,5 / 26,,2650,2022-01-10 18:39:01:272
-0.0374,-0.1944,9.6847,0.2799,0.2221,9.8001,0.1778,0.1786,0.0187,-0.1028,-0.1293,-4.0585,-3.82,21.38,-28.8,8.33,-1.3,-1.64,48.84389,2.353348,107.27,NaN,0.0,52.528,,5 / 26,,2654,2022-01-10 18:39:01:276
-0.0374,-0.1944,9.6847,0.2799,0.2221,9.8001,0.1778,0.1786,0.0187,-0.1028,-0.1293,-4.0585,-3.82,21.38,-28.8,8.33,-1.3,-1.64,48.84389,2.353348,107.27,NaN,0.0,52.528,,5 / 26,,2661,2022-01-10 18:39:01:283
-0.0374,-0.1944,9.6847,0.2605,0.2225,9.8007,-0.6869,-0.5153,-0.1962,-0.1028,-0.1293,-4.0585,-3.82,21.38,-28.8,8.33,-1.3,-1.64,48.84389,2.353348,107.27,NaN,0.0,52.528,,5 / 26,,2665,2022-01-10 18:39:01:287
-0.0374,-0.1944,9.6847,0.2605,0.2225,9.8007,-0.6869,-0.5153,-0.1962,-0.1028,-0.1293,-4.0585,-3.82,21.38,-28.8,8.33,-1.3,-1.64,48.84389,2.353348,107.27,NaN,0.0,52.528,,5 / 26,,2670,2022-01-10 18:39:01:292
-0.0374,-0.1944,9.6847,0.2605,0.2225,9.8007,-0.6869,-0.5153,-0.1962,-0.1028,-0.1293,-4.0585,-3.82,21.38,-28.8,8.33,-1.3,-1.64,48.84389,2.353348,107.27,NaN,0.0,52.528,,5 / 26,,2674,2022-01-10 18:39:01:296
-0.4591,-0.1585,9.7421,0.2605,0.2225,9.8007,-0.6869,-0.5153,-0.1962,-0.1028,-0.1293,-4.0585,-3.82,21.38,-28.8,8.33,-1.3,-1.64,48.84389,2.353348,107.27,NaN,0.0,52.528,,5 / 26,,2680,2022-01-10 18:39:01:302
-0.4591,-0.1585,9.7421,0.2605,0.2225,9.8007,-0.6869,-0.5153,-0.1962,-0.1571,-0.1154,-4.0575,-6.15,20.48,-28.28,8.33,-1.3,-1.64,48.84389,2.353348,107.27,NaN,0.0,52.528,,5 / 26,,2685,2022-01-10 18:39:01:307
-0.4591,-0.1585,9.7421,0.2605,0.2225,9.8007,-0.6869,-0.5153,-0.1962,-0.1571,-0.1154,-4.0575,-6.15,20.48,-28.28,8.33,-1.3,-1.64,48.84389,2.353348,107.27,NaN,0.0,52.528,,5 / 26,,2691,2022-01-10 18:39:01:313
-0.4591,-0.1585,9.7421,0.2313,0.1898,9.8021,-0.4327,-0.2194,0.2543,-0.1571,-0.1154,-4.0575,-6.15,20.48,-28.28,8.33,-1.3,-1.64,48.84389,2.353348,107.27,NaN,0.0,52.528,,5 / 26,,2695,2022-01-10 18:39:01:317
-0.4591,-0.1585,9.7421,0.2313,0.1898,9.8021,-0.4327,-0.2194,0.2543,-0.1571,-0.1154,-4.0575,-6.15,20.48,-28.28,8.33,-1.3,-1.64,48.84389,2.353348,107.27,NaN,0.0,52.528,,5 / 26,,2700,2022-01-10 18:39:01:322
-0.2698,-0.1274,10.0582,0.2313,0.1898,9.8021,-0.4327,-0.2194,0.2543,-0.1571,-0.1154,-4.0575,-6.15,20.48,-28.28,8.33,-1.3,-1.64,48.84389,2.353348,107.27,NaN,0.0,52.528,,5 / 26,,2705,2022-01-10 18:39:01:327
-0.2698,-0.1274,10.0582,0.2313,0.1898,9.8021,-0.4327,-0.2194,0.2543,-0.1571,-0.1154,-4.0575,-6.15,20.48,-28.28,8.33,-1.3,-1.64,48.84389,2.353348,107.27,NaN,0.0,52.528,,5 / 26,,2710,2022-01-10 18:39:01:332
-0.2698,-0.1274,10.0582,0.2313,0.1898,9.8021,-0.4327,-0.2194,0.2543,-0.1571,-0.1154,-4.0575,-6.15,19.73,-28.57,19.58,-1.11,-1.35,48.84389,2.353348,107.27,NaN,0.0,52.528,,5 / 26,,2714,2022-01-10 18:39:01:336
-0.2698,-0.1274,10.0582,0.2313,0.1898,9.8021,-0.4327,-0.2194,0.2543,-0.0943,-0.2007,-4.2631,-8.25,19.73,-28.57,19.58,-1.11,-1.35,48.84389,2.353348,107.27,NaN,0.0,52.528,,5 / 26,,2720,2022-01-10 18:39:01:342
-0.2698,-0.1274,10.0582,0.2221,0.1618,9.8028,-0.4327,-0.2194,0.2543,-0.0943,-0.2007,-4.2631,-8.25,19.73,-28.57,19.58,-1.11,-1.35,48.84389,2.353348,107.27,NaN,0.0,52.528,,5 / 26,,2725,2022-01-10 18:39:01:347
-0.2698,-0.1274,10.0582,0.2221,0.1618,9.8028,-0.6659,-0.4315,0.0073,-0.0943,-0.2007,-4.2631,-8.25,19.73,-28.57,19.58,-1.11,-1.35,48.84389,2.353348,107.27,NaN,0.0,52.528,,5 / 26,,2729,2022-01-10 18:39:01:351
-0.1908,-0.221,9.2557,0.2221,0.1618,9.8028,-0.6659,-0.4315,0.0073,-0.0943,-0.2007,-4.2631,-8.25,19.73,-28.57,19.58,-1.11,-1.35,48.84389,2.353348,107.27,NaN,0.0,52.528,,5 / 26,,2735,2022-01-10 18:39:01:357
-0.1908,-0.221,9.2557,0.2221,0.1618,9.8028,-0.6659,-0.4315,0.0073,-0.0943,-0.2007,-4.2631,-8.25,19.73,-28.57,19.58,-1.11,-1.35,48.84389,2.353348,107.27,NaN,0.0,52.528,,5 / 26,,2740,2022-01-10 18:39:01:362
-0.1908,-0.221,9.2557,0.2221,0.1618,9.8028,-0.6659,-0.4315,0.0073,-0.0943,-0.2007,-4.2631,-8.25,19.73,-28.57,19.58,-1.11,-1.35,48.84389,2.353348,107.27,NaN,0.0,52.528,,5 / 26,,2745,2022-01-10 18:39:01:367
-0.1908,-0.221,9.2557,0.2221,0.1618,9.8028,-0.6659,-0.4315,0.0073,-0.0975,0.0859,-4.2119,-8.25,19.73,-28.57,19.58,-1.11,-1.35,48.84389,2.353348,107.27,NaN,0.0,52.528,,5 / 26,,2750,2022-01-10 18:39:01:372
-0.1908,-0.221,9.2557,0.1996,0.1609,9.8033,-0.5906,-0.3261,-0.07,-0.0975,0.0859,-4.2119,-11.1,18.3,-29.17,19.58,-1.11,-1.35,48.84389,2.353348,107.27,NaN,0.0,52.528,,5 / 26,,2755,2022-01-10 18:39:01:377
-0.1908,-0.221,9.2557,0.1996,0.1609,9.8033,-0.5906,-0.3261,-0.07,-0.0975,0.0859,-4.2119,-11.1,18.3,-29.17,19.58,-1.11,-1.35,48.84389,2.353348,107.27,NaN,0.0,52.528,,5 / 26,,2759,2022-01-10 18:39:01:381
-0.2818,0.0763,10.0199,0.1996,0.1609,9.8033,-0.5906,-0.3261,-0.07,-0.0975,0.0859,-4.2119,-11.1,18.3,-29.17,19.58,-1.11,-1.35,48.84389,2.353348,107.27,NaN,0.0,52.528,,5 / 26,,2765,2022-01-10 18:39:01:387
-0.2818,0.0763,10.0199,0.1996,0.1609,9.8033,-0.5906,-0.3261,-0.07,-0.0975,0.0859,-4.2119,-11.1,18.3,-29.17,19.58,-1.11,-1.35,48.84389,2.353348,107.27,NaN,0.0,52.528,,4 / 26,,2770,2022-01-10 18:39:01:392
-0.2818,0.0763,10.0199,0.1996,0.1609,9.8033,-0.5906,-0.3261,-0.07,-0.0975,0.0859,-4.2119,-11.1,18.3,-29.17,19.58,-1.11,-1.35,48.84389,2.353348,107.27,NaN,0.0,52.528,,4 / 26,,2775,2022-01-10 18:39:01:397
-0.2818,0.0763,10.0199,0.1996,0.1609,9.8033,-0.5906,-0.3261,-0.07,-0.0644,-0.076,-3.9051,-11.1,18.3,-29.17,19.58,-1.11,-1.35,48.84389,2.353348,107.27,NaN,0.0,52.528,,4 / 26,,2779,2022-01-10 18:39:01:401
-0.2818,0.0763,10.0199,0.1277,0.1488,9.8047,-0.5906,-0.3261,-0.07,-0.0644,-0.076,-3.9051,-13.35,17.1,-28.8,35.89,-0.87,-0.75,48.84389,2.353348,107.27,NaN,0.0,52.528,,4 / 26,,2785,2022-01-10 18:39:01:407
-0.1836,0.0162,9.7588,0.1277,0.1488,9.8047,-0.131,0.0274,0.0597,-0.0644,-0.076,-3.9051,-13.35,17.1,-28.8,35.89,-0.87,-0.75,48.84389,2.353348,107.27,NaN,0.0,52.528,,4 / 26,,2789,2022-01-10 18:39:01:411
-0.1836,0.0162,9.7588,0.1277,0.1488,9.8047,-0.131,0.0274,0.0597,-0.0644,-0.076,-3.9051,-13.35,17.1,-28.8,35.89,-0.87,-0.75,48.84389,2.353348,107.27,NaN,0.0,52.528,,4 / 26,,2794,2022-01-10 18:39:01:416
-0.1836,0.0162,9.7588,0.1277,0.1488,9.8047,-0.131,0.0274,0.0597,-0.0644,-0.076,-3.9051,-13.35,17.1,-28.8,35.89,-0.87,-0.75,48.84389,2.353348,107.27,NaN,0.0,52.528,,4 / 26,,2800,2022-01-10 18:39:01:422
-0.1836,0.0162,9.7588,0.1277,0.1488,9.8047,-0.131,0.0274,0.0597,-0.0644,-0.076,-3.9051,-13.35,17.1,-28.8,35.89,-0.87,-0.75,48.84389,2.353348,107.27,NaN,0.0,52.528,,4 / 26,,2805,2022-01-10 18:39:01:427
-0.1836,0.0162,9.7588,0.1277,0.1488,9.8047,-0.131,0.0274,0.0597,-0.0644,-0.076,-3.9051,-13.35,17.1,-28.8,35.89,-0.87,-0.75,48.84389,2.353348,107.27,NaN,0.0,52.528,,4 / 26,,2810,2022-01-10 18:39:01:432
-0.1836,0.0162,9.7588,0.1394,0.1388,9.8047,-0.131,0.0274,0.0597,-0.0943,-0.0995,-4.0394,-13.35,17.1,-28.8,35.89,-0.87,-0.75,48.84389,2.353348,107.27,NaN,0.0,52.528,,4 / 26,,2815,2022-01-10 18:39:01:437
-0.2602,-0.0437,9.8641,0.1394,0.1388,9.8047,-0.4537,-0.174,0.2615,-0.0943,-0.0995,-4.0394,-16.43,15.45,-28.72,35.89,-0.87,-0.75,48.84389,2.353348,107.27,NaN,0.0,52.528,,4 / 26,,2821,2022-01-10 18:39:01:443
-0.2602,-0.0437,9.8641,0.1394,0.1388,9.8047,-0.4537,-0.174,0.2615,-0.0943,-0.0995,-4.0394,-16.43,15.45,-28.72,35.89,-0.87,-0.75,48.84389,2.353348,107.27,NaN,0.0,52.528,,4 / 26,,2825,2022-01-10 18:39:01:447
-0.2602,-0.0437,9.8641,0.1394,0.1388,9.8047,-0.4537,-0.174,0.2615,-0.0943,-0.0995,-4.0394,-16.43,15.45,-28.72,35.89,-0.87,-0.75,48.84389,2.353348,107.27,NaN,0.0,52.528,,4 / 26,,2831,2022-01-10 18:39:01:453
-0.2602,-0.0437,9.8641,0.1394,0.1388,9.8047,-0.4537,-0.174,0.2615,-0.0943,-0.0995,-4.0394,-16.43,15.45,-28.72,35.89,-0.87,-0.75,48.84389,2.353348,107.27,NaN,0.0,52.528,,4 / 26,,2834,2022-01-10 18:39:01:456
-0.2602,-0.0437,9.8641,0.0956,0.1305,9.8053,-0.4537,-0.174,0.2615,0.0218,0.0049,-3.6346,-16.43,15.45,-28.72,35.89,-0.87,-0.75,48.84389,2.353348,107.27,NaN,0.0,52.528,,4 / 26,,2841,2022-01-10 18:39:01:463
-0.5572,-0.2521,9.7086,0.0956,0.1305,9.8053,-0.4537,-0.174,0.2615,0.0218,0.0049,-3.6346,-16.43,15.45,-28.72,35.89,-0.87,-0.75,48.84389,2.353348,107.27,NaN,0.0,52.528,,4 / 26,,2844,2022-01-10 18:39:01:466
-0.5572,-0.2521,9.7086,0.0956,0.1305,9.8053,-0.5322,-0.3152,-0.0136,0.0218,0.0049,-3.6346,-16.43,15.45,-28.72,35.89,-0.87,-0.75,48.84389,2.353348,107.27,NaN,0.0,52.528,,4 / 26,,2850,2022-01-10 18:39:01:472
-0.5572,-0.2521,9.7086,0.0956,0.1305,9.8053,-0.5322,-0.3152,-0.0136,0.0218,0.0049,-3.6346,-18.37,12.98,-27.97,52.97,-0.76,-0.56,48.84389,2.353348,107.27,NaN,0.0,52.528,,4 / 26,,2855,2022-01-10 18:39:01:477
-0.5572,-0.2521,9.7086,0.0956,0.1305,9.8053,-0.5322,-0.3152,-0.0136,0.0218,0.0049,-3.6346,-18.37,12.98,-27.97,52.97,-0.76,-0.56,48.84389,2.353348,107.27,NaN,0.0,52.528,,4 / 26,,2859,2022-01-10 18:39:01:481
-0.5572,-0.2521,9.7086,0.0956,0.1305,9.8053,-0.5322,-0.3152,-0.0136,0.0218,0.0049,-3.6346,-18.37,12.98,-27.97,52.97,-0.76,-0.56,48.84389,2.353348,107.27,NaN,0.0,52.528,,4 / 26,,2864,2022-01-10 18:39:01:486
-0.5692,-0.3048,9.8833,0.0956,0.1305,9.8053,-0.5322,-0.3152,-0.0136,0.0218,0.0049,-3.6346,-18.37,12.98,-27.97,52.97,-0.76,-0.56,48.84389,2.353348,107.27,NaN,0.0,52.528,,4 / 26,,2869,2022-01-10 18:39:01:491
-0.5692,-0.3048,9.8833,0.0579,0.1243,9.8057,-0.5322,-0.3152,-0.0136,0.0154,0.0518,-3.3693,-18.37,12.98,-27.97,52.97,-0.76,-0.56,48.84389,2.353348,107.27,NaN,0.0,52.528,,4 / 26,,2874,2022-01-10 18:39:01:496
-0.5692,-0.3048,9.8833,0.0579,0.1243,9.8057,-0.4774,-0.3769,0.3159,0.0154,0.0518,-3.3693,-18.37,12.98,-27.97,52.97,-0.76,-0.56,48.84389,2.353348,107.27,NaN,0.0,52.528,,4 / 26,,2880,2022-01-10 18:39:01:502
-0.5692,-0.3048,9.8833,0.0579,0.1243,9.8057,-0.4774,-0.3769,0.3159,0.0154,0.0518,-3.3693,-19.28,10.8,-28.05,52.97,-0.76,-0.56,48.84389,2.353348,107.27,NaN,0.0,52.528,,4 / 26,,2885,2022-01-10 18:39:01:507
-0.5692,-0.3048,9.8833,0.0579,0.1243,9.8057,-0.4774,-0.3769,0.3159,0.0154,0.0518,-3.3693,-19.28,10.8,-28.05,52.97,-0.76,-0.56,48.84389,2.353348,107.27,NaN,0.0,52.528,,4 / 26,,2890,2022-01-10 18:39:01:512
-0.5692,-0.3048,9.8833,0.0579,0.1243,9.8057,-0.4774,-0.3769,0.3159,0.0154,0.0518,-3.3693,-19.28,10.8,-28.05,52.97,-0.76,-0.56,48.84389,2.353348,107.27,NaN,0.0,52.528,,4 / 26,,2895,2022-01-10 18:39:01:517
0.0248,-0.1561,9.6942,0.0072,0.1252,9.8058,-0.4774,-0.3769,0.3159,0.0154,0.0518,-3.3693,-19.28,10.8,-28.05,52.97,-0.76,-0.56,48.84389,2.353348,107.27,NaN,0.0,52.528,,4 / 26,,2900,2022-01-10 18:39:01:522
0.0248,-0.1561,9.6942,0.0072,0.1252,9.8058,-0.4774,-0.3769,0.3159,0.0762,0.2201,-3.7304,-19.28,10.8,-28.05,52.97,-0.76,-0.56,48.84389,2.353348,107.27,NaN,0.0,52.528,,4 / 26,,2904,2022-01-10 18:39:01:526
0.0248,-0.1561,9.6942,0.0072,0.1252,9.8058,-0.1025,-0.2244,0.0278,0.0762,0.2201,-3.7304,-19.28,10.8,-28.05,52.97,-0.76,-0.56,48.84389,2.353348,107.27,NaN,0.0,52.528,,4 / 26,,2910,2022-01-10 18:39:01:532
0.0248,-0.1561,9.6942,0.0072,0.1252,9.8058,-0.1025,-0.2244,0.0278,0.0762,0.2201,-3.7304,-20.03,8.1,-27.9,67.3,-0.73,-0.04,48.84389,2.353348,107.27,NaN,0.0,52.528,,4 / 26,,2915,2022-01-10 18:39:01:537
0.0248,-0.1561,9.6942,0.0072,0.1252,9.8058,-0.1025,-0.2244,0.0278,0.0762,0.2201,-3.7304,-20.03,8.1,-27.9,67.3,-0.73,-0.04,48.84389,2.353348,107.27,NaN,0.0,52.528,,4 / 26,,2921,2022-01-10 18:39:01:543
-0.2841,0.4857,9.7875,0.0072,0.1252,9.8058,-0.1025,-0.2244,0.0278,0.0762,0.2201,-3.7304,-20.03,8.1,-27.9,67.3,-0.73,-0.04,48.84389,2.353348,107.27,NaN,0.0,52.528,,4 / 26,,2925,2022-01-10 18:39:01:547
-0.2841,0.4857,9.7875,-0.0793,0.1448,9.8053,-0.1025,-0.2244,0.0278,0.0762,0.2201,-3.7304,-20.03,8.1,-27.9,67.3,-0.73,-0.04,48.84389,2.353348,107.27,NaN,0.0,52.528,,4 / 26,,2929,2022-01-10 18:39:01:551
-0.2841,0.4857,9.7875,-0.0793,0.1448,9.8053,-0.1025,-0.2244,0.0278,0.0794,0.1605,-3.6921,-20.03,8.1,-27.9,67.3,-0.73,-0.04,48.84389,2.353348,107.27,NaN,0.0,52.528,,4 / 26,,2935,2022-01-10 18:39:01:557
-0.2841,0.4857,9.7875,-0.0793,0.1448,9.8053,-0.6565,0.3135,-0.2172,0.0794,0.1605,-3.6921,-20.03,8.1,-27.9,67.3,-0.73,-0.04,48.84389,2.353348,107.27,NaN,0.0,52.528,,4 / 26,,2940,2022-01-10 18:39:01:562
-0.2841,0.4857,9.7875,-0.0793,0.1448,9.8053,-0.6565,0.3135,-0.2172,0.0794,0.1605,-3.6921,-20.03,8.1,-27.9,67.3,-0.73,-0.04,48.84389,2.353348,107.27,NaN,0.0,52.528,,4 / 26,,2945,2022-01-10 18:39:01:567
