ACCELEROMETER X (m/s²),ACCELEROMETER Y (m/s²),ACCELEROMETER Z (m/s²),GRAVITY X (m/s²),GRAVITY Y (m/s²),GRAVITY Z (m/s²),LINEAR ACCELERATION X (m/s²),LINEAR ACCELERATION Y (m/s²),LINEAR ACCELERATION Z (m/s²),GYROSCOPE X (rad/s),GYROSCOPE Y (rad/s),GYROSCOPE Z (rad/s),LIGHT (lux),MAGNETIC FIELD X (μT),MAGNETIC FIELD Y (μT),MAGNETIC FIELD Z (μT),ORIENTATION Z (azimuth °),ORIENTATION X (pitch °),ORIENTATION Y (roll °),PROXIMITY (i),SOUND LEVEL (dB),LOCATION Latitude : ,LOCATION Longitude : ,LOCATION Altitude ( m),LOCATION Altitude-google ( m),LOCATION Speed ( Kmh),LOCATION Accuracy ( m),LOCATION ORIENTATION (°),Satellites in range,Time since start in ms ,YYYY-MO-DD HH-MI-SS_SSS
-1.5754,1.6845,9.396,-1.7591,1.7435,9.4887,0.17,-0.1289,0.0958,-0.0306,-0.0246,0.0407,75.0,21.3,-8.33,-34.57,266.33,-10.47,11.0,2.0,23.528,48.8439,2.353347,307.1,NaN,,45.01613,,0 / 19,22,2022-01-10 18:03:50:632
-1.5754,1.6845,9.396,-1.7591,1.7435,9.4887,0.17,-0.1289,0.0958,-0.0306,-0.0246,0.0407,75.0,21.3,-8.33,-34.57,266.33,-10.47,11.0,2.0,23.528,48.8439,2.353347,307.1,NaN,,45.01613,,0 / 19,27,2022-01-10 18:03:50:637
-1.5754,1.6845,9.396,-1.7591,1.7435,9.4887,0.17,-0.1289,0.0958,-0.0306,-0.0246,0.0407,75.0,21.3,-8.33,-34.57,266.33,-10.47,11.0,2.0,23.528,48.8439,2.353347,307.1,NaN,,45.01613,,0 / 19,32,2022-01-10 18:03:50:642
-1.5754,1.6845,9.396,-1.7591,1.7435,9.4887,0.17,-0.1289,0.0958,-0.0306,-0.0246,0.0407,75.0,21.3,-8.33,-34.57,266.33,-10.47,11.0,2.0,23.528,48.8439,2.353347,307.1,NaN,,45.01613,,0 / 19,38,2022-01-10 18:03:50:648
-1.5754,1.6845,9.396,-1.7591,1.7435,9.4887,0.17,-0.1289,0.0958,-0.0306,-0.0246,0.0407,75.0,21.3,-8.33,-34.57,266.33,-10.47,11.0,2.0,23.528,48.8439,2.353347,307.1,NaN,,45.01613,,0 / 19,42,2022-01-10 18:03:50:652
-1.5754,1.6845,9.396,-1.7591,1.7435,9.4887,0.17,-0.1289,0.0958,-0.0306,-0.0246,0.0407,75.0,21.3,-8.33,-34.57,266.33,-10.47,11.0,2.0,23.528,48.8439,2.353347,307.1,NaN,,45.01613,,0 / 19,47,2022-01-10 18:03:50:657
-1.5754,1.6845,9.396,-1.7591,1.7435,9.4887,0.17,-0.1289,0.0958,-0.0306,-0.0246,0.0407,75.0,21.3,-8.33,-34.57,266.33,-10.47,11.0,2.0,23.528,48.8439,2.353347,307.1,NaN,,45.01613,,0 / 19,52,2022-01-10 18:03:50:662
-1.5754,1.6845,9.396,-1.7591,1.7435,9.4887,0.17,-0.1289,0.0958,-0.0306,-0.0246,0.0407,75.0,21.3,-8.33,-34.57,266.33,-10.47,11.0,2.0,23.528,48.8439,2.353347,307.1,NaN,,45.01613,,0 / 19,57,2022-01-10 18:03:50:667
-1.5754,1.6845,9.396,-1.7591,1.7435,9.4887,0.1177,-0.0078,-0.0658,-0.0306,-0.0246,0.0407,75.0,21.3,-8.33,-34.57,266.33,-10.47,11.0,2.0,23.528,48.8439,2.353347,307.1,NaN,,45.01613,,0 / 19,62,2022-01-10 18:03:50:672
-1.5754,1.6845,9.396,-1.7591,1.7435,9.4887,0.1177,-0.0078,-0.0658,-0.0306,-0.0246,0.0407,75.0,21.3,-8.33,-34.57,266.33,-10.47,11.0,2.0,23.528,48.8439,2.353347,307.1,NaN,,45.01613,,0 / 19,68,2022-01-10 18:03:50:678
-1.5754,1.6845,9.396,-1.7591,1.7435,9.4887,0.1177,-0.0078,-0.0658,-0.0306,-0.0246,0.0407,75.0,21.3,-8.33,-34.57,266.33,-10.47,11.0,2.0,23.528,48.8439,2.353347,307.1,NaN,,45.01613,,0 / 19,77,2022-01-10 18:03:50:687
-1.5754,1.6845,9.396,-1.7591,1.7435,9.4887,0.1177,-0.0078,-0.0658,-0.0306,-0.0246,0.0407,75.0,21.3,-8.33,-34.57,266.33,-10.47,11.0,2.0,23.528,48.8439,2.353347,307.1,NaN,,45.01613,,0 / 19,78,2022-01-10 18:03:50:688
-1.5754,1.6845,9.396,-1.7591,1.7435,9.4887,0.1177,-0.0078,-0.0658,-0.0306,-0.0246,0.0407,75.0,21.3,-8.33,-34.57,266.33,-10.47,11.0,2.0,23.528,48.8439,2.353347,307.1,NaN,,45.01613,,0 / 19,82,2022-01-10 18:03:50:692
-1.5754,1.6845,9.396,-1.7591,1.7435,9.4887,0.1177,-0.0078,-0.0658,-0.0306,-0.0246,0.0407,75.0,21.3,-8.33,-34.57,266.33,-10.47,11.0,2.0,23.528,48.8439,2.353347,307.1,NaN,,45.01613,,0 / 19,89,2022-01-10 18:03:50:699
-1.5754,1.6845,9.396,-1.7591,1.7435,9.4887,0.1177,-0.0078,-0.0658,-0.0306,-0.0246,0.0407,75.0,21.3,-8.33,-34.57,266.33,-10.47,11.0,2.0,23.528,48.8439,2.353347,307.1,NaN,,45.01613,,0 / 19,92,2022-01-10 18:03:50:702
-1.5754,1.6845,9.396,-1.7591,1.7435,9.4887,0.1177,-0.0078,-0.0658,-0.0306,-0.0246,0.0407,75.0,21.3,-8.33,-34.57,266.33,-10.47,11.0,2.0,23.528,48.8439,2.353347,307.1,NaN,,45.01613,,0 / 19,97,2022-01-10 18:03:50:707
-1.5598,1.5888,9.4522,-1.7591,1.7435,9.4887,0.1177,-0.0078,-0.0658,-0.0433,-0.0414,0.0246,75.0,21.3,-8.33,-34.57,266.33,-10.47,11.0,2.0,23.528,48.8439,2.353347,307.1,NaN,,45.01613,,0 / 19,102,2022-01-10 18:03:50:712
-1.5598,1.5888,9.4522,-1.7591,1.7435,9.4887,0.1177,-0.0078,-0.0658,-0.0433,-0.0414,0.0246,75.0,19.5,-8.17,-35.85,265.93,-10.24,10.5,2.0,23.528,48.8439,2.353347,307.1,NaN,,45.01613,,0 / 19,108,2022-01-10 18:03:50:718
-1.5598,1.5888,9.4522,-1.7591,1.7435,9.4887,0.1177,-0.0078,-0.0658,-0.0433,-0.0414,0.0246,75.0,19.5,-8.17,-35.85,265.93,-10.24,10.5,2.0,23.528,48.8439,2.353347,307.1,NaN,,45.01613,,0 / 19,112,2022-01-10 18:03:50:722
-1.5598,1.5888,9.4522,-1.7591,1.7435,9.4887,0.1177,-0.0078,-0.0658,-0.0433,-0.0414,0.0246,75.0,19.5,-8.17,-35.85,265.93,-10.24,10.5,2.0,23.528,48.8439,2.353347,307.1,NaN,,45.01613,,0 / 19,117,2022-01-10 18:03:50:727
-1.5598,1.5888,9.4522,-1.7591,1.7435,9.4887,0.1177,-0.0078,-0.0658,-0.0433,-0.0414,0.0246,75.0,19.5,-8.17,-35.85,265.93,-10.24,10.5,2.0,23.528,48.8439,2.353347,307.1,NaN,,45.01613,,0 / 19,122,2022-01-10 18:03:50:732
-1.5598,1.5888,9.4522,-1.7591,1.7435,9.4887,0.1177,-0.0078,-0.0658,-0.0433,-0.0414,0.0246,75.0,19.5,-8.17,-35.85,265.93,-10.24,10.5,2.0,23.528,48.8439,2.353347,307.1,NaN,,45.01613,,0 / 19,127,2022-01-10 18:03:50:737
-1.5598,1.5888,9.4522,-1.6805,1.6827,9.5139,0.1177,-0.0078,-0.0658,-0.0433,-0.0414,0.0246,75.0,19.5,-8.17,-35.85,265.93,-10.24,10.5,2.0,23.528,48.8439,2.353347,307.1,NaN,,45.01613,,0 / 19,134,2022-01-10 18:03:50:744
-1.5598,1.5888,9.4522,-1.6805,1.6827,9.5139,0.1177,-0.0078,-0.0658,-0.0433,-0.0414,0.0246,75.0,19.5,-8.17,-35.85,265.93,-10.24,10.5,2.0,23.528,48.8439,2.353347,307.1,NaN,,45.01613,,0 / 19,137,2022-01-10 18:03:50:747
-1.5598,1.5888,9.4522,-1.6805,1.6827,9.5139,0.1177,-0.0078,-0.0658,-0.0433,-0.0414,0.0246,75.0,19.5,-8.17,-35.85,265.93,-10.24,10.5,2.0,23.528,48.8439,2.353347,307.1,NaN,,45.01613,,0 / 19,142,2022-01-10 18:03:50:752
-1.5598,1.5888,9.4522,-1.6805,1.6827,9.5139,0.1177,-0.0078,-0.0658,-0.0433,-0.0414,0.0246,75.0,19.5,-8.17,-35.85,265.93,-10.24,10.5,2.0,23.528,48.8439,2.353347,307.1,NaN,,45.01613,,0 / 19,147,2022-01-10 18:03:50:757
-1.5598,1.5888,9.4522,-1.6805,1.6827,9.5139,0.1177,-0.0078,-0.0658,-0.0433,-0.0414,0.0246,75.0,19.5,-8.17,-35.85,265.93,-10.24,10.5,2.0,23.528,48.8439,2.353347,307.1,NaN,,45.01613,,0 / 19,151,2022-01-10 18:03:50:761
-1.5598,1.5888,9.4522,-1.6805,1.6827,9.5139,0.1177,-0.0078,-0.0658,-0.0433,-0.0414,0.0246,75.0,19.5,-8.17,-35.85,265.93,-10.24,10.5,2.0,23.528,48.8439,2.353347,307.1,NaN,,45.01613,,0 / 19,158,2022-01-10 18:03:50:768
-1.5598,1.5888,9.4522,-1.6805,1.6827,9.5139,0.1177,-0.0078,-0.0658,-0.0433,-0.0414,0.0246,75.0,19.5,-8.17,-35.85,265.93,-10.24,10.5,2.0,23.528,48.8439,2.353347,307.1,NaN,,45.01613,,0 / 19,163,2022-01-10 18:03:50:773
-1.5598,1.5888,9.4522,-1.6805,1.6827,9.5139,0.1177,-0.0078,-0.0658,-0.0433,-0.0414,0.0246,75.0,19.5,-8.17,-35.85,265.93,-10.24,10.5,2.0,23.528,48.8439,2.353347,307.1,NaN,,45.01613,,0 / 19,167,2022-01-10 18:03:50:777
-1.5598,1.5888,9.4522,-1.6805,1.6827,9.5139,0.1177,-0.0078,-0.0658,-0.0433,-0.0414,0.0246,75.0,19.5,-8.17,-35.85,265.93,-10.24,10.5,2.0,23.528,48.8439,2.353347,307.1,NaN,,45.01613,,0 / 19,173,2022-01-10 18:03:50:783
-1.5598,1.5888,9.4522,-1.6805,1.6827,9.5139,0.1177,-0.0078,-0.0658,-0.0433,-0.0414,0.0246,75.0,19.5,-8.17,-35.85,265.93,-10.24,10.5,2.0,23.528,48.8439,2.353347,307.1,NaN,,45.01613,,0 / 19,177,2022-01-10 18:03:50:787
-1.5598,1.5888,9.4522,-1.6805,1.6827,9.5139,0.1177,-0.0078,-0.0658,-0.0433,-0.0414,0.0246,75.0,19.5,-8.17,-35.85,265.93,-10.24,10.5,2.0,23.528,48.8439,2.353347,307.1,NaN,,45.01613,,0 / 19,183,2022-01-10 18:03:50:793
-1.5598,1.5888,9.4522,-1.6805,1.6827,9.5139,0.1177,-0.0078,-0.0658,-0.0433,-0.0414,0.0246,75.0,19.5,-8.17,-35.85,265.93,-10.24,10.5,2.0,23.528,48.8439,2.353347,307.1,NaN,,45.01613,,0 / 19,187,2022-01-10 18:03:50:797
-1.5191,1.584,9.5288,-1.6805,1.6827,9.5139,0.1451,-0.0476,0.0017,-0.0433,-0.0414,0.0246,75.0,19.5,-8.17,-35.85,265.93,-10.24,10.5,2.0,23.528,48.8439,2.353347,307.1,NaN,,45.01613,,0 / 19,192,2022-01-10 18:03:50:802
-1.5191,1.584,9.5288,-1.6805,1.6827,9.5139,0.1451,-0.0476,0.0017,-0.0433,-0.0414,0.0246,75.0,19.5,-8.17,-35.85,265.93,-10.24,10.5,2.0,23.528,48.8439,2.353347,307.1,NaN,,45.01613,,0 / 19,198,2022-01-10 18:03:50:808
-1.5191,1.584,9.5288,-1.6805,1.6827,9.5139,0.1451,-0.0476,0.0017,-0.0433,-0.0414,0.0246,75.0,19.5,-8.17,-35.85,265.93,-10.24,10.5,2.0,23.528,48.8439,2.353347,307.1,NaN,,45.01613,,0 / 19,202,2022-01-10 18:03:50:812
-1.5191,1.584,9.5288,-1.6805,1.6827,9.5139,0.1451,-0.0476,0.0017,-0.0433,-0.0414,0.0246,75.0,19.5,-8.17,-35.85,265.93,-10.24,10.5,2.0,23.528,48.8439,2.353347,307.1,NaN,,45.01613,,0 / 19,207,2022-01-10 18:03:50:817
-1.5191,1.584,9.5288,-1.6805,1.6827,9.5139,0.1451,-0.0476,0.0017,-0.0433,-0.0414,0.0246,75.0,19.5,-8.17,-35.85,265.93,-10.24,10.5,2.0,23.528,48.8439,2.353347,307.1,NaN,,45.01613,,0 / 19,213,2022-01-10 18:03:50:823
-1.5191,1.584,9.5288,-1.6805,1.6827,9.5139,0.1451,-0.0476,0.0017,-0.0433,-0.0414,0.0246,75.0,19.5,-8.17,-35.85,265.93,-10.24,10.5,2.0,23.528,48.8439,2.353347,307.1,NaN,,45.01613,,0 / 19,218,2022-01-10 18:03:50:828
-1.5191,1.584,9.5288,-1.6805,1.6827,9.5139,0.1451,-0.0476,0.0017,-0.0433,-0.0414,0.0246,75.0,19.5,-8.17,-35.85,265.93,-10.24,10.5,2.0,23.528,48.8439,2.353347,307.1,NaN,,45.01613,,0 / 19,223,2022-01-10 18:03:50:833
-1.5191,1.584,9.5288,-1.6805,1.6827,9.5139,0.1451,-0.0476,0.0017,-0.0433,-0.0414,0.0246,75.0,19.5,-8.17,-35.85,265.93,-10.24,10.5,2.0,23.528,48.8439,2.353347,307.1,NaN,,45.01613,,0 / 19,228,2022-01-10 18:03:50:838
-1.5191,1.584,9.5288,-1.6805,1.6827,9.5139,0.1451,-0.0476,0.0017,-0.0433,-0.0414,0.0246,75.0,19.5,-8.17,-35.85,265.93,-10.24,10.5,2.0,23.528,48.8439,2.353347,307.1,NaN,,45.01613,,0 / 19,233,2022-01-10 18:03:50:843
-1.5191,1.584,9.5288,-1.6805,1.6827,9.5139,0.1451,-0.0476,0.0017,-0.0433,-0.0414,0.0246,75.0,19.5,-8.17,-35.85,265.93,-10.24,10.5,2.0,23.528,48.8439,2.353347,307.1,NaN,,45.01613,,0 / 19,238,2022-01-10 18:03:50:848
-1.5191,1.584,9.5288,-1.6805,1.6827,9.5139,0.1451,-0.0476,0.0017,-0.0433,-0.0414,0.0246,75.0,19.5,-8.17,-35.85,265.93,-10.24,10.5,2.0,23.528,48.8439,2.353347,307.1,NaN,,45.01613,,0 / 19,242,2022-01-10 18:03:50:852
-1.5191,1.584,9.5288,-1.6406,1.6334,9.5295,0.1451,-0.0476,0.0017,-0.0237,-0.0133,-0.0073,75.0,19.5,-8.17,-35.85,265.93,-10.24,10.5,2.0,24.135,48.8439,2.353347,307.1,NaN,,45.01613,,0 / 19,248,2022-01-10 18:03:50:858
-1.5191,1.584,9.5288,-1.6406,1.6334,9.5295,0.1451,-0.0476,0.0017,-0.0237,-0.0133,-0.0073,75.0,19.5,-8.17,-35.85,265.93,-10.24,10.5,2.0,24.135,48.8439,2.353347,307.1,NaN,,45.01613,,0 / 19,253,2022-01-10 18:03:50:863
-1.5191,1.584,9.5288,-1.6406,1.6334,9.5295,0.1451,-0.0476,0.0017,-0.0237,-0.0133,-0.0073,75.0,19.5,-8.17,-35.85,265.93,-10.24,10.5,2.0,24.135,48.8439,2.353347,307.1,NaN,,45.01613,,0 / 19,257,2022-01-10 18:03:50:867
-1.5191,1.584,9.5288,-1.6406,1.6334,9.5295,0.1451,-0.0476,0.0017,-0.0237,-0.0133,-0.0073,75.0,19.5,-8.17,-35.85,265.93,-10.24,10.5,2.0,24.135,48.8439,2.353347,307.1,NaN,,45.01613,,0 / 19,262,2022-01-10 18:03:50:872
-1.5191,1.584,9.5288,-1.6406,1.6334,9.5295,0.1451,-0.0476,0.0017,-0.0237,-0.0133,-0.0073,75.0,19.5,-8.17,-35.85,265.93,-10.24,10.5,2.0,24.135,48.8439,2.353347,307.1,NaN,,45.01613,,0 / 19,268,2022-01-10 18:03:50:878
-1.5191,1.584,9.5288,-1.6406,1.6334,9.5295,0.1451,-0.0476,0.0017,-0.0237,-0.0133,-0.0073,75.0,19.5,-8.17,-35.85,265.93,-10.24,10.5,2.0,24.135,48.8439,2.353347,307.1,NaN,,45.01613,,0 / 19,272,2022-01-10 18:03:50:882
-1.5191,1.584,9.5288,-1.6406,1.6334,9.5295,0.1451,-0.0476,0.0017,-0.0237,-0.0133,-0.0073,75.0,19.5,-8.17,-35.85,265.93,-10.24,10.5,2.0,24.135,48.8439,2.353347,307.1,NaN,,45.01613,,0 / 19,277,2022-01-10 18:03:50:887
-1.5191,1.584,9.5288,-1.6406,1.6334,9.5295,0.1451,-0.0476,0.0017,-0.0237,-0.0133,-0.0073,75.0,19.5,-8.17,-35.85,265.93,-10.24,10.5,2.0,24.135,48.8439,2.353347,307.1,NaN,,45.01613,,0 / 19,282,2022-01-10 18:03:50:892
-1.5191,1.584,9.5288,-1.6406,1.6334,9.5295,0.1451,-0.0476,0.0017,-0.0237,-0.0133,-0.0073,75.0,19.5,-8.17,-35.85,265.93,-10.24,10.5,2.0,24.135,48.8439,2.353347,307.1,NaN,,45.01613,,0 / 19,291,2022-01-10 18:03:50:901
-1.5191,1.584,9.5288,-1.6406,1.6334,9.5295,0.1451,-0.0476,0.0017,-0.0237,-0.0133,-0.0073,75.0,19.5,-8.17,-35.85,265.93,-10.24,10.5,2.0,24.135,48.8439,2.353347,307.1,NaN,,45.01613,,0 / 19,292,2022-01-10 18:03:50:902
-1.5191,1.584,9.5288,-1.6406,1.6334,9.5295,0.1451,-0.0476,0.0017,-0.0237,-0.0133,-0.0073,75.0,19.5,-8.17,-35.85,265.93,-10.24,10.5,2.0,24.135,48.8439,2.353347,307.1,NaN,,45.01613,,0 / 19,298,2022-01-10 18:03:50:908
-1.5191,1.584,9.5288,-1.6406,1.6334,9.5295,0.1451,-0.0476,0.0017,-0.0237,-0.0133,-0.0073,75.0,19.5,-8.17,-35.85,265.93,-10.24,10.5,2.0,24.135,48.8439,2.353347,307.1,NaN,,45.01613,,0 / 19,302,2022-01-10 18:03:50:912
-1.4833,1.517,9.4475,-1.6406,1.6334,9.5295,0.0607,-0.0367,-0.0119,-0.0237,-0.0133,-0.0073,75.0,19.5,-8.17,-35.85,265.93,-10.24,10.5,2.0,24.135,48.8439,2.353347,307.1,NaN,,45.01613,,0 / 19,308,2022-01-10 18:03:50:918
-1.4833,1.517,9.4475,-1.6406,1.6334,9.5295,0.0607,-0.0367,-0.0119,-0.0237,-0.0133,-0.0073,75.0,18.45,-7.88,-36.37,262.8,-9.59,9.77,2.0,24.135,48.8439,2.353347,307.1,NaN,,45.01613,,0 / 19,312,2022-01-10 18:03:50:922
-1.4833,1.517,9.4475,-1.6406,1.6334,9.5295,0.0607,-0.0367,-0.0119,-0.0237,-0.0133,-0.0073,75.0,18.45,-7.88,-36.37,262.8,-9.59,9.77,2.0,24.135,48.8439,2.353347,307.1,NaN,,45.01613,,0 / 19,317,2022-01-10 18:03:50:927
-1.4833,1.517,9.4475,-1.6406,1.6334,9.5295,0.0607,-0.0367,-0.0119,-0.0237,-0.0133,-0.0073,75.0,18.45,-7.88,-36.37,262.8,-9.59,9.77,2.0,24.135,48.8439,2.353347,307.1,NaN,,45.01613,,0 / 19,322,2022-01-10 18:03:50:932
-1.4833,1.517,9.4475,-1.6406,1.6334,9.5295,0.0607,-0.0367,-0.0119,-0.0237,-0.0133,-0.0073,75.0,18.45,-7.88,-36.37,262.8,-9.59,9.77,2.0,24.135,48.8439,2.353347,307.1,NaN,,45.01613,,0 / 19,327,2022-01-10 18:03:50:937
-1.4833,1.517,9.4475,-1.6406,1.6334,9.5295,0.0607,-0.0367,-0.0119,-0.0237,-0.0133,-0.0073,75.0,18.45,-7.88,-36.37,262.8,-9.59,9.77,2.0,24.135,48.8439,2.353347,307.1,NaN,,45.01613,,0 / 19,332,2022-01-10 18:03:50:942
-1.4833,1.517,9.4475,-1.6406,1.6334,9.5295,0.0607,-0.0367,-0.0119,-0.0237,-0.0133,-0.0073,75.0,18.45,-7.88,-36.37,262.8,-9.59,9.77,2.0,24.135,48.8439,2.353347,307.1,NaN,,45.01613,,0 / 19,337,2022-01-10 18:03:50:947
-1.4833,1.517,9.4475,-1.6406,1.6334,9.5295,0.0607,-0.0367,-0.0119,-0.0237,-0.0133,-0.0073,75.0,18.45,-7.88,-36.37,262.8,-9.59,9.77,2.0,24.135,48.8439,2.353347,307.1,NaN,,45.01613,,0 / 19,342,2022-01-10 18:03:50:952
-1.4833,1.517,9.4475,-1.6406,1.6334,9.5295,0.0607,-0.0367,-0.0119,-0.0237,-0.0133,-0.0073,75.0,18.45,-7.88,-36.37,262.8,-9.59,9.77,2.0,24.135,48.8439,2.353347,307.1,NaN,,45.01613,,0 / 19,347,2022-01-10 18:03:50:957
-1.4833,1.517,9.4475,-1.6406,1.6334,9.5295,0.0607,-0.0367,-0.0119,-0.0237,-0.0133,-0.0073,75.0,18.45,-7.88,-36.37,262.8,-9.59,9.77,2.0,24.135,48.8439,2.353347,307.1,NaN,,45.01613,,0 / 19,352,2022-01-10 18:03:50:962
-1.4833,1.517,9.4475,-1.6406,1.6334,9.5295,0.0607,-0.0367,-0.0119,-0.0237,-0.0133,-0.0073,75.0,18.45,-7.88,-36.37,262.8,-9.59,9.77,2.0,24.135,48.8439,2.353347,307.1,NaN,,45.01613,,0 / 19,357,2022-01-10 18:03:50:967
-1.4833,1.517,9.4475,-1.6095,1.5964,9.541,0.0607,-0.0367,-0.0119,-0.0126,0.0087,-0.0221,75.0,18.45,-7.88,-36.37,262.8,-9.59,9.77,2.0,24.135,48.8439,2.353347,307.1,NaN,,45.01613,,0 / 19,363,2022-01-10 18:03:50:973
-1.4833,1.517,9.4475,-1.6095,1.5964,9.541,0.0607,-0.0367,-0.0119,-0.0126,0.0087,-0.0221,75.0,18.45,-7.88,-36.37,262.8,-9.59,9.77,2.0,24.135,48.8439,2.353347,307.1,NaN,,45.01613,,0 / 19,367,2022-01-10 18:03:50:977
-1.4833,1.517,9.4475,-1.6095,1.5964,9.541,0.0607,-0.0367,-0.0119,-0.0126,0.0087,-0.0221,75.0,18.45,-7.88,-36.37,262.8,-9.59,9.77,2.0,24.135,48.8439,2.353347,307.1,NaN,,45.01613,,0 / 19,372,2022-01-10 18:03:50:982
-1.4833,1.517,9.4475,-1.6095,1.5964,9.541,0.0607,-0.0367,-0.0119,-0.0126,0.0087,-0.0221,75.0,18.45,-7.88,-36.37,262.8,-9.59,9.77,2.0,24.135,48.8439,2.353347,307.1,NaN,,45.01613,,0 / 19,377,2022-01-10 18:03:50:987
-1.4833,1.517,9.4475,-1.6095,1.5964,9.541,0.0607,-0.0367,-0.0119,-0.0126,0.0087,-0.0221,75.0,18.45,-7.88,-36.37,262.8,-9.59,9.77,2.0,24.135,48.8439,2.353347,307.1,NaN,,45.01613,,0 / 19,382,2022-01-10 18:03:50:992
-1.4833,1.517,9.4475,-1.6095,1.5964,9.541,0.0607,-0.0367,-0.0119,-0.0126,0.0087,-0.0221,75.0,18.45,-7.88,-36.37,262.8,-9.59,9.77,2.0,24.135,48.8439,2.353347,307.1,NaN,,45.01613,,0 / 19,387,2022-01-10 18:03:50:997
-1.4833,1.517,9.4475,-1.6095,1.5964,9.541,0.0607,-0.0367,-0.0119,-0.0126,0.0087,-0.0221,75.0,18.45,-7.88,-36.37,262.8,-9.59,9.77,2.0,24.135,48.8439,2.353347,307.1,NaN,,45.01613,,0 / 19,392,2022-01-10 18:03:51:002
-1.6184,1.5876,9.5779,-1.6095,1.5964,9.541,0.0607,-0.0367,-0.0119,-0.0126,0.0087,-0.0221,75.0,18.45,-7.88,-36.37,262.8,-9.59,9.77,2.0,24.135,48.8439,2.353347,307.1,NaN,,45.01613,,0 / 19,397,2022-01-10 18:03:51:007
-1.6184,1.5876,9.5779,-1.6095,1.5964,9.541,0.0607,-0.0367,-0.0119,-0.0126,0.0087,-0.0221,75.0,18.45,-7.88,-36.37,262.8,-9.59,9.77,2.0,24.135,48.8439,2.353347,307.1,NaN,,45.01613,,0 / 19,402,2022-01-10 18:03:51:012
-1.6184,1.5876,9.5779,-1.6095,1.5964,9.541,0.0607,-0.0367,-0.0119,-0.0126,0.0087,-0.0221,75.0,18.45,-7.88,-36.37,262.8,-9.59,9.77,2.0,24.135,48.8439,2.353347,307.1,NaN,,45.01613,,0 / 19,407,2022-01-10 18:03:51:017
-1.6184,1.5876,9.5779,-1.6095,1.5964,9.541,0.0607,-0.0367,-0.0119,-0.0126,0.0087,-0.0221,75.0,18.45,-7.88,-36.37,262.8,-9.59,9.77,2.0,24.135,48.8439,2.353347,307.1,NaN,,45.01613,,0 / 19,412,2022-01-10 18:03:51:022
-1.6184,1.5876,9.5779,-1.6095,1.5964,9.541,0.0607,-0.0367,-0.0119,-0.0126,0.0087,-0.0221,75.0,18.45,-7.88,-36.37,262.8,-9.59,9.77,2.0,24.135,48.8439,2.353347,307.1,NaN,,45.01613,,0 / 19,417,2022-01-10 18:03:51:027
-1.6184,1.5876,9.5779,-1.6095,1.5964,9.541,0.0607,-0.0367,-0.0119,-0.0126,0.0087,-0.0221,75.0,18.45,-7.88,-36.37,262.8,-9.59,9.77,2.0,24.135,48.8439,2.353347,307.1,NaN,,45.01613,,0 / 19,422,2022-01-10 18:03:51:032
-1.6184,1.5876,9.5779,-1.6095,1.5964,9.541,0.0607,-0.0367,-0.0119,-0.0126,0.0087,-0.0221,75.0,18.45,-7.88,-36.37,262.8,-9.59,9.77,2.0,24.135,48.8439,2.353347,307.1,NaN,,45.01613,,0 / 19,427,2022-01-10 18:03:51:037
-1.6184,1.5876,9.5779,-1.6095,1.5964,9.541,0.0607,-0.0367,-0.0119,-0.0126,0.0087,-0.0221,75.0,18.45,-7.88,-36.37,262.8,-9.59,9.77,2.0,24.135,48.8439,2.353347,307.1,NaN,,45.01613,,0 / 19,432,2022-01-10 18:03:51:042
-1.6184,1.5876,9.5779,-1.6095,1.5964,9.541,0.0607,-0.0367,-0.0119,-0.0126,0.0087,-0.0221,75.0,18.45,-7.88,-36.37,262.8,-9.59,9.77,2.0,24.135,48.8439,2.353347,307.1,NaN,,45.01613,,0 / 19,437,2022-01-10 18:03:51:047
-1.6184,1.5876,9.5779,-1.6095,1.5964,9.541,-0.0294,0.0205,0.0585,-0.0126,0.0087,-0.0221,75.0,18.45,-7.88,-36.37,262.8,-9.59,9.77,2.0,24.135,48.8439,2.353347,307.1,NaN,,45.01613,,0 / 19,442,2022-01-10 18:03:51:052
-1.6184,1.5876,9.5779,-1.6095,1.5964,9.541,-0.0294,0.0205,0.0585,-0.0126,0.0087,-0.0221,75.0,18.45,-7.88,-36.37,262.8,-9.59,9.77,2.0,24.135,48.8439,2.353347,307.1,NaN,,45.01613,,0 / 19,447,2022-01-10 18:03:51:057
-1.6184,1.5876,9.5779,-1.6095,1.5964,9.541,-0.0294,0.0205,0.0585,-0.0126,0.0087,-0.0221,75.0,18.45,-7.88,-36.37,262.8,-9.59,9.77,2.0,24.135,48.8439,2.353347,307.1,NaN,,45.01613,,0 / 19,452,2022-01-10 18:03:51:062
-1.6184,1.5876,9.5779,-1.6095,1.5964,9.541,-0.0294,0.0205,0.0585,-0.0126,0.0087,-0.0221,75.0,18.45,-7.88,-36.37,262.8,-9.59,9.77,2.0,24.135,48.8439,2.353347,307.1,NaN,,45.01613,,0 / 19,457,2022-01-10 18:03:51:067
-1.6184,1.5876,9.5779,-1.6095,1.5964,9.541,-0.0294,0.0205,0.0585,-0.0126,0.0087,-0.0221,75.0,18.45,-7.88,-36.37,262.8,-9.59,9.77,2.0,24.135,48.8439,2.353347,307.1,NaN,,45.01613,,0 / 19,462,2022-01-10 18:03:51:072
-1.6184,1.5876,9.5779,-1.6095,1.5964,9.541,-0.0294,0.0205,0.0585,-0.0126,0.0087,-0.0221,75.0,18.45,-7.88,-36.37,262.8,-9.59,9.77,2.0,24.135,48.8439,2.353347,307.1,NaN,,45.01613,,0 / 19,466,2022-01-10 18:03:51:076
-1.6184,1.5876,9.5779,-1.6095,1.5964,9.541,-0.0294,0.0205,0.0585,-0.0126,0.0087,-0.0221,75.0,18.45,-7.88,-36.37,262.8,-9.59,9.77,2.0,24.135,48.8439,2.353347,307.1,NaN,,45.01613,,0 / 19,472,2022-01-10 18:03:51:082
-1.6184,1.5876,9.5779,-1.6095,1.5964,9.541,-0.0294,0.0205,0.0585,-0.0126,0.0087,-0.0221,75.0,18.45,-7.88,-36.37,262.8,-9.59,9.77,2.0,24.135,48.8439,2.353347,307.1,NaN,,45.01613,,0 / 19,477,2022-01-10 18:03:51:087
-1.6184,1.5876,9.5779,-1.6095,1.5964,9.541,-0.0294,0.0205,0.0585,-0.0126,0.0087,-0.0221,75.0,18.45,-7.88,-36.37,262.8,-9.59,9.77,2.0,24.135,48.8439,2.353347,307.1,NaN,,45.01613,,0 / 19,482,2022-01-10 18:03:51:092
-1.6184,1.5876,9.5779,-1.6095,1.5964,9.541,-0.0294,0.0205,0.0585,-0.0126,0.0087,-0.0221,75.0,18.45,-7.88,-36.37,262.8,-9.59,9.77,2.0,24.135,48.8439,2.353347,307.1,NaN,,45.01613,,0 / 19,487,2022-01-10 18:03:51:097
-1.6184,1.5876,9.5779,-1.6095,1.5964,9.541,-0.0294,0.0205,0.0585,-0.0126,0.0087,-0.0221,75.0,18.45,-7.88,-36.37,262.8,-9.59,9.77,2.0,24.135,48.8439,2.353347,307.1,NaN,,45.01613,,0 / 19,492,2022-01-10 18:03:51:102
-1.6184,1.5876,9.5779,-1.6095,1.5964,9.541,-0.0294,0.0205,0.0585,-0.0126,0.0087,-0.0221,75.0,18.45,-7.88,-36.37,262.8,-9.59,9.77,2.0,24.135,48.8439,2.353347,307.1,NaN,,45.01613,,0 / 19,497,2022-01-10 18:03:51:107
-1.6053,1.5685,9.4379,-1.5985,1.5969,9.5428,-0.0294,0.0205,0.0585,-0.0126,0.0087,-0.0221,75.0,18.45,-7.88,-36.37,262.8,-9.59,9.77,2.0,24.135,48.8439,2.353347,307.1,NaN,,45.01613,,0 / 19,502,2022-01-10 18:03:51:112
-1.6053,1.5685,9.4379,-1.5985,1.5969,9.5428,-0.0294,0.0205,0.0585,-0.0126,0.0087,-0.0221,75.0,18.45,-7.88,-36.37,262.8,-9.59,9.77,2.0,24.135,48.8439,2.353347,307.1,NaN,,45.01613,,0 / 19,507,2022-01-10 18:03:51:117
-1.6053,1.5685,9.4379,-1.5985,1.5969,9.5428,-0.0294,0.0205,0.0585,-0.0126,0.0087,-0.0221,75.0,18.38,-7.42,-36.45,266.89,-9.37,9.51,2.0,24.135,48.8439,2.353347,307.1,NaN,,45.01613,,0 / 19,513,2022-01-10 18:03:51:123
-1.6053,1.5685,9.4379,-1.5985,1.5969,9.5428,-0.0294,0.0205,0.0585,-0.0126,0.0087,-0.0221,75.0,18.38,-7.42,-36.45,266.89,-9.37,9.51,2.0,24.135,48.8439,2.353347,307.1,NaN,,45.01613,,0 / 19,517,2022-01-10 18:03:51:127
-1.6053,1.5685,9.4379,-1.5985,1.5969,9.5428,0.0027,-0.0278,-0.059,0.0123,-0.0173,7.0E-4,75.0,18.38,-7.42,-36.45,266.89,-9.37,9.51,2.0,24.7,48.8439,2.353347,307.1,NaN,,45.01613,,0 / 19,581,2022-01-10 18:03:51:191
-1.6053,1.5685,9.4379,-1.5985,1.5969,9.5428,0.0027,-0.0278,-0.059,0.0123,-0.0173,7.0E-4,75.0,18.38,-7.42,-36.45,266.89,-9.37,9.51,2.0,24.7,48.8439,2.353347,307.1,NaN,,45.01613,,0 / 19,583,2022-01-10 18:03:51:193
-1.6053,1.5685,9.4379,-1.5985,1.5969,9.5428,0.0027,-0.0278,-0.059,0.0123,-0.0173,7.0E-4,75.0,18.38,-7.42,-36.45,266.89,-9.37,9.51,2.0,24.7,48.8439,2.353347,307.1,NaN,,45.01613,,0 / 19,583,2022-01-10 18:03:51:193
-1.6053,1.5685,9.4379,-1.5985,1.5969,9.5428,0.0027,-0.0278,-0.059,0.0123,-0.0173,7.0E-4,75.0,18.38,-7.42,-36.45,266.89,-9.37,9.51,2.0,24.7,48.8439,2.353347,307.1,NaN,,45.01613,,0 / 19,584,2022-01-10 18:03:51:194
-1.6053,1.5685,9.4379,-1.5985,1.5969,9.5428,0.0027,-0.0278,-0.059,0.0123,-0.0173,7.0E-4,75.0,18.38,-7.42,-36.45,266.89,-9.37,9.51,2.0,24.7,48.8439,2.353347,307.1,NaN,,45.01613,,0 / 19,584,2022-01-10 18:03:51:194
-1.6053,1.5685,9.4379,-1.5985,1.5969,9.5428,0.0027,-0.0278,-0.059,0.0123,-0.0173,7.0E-4,75.0,18.38,-7.42,-36.45,266.89,-9.37,9.51,2.0,24.7,48.8439,2.353347,307.1,NaN,,45.01613,,0 / 19,584,2022-01-10 18:03:51:194
-1.6053,1.5685,9.4379,-1.5985,1.5969,9.5428,0.0027,-0.0278,-0.059,0.0123,-0.0173,7.0E-4,75.0,18.38,-7.42,-36.45,266.89,-9.37,9.51,2.0,24.7,48.8439,2.353347,307.1,NaN,,45.01613,,0 / 19,585,2022-01-10 18:03:51:195
-1.6053,1.5685,9.4379,-1.5985,1.5969,9.5428,0.0027,-0.0278,-0.059,0.0123,-0.0173,7.0E-4,75.0,18.38,-7.42,-36.45,266.89,-9.37,9.51,2.0,24.7,48.8439,2.353347,307.1,NaN,,45.01613,,0 / 19,585,2022-01-10 18:03:51:195
-1.6053,1.5685,9.4379,-1.5985,1.5969,9.5428,0.0027,-0.0278,-0.059,0.0123,-0.0173,7.0E-4,75.0,18.38,-7.42,-36.45,266.89,-9.37,9.51,2.0,24.7,48.8439,2.353347,307.1,NaN,,45.01613,,0 / 19,585,2022-01-10 18:03:51:195
-1.6053,1.5685,9.4379,-1.5985,1.5969,9.5428,0.0027,-0.0278,-0.059,0.0123,-0.0173,7.0E-4,75.0,18.38,-7.42,-36.45,266.89,-9.37,9.51,2.0,24.7,48.8439,2.353347,307.1,NaN,,45.01613,,0 / 19,588,2022-01-10 18:03:51:198
-1.6053,1.5685,9.4379,-1.5985,1.5969,9.5428,0.0027,-0.0278,-0.059,0.0123,-0.0173,7.0E-4,75.0,18.38,-7.42,-36.45,266.89,-9.37,9.51,2.0,24.7,48.8439,2.353347,307.1,NaN,,45.01613,,0 / 19,588,2022-01-10 18:03:51:198
-1.6053,1.5685,9.4379,-1.5985,1.5969,9.5428,0.0027,-0.0278,-0.059,0.0123,-0.0173,7.0E-4,75.0,18.38,-7.42,-36.45,266.89,-9.37,9.51,2.0,24.7,48.8439,2.353347,307.1,NaN,,45.01613,,0 / 19,588,2022-01-10 18:03:51:198
-1.6053,1.5685,9.4379,-1.5985,1.5969,9.5428,0.0027,-0.0278,-0.059,0.0123,-0.0173,7.0E-4,75.0,18.38,-7.42,-36.45,266.89,-9.37,9.51,2.0,24.7,48.8439,2.353347,307.1,NaN,,45.01613,,0 / 19,589,2022-01-10 18:03:51:199
-1.6053,1.5685,9.4379,-1.5985,1.5969,9.5428,0.0027,-0.0278,-0.059,0.0123,-0.0173,7.0E-4,75.0,18.38,-7.42,-36.45,266.89,-9.37,9.51,2.0,24.7,48.8439,2.353347,307.1,NaN,,45.01613,,0 / 19,589,2022-01-10 18:03:51:199
-1.6053,1.5685,9.4379,-1.5985,1.5969,9.5428,0.0027,-0.0278,-0.059,0.0123,-0.0173,7.0E-4,75.0,18.38,-7.42,-36.45,266.89,-9.37,9.51,2.0,24.7,48.8439,2.353347,307.1,NaN,,45.01613,,0 / 19,592,2022-01-10 18:03:51:202
-1.5084,1.5099,9.4403,-1.5985,1.5969,9.5428,0.0027,-0.0278,-0.059,0.0123,-0.0173,7.0E-4,75.0,18.38,-7.42,-36.45,266.89,-9.37,9.51,2.0,24.7,48.8439,2.353347,307.1,NaN,,45.01613,,0 / 19,596,2022-01-10 18:03:51:206
-1.5084,1.5099,9.4403,-1.5985,1.5969,9.5428,0.0027,-0.0278,-0.059,0.0123,-0.0173,7.0E-4,75.0,18.38,-7.42,-36.45,266.89,-9.37,9.51,2.0,24.7,48.8439,2.353347,307.1,NaN,,45.01613,,0 / 19,602,2022-01-10 18:03:51:212
-1.5084,1.5099,9.4403,-1.5985,1.5969,9.5428,0.0027,-0.0278,-0.059,0.0123,-0.0173,7.0E-4,75.0,18.38,-7.42,-36.45,266.89,-9.37,9.51,2.0,24.7,48.8439,2.353347,307.1,NaN,,45.01613,,0 / 19,607,2022-01-10 18:03:51:217
-1.5084,1.5099,9.4403,-1.5985,1.5969,9.5428,0.0027,-0.0278,-0.059,0.0123,-0.0173,7.0E-4,75.0,18.38,-7.42,-36.45,266.89,-9.37,9.51,2.0,24.7,48.8439,2.353347,307.1,NaN,,45.01613,,0 / 19,612,2022-01-10 18:03:51:222
-1.5084,1.5099,9.4403,-1.5985,1.5969,9.5428,0.0027,-0.0278,-0.059,0.0123,-0.0173,7.0E-4,75.0,18.38,-7.42,-36.45,266.89,-9.37,9.51,2.0,24.7,48.8439,2.353347,307.1,NaN,,45.01613,,0 / 19,617,2022-01-10 18:03:51:227
-1.5084,1.5099,9.4403,-1.5985,1.5969,9.5428,0.0027,-0.0278,-0.059,0.0123,-0.0173,7.0E-4,75.0,18.38,-7.42,-36.45,266.89,-9.37,9.51,2.0,24.7,48.8439,2.353347,307.1,NaN,,45.01613,,0 / 19,622,2022-01-10 18:03:51:232
-1.5084,1.5099,9.4403,-1.587,1.5728,9.5487,0.0027,-0.0278,-0.059,0.0123,-0.0173,7.0E-4,75.0,18.38,-7.42,-36.45,266.89,-9.37,9.51,2.0,24.7,48.8439,2.353347,307.1,NaN,,45.01613,,0 / 19,628,2022-01-10 18:03:51:238
-1.5084,1.5099,9.4403,-1.587,1.5728,9.5487,0.0027,-0.0278,-0.059,0.0123,-0.0173,7.0E-4,75.0,18.38,-7.42,-36.45,266.89,-9.37,9.51,2.0,24.7,48.8439,2.353347,307.1,NaN,,45.01613,,0 / 19,632,2022-01-10 18:03:51:242
-1.5084,1.5099,9.4403,-1.587,1.5728,9.5487,0.0027,-0.0278,-0.059,0.0123,-0.0173,7.0E-4,75.0,18.38,-7.42,-36.45,266.89,-9.37,9.51,2.0,24.7,48.8439,2.353347,307.1,NaN,,45.01613,,0 / 19,637,2022-01-10 18:03:51:247
-1.5084,1.5099,9.4403,-1.587,1.5728,9.5487,0.0027,-0.0278,-0.059,-0.0333,-0.0224,-0.0119,75.0,18.38,-7.42,-36.45,266.89,-9.37,9.51,2.0,24.7,48.8439,2.353347,307.1,NaN,,45.01613,,0 / 19,644,2022-01-10 18:03:51:254
-1.5084,1.5099,9.4403,-1.587,1.5728,9.5487,0.0027,-0.0278,-0.059,-0.0333,-0.0224,-0.0119,75.0,18.38,-7.42,-36.45,266.89,-9.37,9.51,2.0,24.7,48.8439,2.353347,307.1,NaN,,45.01613,,0 / 19,647,2022-01-10 18:03:51:257
-1.5084,1.5099,9.4403,-1.587,1.5728,9.5487,0.0027,-0.0278,-0.059,-0.0333,-0.0224,-0.0119,75.0,18.38,-7.42,-36.45,266.89,-9.37,9.51,2.0,24.7,48.8439,2.353347,307.1,NaN,,45.01613,,0 / 19,652,2022-01-10 18:03:51:262
-1.5084,1.5099,9.4403,-1.587,1.5728,9.5487,0.0027,-0.0278,-0.059,-0.0333,-0.0224,-0.0119,75.0,18.38,-7.42,-36.45,266.89,-9.37,9.51,2.0,24.7,48.8439,2.353347,307.1,NaN,,45.01613,,0 / 19,657,2022-01-10 18:03:51:267
-1.5084,1.5099,9.4403,-1.587,1.5728,9.5487,0.0027,-0.0278,-0.059,-0.0333,-0.0224,-0.0119,75.0,18.38,-7.42,-36.45,266.89,-9.37,9.51,2.0,24.7,48.8439,2.353347,307.1,NaN,,45.01613,,0 / 19,662,2022-01-10 18:03:51:272
-1.5084,1.5099,9.4403,-1.587,1.5728,9.5487,0.0027,-0.0278,-0.059,-0.0333,-0.0224,-0.0119,75.0,18.38,-7.42,-36.45,266.89,-9.37,9.51,2.0,24.7,48.8439,2.353347,307.1,NaN,,45.01613,,0 / 19,667,2022-01-10 18:03:51:277
-1.5084,1.5099,9.4403,-1.587,1.5728,9.5487,0.0027,-0.0278,-0.059,-0.0333,-0.0224,-0.0119,75.0,18.38,-7.42,-36.45,266.89,-9.37,9.51,2.0,24.7,48.8439,2.353347,307.1,NaN,,45.01613,,0 / 19,672,2022-01-10 18:03:51:282
-1.5084,1.5099,9.4403,-1.587,1.5728,9.5487,0.0027,-0.0278,-0.059,-0.0333,-0.0224,-0.0119,75.0,18.38,-7.42,-36.45,266.89,-9.37,9.51,2.0,24.7,48.8439,2.353347,307.1,NaN,,45.01613,,0 / 19,677,2022-01-10 18:03:51:287
-1.5251,1.6152,9.5001,-1.587,1.5728,9.5487,0.0338,-0.0266,-0.015,-0.0333,-0.0224,-0.0119,75.0,18.38,-7.42,-36.45,266.89,-9.37,9.51,2.0,24.7,48.8439,2.353347,307.1,NaN,,45.01613,,0 / 19,682,2022-01-10 18:03:51:292
-1.5251,1.6152,9.5001,-1.587,1.5728,9.5487,0.0338,-0.0266,-0.015,-0.0333,-0.0224,-0.0119,75.0,18.38,-7.42,-36.45,266.89,-9.37,9.51,2.0,24.7,48.8439,2.353347,307.1,NaN,,45.01613,,0 / 19,687,2022-01-10 18:03:51:297
-1.5251,1.6152,9.5001,-1.587,1.5728,9.5487,0.0338,-0.0266,-0.015,-0.0333,-0.0224,-0.0119,75.0,18.38,-7.42,-36.45,266.89,-9.37,9.51,2.0,24.7,48.8439,2.353347,307.1,NaN,,45.01613,,0 / 19,692,2022-01-10 18:03:51:302
-1.5251,1.6152,9.5001,-1.587,1.5728,9.5487,0.0338,-0.0266,-0.015,-0.0333,-0.0224,-0.0119,75.0,18.38,-7.42,-36.45,266.89,-9.37,9.51,2.0,24.7,48.8439,2.353347,307.1,NaN,,45.01613,,0 / 19,697,2022-01-10 18:03:51:307
-1.5251,1.6152,9.5001,-1.587,1.5728,9.5487,0.0338,-0.0266,-0.015,-0.0333,-0.0224,-0.0119,75.0,18.38,-7.42,-36.45,266.89,-9.37,9.51,2.0,24.7,48.8439,2.353347,307.1,NaN,,45.01613,,0 / 19,703,2022-01-10 18:03:51:313
-1.5251,1.6152,9.5001,-1.587,1.5728,9.5487,0.0338,-0.0266,-0.015,-0.0333,-0.0224,-0.0119,75.0,18.38,-7.42,-36.45,266.89,-9.37,9.51,2.0,24.7,48.8439,2.353347,307.1,NaN,,45.01613,,0 / 19,707,2022-01-10 18:03:51:317
-1.5251,1.6152,9.5001,-1.587,1.5728,9.5487,0.0338,-0.0266,-0.015,-0.0333,-0.0224,-0.0119,75.0,18.6,-7.2,-36.37,266.82,-9.23,9.44,2.0,24.7,48.8439,2.353347,307.1,NaN,,45.01613,,0 / 19,712,2022-01-10 18:03:51:322
-1.5251,1.6152,9.5001,-1.587,1.5728,9.5487,0.0338,-0.0266,-0.015,-0.0333,-0.0224,-0.0119,75.0,18.6,-7.2,-36.37,266.82,-9.23,9.44,2.0,24.7,48.8439,2.353347,307.1,NaN,,45.01613,,0 / 19,717,2022-01-10 18:03:51:327
-1.5251,1.6152,9.5001,-1.587,1.5728,9.5487,0.0338,-0.0266,-0.015,-0.0333,-0.0224,-0.0119,75.0,18.6,-7.2,-36.37,266.82,-9.23,9.44,2.0,24.7,48.8439,2.353347,307.1,NaN,,45.01613,,0 / 19,722,2022-01-10 18:03:51:332
-1.5251,1.6152,9.5001,-1.587,1.5728,9.5487,0.0338,-0.0266,-0.015,-0.0333,-0.0224,-0.0119,75.0,18.6,-7.2,-36.37,266.82,-9.23,9.44,2.0,24.7,48.8439,2.353347,307.1,NaN,,45.01613,,0 / 19,727,2022-01-10 18:03:51:337
-1.5251,1.6152,9.5001,-1.536,1.5462,9.5614,0.0338,-0.0266,-0.015,-0.0333,-0.0224,-0.0119,75.0,18.6,-7.2,-36.37,266.82,-9.23,9.44,2.0,24.7,48.8439,2.353347,307.1,NaN,,45.01613,,0 / 19,734,2022-01-10 18:03:51:344
-1.5251,1.6152,9.5001,-1.536,1.5462,9.5614,0.0338,-0.0266,-0.015,-0.0333,-0.0224,-0.0119,75.0,18.6,-7.2,-36.37,266.82,-9.23,9.44,2.0,24.7,48.8439,2.353347,307.1,NaN,,45.01613,,0 / 19,738,2022-01-10 18:03:51:348
-1.5251,1.6152,9.5001,-1.536,1.5462,9.5614,0.0338,-0.0266,-0.015,-0.0333,-0.0224,-0.0119,75.0,18.6,-7.2,-36.37,266.82,-9.23,9.44,2.0,24.7,48.8439,2.353347,307.1,NaN,,45.01613,,0 / 19,742,2022-01-10 18:03:51:352
-1.5251,1.6152,9.5001,-1.536,1.5462,9.5614,0.0338,-0.0266,-0.015,-0.0333,-0.0224,-0.0119,75.0,18.6,-7.2,-36.37,266.82,-9.23,9.44,2.0,24.7,48.8439,2.353347,307.1,NaN,,45.01613,,0 / 19,747,2022-01-10 18:03:51:357
-1.5251,1.6152,9.5001,-1.536,1.5462,9.5614,0.0338,-0.0266,-0.015,-0.0333,-0.0224,-0.0119,75.0,18.6,-7.2,-36.37,266.82,-9.23,9.44,2.0,24.7,48.8439,2.353347,307.1,NaN,,45.01613,,0 / 19,752,2022-01-10 18:03:51:362
-1.5251,1.6152,9.5001,-1.536,1.5462,9.5614,0.0338,-0.0266,-0.015,-0.0333,-0.0224,-0.0119,75.0,18.6,-7.2,-36.37,266.82,-9.23,9.44,2.0,24.7,48.8439,2.353347,307.1,NaN,,45.01613,,0 / 19,757,2022-01-10 18:03:51:367
-1.5251,1.6152,9.5001,-1.536,1.5462,9.5614,0.0338,-0.0266,-0.015,-0.0333,-0.0224,-0.0119,75.0,18.6,-7.2,-36.37,266.82,-9.23,9.44,2.0,24.7,48.8439,2.353347,307.1,NaN,,45.01613,,0 / 19,762,2022-01-10 18:03:51:372
-1.5251,1.6152,9.5001,-1.536,1.5462,9.5614,0.0338,-0.0266,-0.015,-0.0333,-0.0224,-0.0119,75.0,18.6,-7.2,-36.37,266.82,-9.23,9.44,2.0,24.7,48.8439,2.353347,307.1,NaN,,45.01613,,0 / 19,767,2022-01-10 18:03:51:377
-1.4916,1.5422,9.6138,-1.536,1.5462,9.5614,0.0338,-0.0266,-0.015,0.0638,0.0176,0.0129,75.0,18.6,-7.2,-36.37,266.82,-9.23,9.44,2.0,24.7,48.8439,2.353347,307.1,NaN,,45.01613,,0 / 19,772,2022-01-10 18:03:51:382
-1.4916,1.5422,9.6138,-1.536,1.5462,9.5614,0.0338,-0.0266,-0.015,0.0638,0.0176,0.0129,75.0,18.6,-7.2,-36.37,266.82,-9.23,9.44,2.0,24.7,48.8439,2.353347,307.1,NaN,,45.01613,,0 / 19,777,2022-01-10 18:03:51:387
-1.4916,1.5422,9.6138,-1.536,1.5462,9.5614,0.0338,-0.0266,-0.015,0.0638,0.0176,0.0129,75.0,18.6,-7.2,-36.37,266.82,-9.23,9.44,2.0,24.7,48.8439,2.353347,307.1,NaN,,45.01613,,0 / 19,782,2022-01-10 18:03:51:392
-1.4916,1.5422,9.6138,-1.536,1.5462,9.5614,0.0338,-0.0266,-0.015,0.0638,0.0176,0.0129,75.0,18.6,-7.2,-36.37,266.82,-9.23,9.44,2.0,24.7,48.8439,2.353347,307.1,NaN,,45.01613,,0 / 19,787,2022-01-10 18:03:51:397
-1.4916,1.5422,9.6138,-1.536,1.5462,9.5614,0.0111,-0.0285,0.0445,0.0638,0.0176,0.0129,75.0,18.6,-7.2,-36.37,266.82,-9.23,9.44,2.0,24.7,48.8439,2.353347,307.1,NaN,,45.01613,,0 / 19,794,2022-01-10 18:03:51:404
-1.4916,1.5422,9.6138,-1.536,1.5462,9.5614,0.0111,-0.0285,0.0445,0.0638,0.0176,0.0129,75.0,18.6,-7.2,-36.37,266.82,-9.23,9.44,2.0,24.7,48.8439,2.353347,307.1,NaN,,45.01613,,0 / 19,797,2022-01-10 18:03:51:407
-1.4916,1.5422,9.6138,-1.536,1.5462,9.5614,0.0111,-0.0285,0.0445,0.0638,0.0176,0.0129,75.0,18.6,-7.2,-36.37,266.82,-9.23,9.44,2.0,24.7,48.8439,2.353347,307.1,NaN,,45.01613,,0 / 19,801,2022-01-10 18:03:51:411
-1.4916,1.5422,9.6138,-1.536,1.5462,9.5614,0.0111,-0.0285,0.0445,0.0638,0.0176,0.0129,75.0,18.6,-7.2,-36.37,266.82,-9.23,9.44,2.0,24.7,48.8439,2.353347,307.1,NaN,,45.01613,,0 / 19,807,2022-01-10 18:03:51:417
-1.4916,1.5422,9.6138,-1.536,1.5462,9.5614,0.0111,-0.0285,0.0445,0.0638,0.0176,0.0129,75.0,18.6,-7.2,-36.37,266.82,-9.23,9.44,2.0,24.7,48.8439,2.353347,307.1,NaN,,45.01613,,0 / 19,812,2022-01-10 18:03:51:422
-1.4916,1.5422,9.6138,-1.536,1.5462,9.5614,0.0111,-0.0285,0.0445,0.0638,0.0176,0.0129,75.0,18.6,-7.2,-36.37,266.82,-9.23,9.44,2.0,24.7,48.8439,2.353347,307.1,NaN,,45.01613,,0 / 19,817,2022-01-10 18:03:51:427
-1.4916,1.5422,9.6138,-1.536,1.5462,9.5614,0.0111,-0.0285,0.0445,0.0638,0.0176,0.0129,75.0,18.6,-7.2,-36.37,266.82,-9.23,9.44,2.0,24.7,48.8439,2.353347,307.1,NaN,,45.01613,,0 / 19,822,2022-01-10 18:03:51:432
-1.4916,1.5422,9.6138,-1.536,1.5462,9.5614,0.0111,-0.0285,0.0445,0.0638,0.0176,0.0129,75.0,18.6,-7.2,-36.37,266.82,-9.23,9.44,2.0,24.7,48.8439,2.353347,307.1,NaN,,45.01613,,0 / 19,827,2022-01-10 18:03:51:437
-1.4916,1.5422,9.6138,-1.536,1.5462,9.5614,0.0111,-0.0285,0.0445,0.0638,0.0176,0.0129,75.0,18.6,-7.2,-36.37,266.82,-9.23,9.44,2.0,24.7,48.8439,2.353347,307.1,NaN,,45.01613,,0 / 19,833,2022-01-10 18:03:51:443
-1.4916,1.5422,9.6138,-1.536,1.5462,9.5614,0.0111,-0.0285,0.0445,0.0638,0.0176,0.0129,75.0,18.6,-7.2,-36.37,266.82,-9.23,9.44,2.0,24.7,48.8439,2.353347,307.1,NaN,,45.01613,,0 / 19,837,2022-01-10 18:03:51:447
-1.4916,1.5422,9.6138,-1.536,1.5462,9.5614,0.0111,-0.0285,0.0445,0.0638,0.0176,0.0129,75.0,18.6,-7.2,-36.37,266.82,-9.23,9.44,2.0,24.7,48.8439,2.353347,307.1,NaN,,45.01613,,0 / 19,842,2022-01-10 18:03:51:452
-1.4916,1.5422,9.6138,-1.536,1.5462,9.5614,0.0111,-0.0285,0.0445,0.0638,0.0176,0.0129,75.0,18.6,-7.2,-36.37,266.82,-9.23,9.44,2.0,24.7,48.8439,2.353347,307.1,NaN,,45.01613,,0 / 19,848,2022-01-10 18:03:51:458
-1.4916,1.5422,9.6138,-1.536,1.5462,9.5614,0.0111,-0.0285,0.0445,0.0638,0.0176,0.0129,75.0,18.6,-7.2,-36.37,266.82,-9.23,9.44,2.0,24.7,48.8439,2.353347,307.1,NaN,,45.01613,,0 / 19,852,2022-01-10 18:03:51:462
-1.4916,1.5422,9.6138,-1.536,1.5462,9.5614,0.0111,-0.0285,0.0445,0.0638,0.0176,0.0129,75.0,18.6,-7.2,-36.37,266.82,-9.23,9.44,2.0,24.7,48.8439,2.353347,307.1,NaN,,45.01613,,0 / 19,857,2022-01-10 18:03:51:467
-1.4916,1.5422,9.6138,-1.536,1.5462,9.5614,0.0111,-0.0285,0.0445,0.0638,0.0176,0.0129,75.0,18.6,-7.2,-36.37,266.82,-9.23,9.44,2.0,24.7,48.8439,2.353347,307.1,NaN,,45.01613,,0 / 19,862,2022-01-10 18:03:51:472
-1.4916,1.5422,9.6138,-1.536,1.5462,9.5614,0.0111,-0.0285,0.0445,0.0638,0.0176,0.0129,75.0,18.6,-7.2,-36.37,266.82,-9.23,9.44,2.0,24.7,48.8439,2.353347,307.1,NaN,,45.01613,,0 / 19,867,2022-01-10 18:03:51:477
-1.4916,1.5422,9.6138,-1.536,1.5462,9.5614,0.0111,-0.0285,0.0445,0.0638,0.0176,0.0129,75.0,18.6,-7.2,-36.37,266.82,-9.23,9.44,2.0,24.7,48.8439,2.353347,307.1,NaN,,45.01613,,0 / 19,874,2022-01-10 18:03:51:484
-1.4916,1.5422,9.6138,-1.536,1.5462,9.5614,0.0111,-0.0285,0.0445,0.0638,0.0176,0.0129,75.0,18.6,-7.2,-36.37,266.82,-9.23,9.44,2.0,24.7,48.8439,2.353347,307.1,NaN,,45.01613,,0 / 19,877,2022-01-10 18:03:51:487
-1.4916,1.5422,9.6138,-1.536,1.5462,9.5614,0.0111,-0.0285,0.0445,0.0638,0.0176,0.0129,75.0,18.6,-7.2,-36.37,266.82,-9.23,9.44,2.0,24.7,48.8439,2.353347,307.1,NaN,,45.01613,,0 / 19,882,2022-01-10 18:03:51:492
-1.4916,1.5422,9.6138,-1.536,1.5462,9.5614,0.0111,-0.0285,0.0445,0.0638,0.0176,0.0129,75.0,18.6,-7.2,-36.37,266.82,-9.23,9.44,2.0,24.7,48.8439,2.353347,307.1,NaN,,45.01613,,0 / 19,887,2022-01-10 18:03:51:497
-1.4916,1.5422,9.6138,-1.536,1.5462,9.5614,0.0111,-0.0285,0.0445,0.0638,0.0176,0.0129,75.0,18.6,-7.2,-36.37,266.82,-9.23,9.44,2.0,24.7,48.8439,2.353347,307.1,NaN,,45.01613,,0 / 19,892,2022-01-10 18:03:51:502
-1.4916,1.5422,9.6138,-1.536,1.5462,9.5614,0.0111,-0.0285,0.0445,0.0638,0.0176,0.0129,75.0,18.6,-7.2,-36.37,266.82,-9.23,9.44,2.0,24.7,48.8439,2.353347,307.1,NaN,,45.01613,,0 / 19,898,2022-01-10 18:03:51:508
-1.4916,1.5422,9.6138,-1.536,1.5462,9.5614,0.0111,-0.0285,0.0445,0.0638,0.0176,0.0129,75.0,18.6,-7.2,-36.37,266.82,-9.23,9.44,2.0,24.7,48.8439,2.353347,307.1,NaN,,45.01613,,0 / 19,902,2022-01-10 18:03:51:512
-1.4916,1.5422,9.6138,-1.536,1.5462,9.5614,0.0111,-0.0285,0.0445,0.0638,0.0176,0.0129,75.0,18.6,-7.2,-36.37,266.82,-9.23,9.44,2.0,24.7,48.8439,2.353347,307.1,NaN,,45.01613,,0 / 19,907,2022-01-10 18:03:51:517
-1.4916,1.5422,9.6138,-1.536,1.5462,9.5614,0.0111,-0.0285,0.0445,0.0638,0.0176,0.0129,75.0,18.6,-7.2,-36.37,266.82,-9.23,9.44,2.0,24.7,48.8439,2.353347,307.1,NaN,,45.01613,,0 / 19,912,2022-01-10 18:03:51:522
-1.5706,1.6259,9.5456,-1.5569,1.6324,9.5437,0.0507,-0.0737,0.0843,0.0631,0.0129,0.0234,75.0,18.53,-7.27,-36.45,267.88,-9.58,9.27,2.0,24.7,48.8439,2.353347,307.1,NaN,,45.01613,,0 / 19,917,2022-01-10 18:03:51:527
-1.5706,1.6259,9.5456,-1.5569,1.6324,9.5437,0.0507,-0.0737,0.0843,0.0631,0.0129,0.0234,75.0,18.53,-7.27,-36.45,267.88,-9.58,9.27,2.0,23.187,48.8439,2.353347,307.1,NaN,,45.01613,,0 / 19,922,2022-01-10 18:03:51:532
-1.5706,1.6259,9.5456,-1.5569,1.6324,9.5437,0.0507,-0.0737,0.0843,0.0631,0.0129,0.0234,75.0,18.53,-7.27,-36.45,267.88,-9.58,9.27,2.0,23.187,48.8439,2.353347,307.1,NaN,,45.01613,,0 / 19,927,2022-01-10 18:03:51:537
-1.5706,1.6259,9.5456,-1.5569,1.6324,9.5437,0.0507,-0.0737,0.0843,0.0631,0.0129,0.0234,75.0,18.53,-7.27,-36.45,267.88,-9.58,9.27,2.0,23.187,48.8439,2.353347,307.1,NaN,,45.01613,,0 / 19,932,2022-01-10 18:03:51:542
-1.5706,1.6259,9.5456,-1.5569,1.6324,9.5437,0.0507,-0.0737,0.0843,0.0631,0.0129,0.0234,75.0,18.53,-7.27,-36.45,267.88,-9.58,9.27,2.0,23.187,48.8439,2.353347,307.1,NaN,,45.01613,,0 / 19,938,2022-01-10 18:03:51:548
-1.5706,1.6259,9.5456,-1.5569,1.6324,9.5437,0.0507,-0.0737,0.0843,0.0631,0.0129,0.0234,75.0,18.53,-7.27,-36.45,267.88,-9.58,9.27,2.0,23.187,48.8439,2.353347,307.1,NaN,,45.01613,,0 / 19,942,2022-01-10 18:03:51:552
-1.5706,1.6259,9.5456,-1.5569,1.6324,9.5437,0.0507,-0.0737,0.0843,0.0631,0.0129,0.0234,75.0,18.53,-7.27,-36.45,267.88,-9.58,9.27,2.0,23.187,48.8439,2.353347,307.1,NaN,,45.01613,,0 / 19,947,2022-01-10 18:03:51:557
-1.5706,1.6259,9.5456,-1.5569,1.6324,9.5437,0.0507,-0.0737,0.0843,0.0631,0.0129,0.0234,75.0,18.53,-7.27,-36.45,267.88,-9.58,9.27,2.0,23.187,48.8439,2.353347,307.1,NaN,,45.01613,,0 / 19,952,2022-01-10 18:03:51:562
-1.5706,1.6259,9.5456,-1.5569,1.6324,9.5437,0.0507,-0.0737,0.0843,0.0631,0.0129,0.0234,75.0,18.53,-7.27,-36.45,267.88,-9.58,9.27,2.0,23.187,48.8439,2.353347,307.1,NaN,,45.01613,,0 / 19,958,2022-01-10 18:03:51:568
-1.5706,1.6259,9.5456,-1.5569,1.6324,9.5437,0.0507,-0.0737,0.0843,0.0631,0.0129,0.0234,75.0,18.53,-7.27,-36.45,267.88,-9.58,9.27,2.0,23.187,48.8439,2.353347,307.1,NaN,,45.01613,,0 / 19,963,2022-01-10 18:03:51:573
-1.5706,1.6259,9.5456,-1.5569,1.6324,9.5437,0.0507,-0.0737,0.0843,0.0631,0.0129,0.0234,75.0,18.53,-7.27,-36.45,267.88,-9.58,9.27,2.0,23.187,48.8439,2.353347,307.1,NaN,,45.01613,,0 / 19,968,2022-01-10 18:03:51:578
-1.5706,1.6259,9.5456,-1.5569,1.6324,9.5437,0.0507,-0.0737,0.0843,0.0631,0.0129,0.0234,75.0,18.53,-7.27,-36.45,267.88,-9.58,9.27,2.0,23.187,48.8439,2.353347,307.1,NaN,,45.01613,,0 / 19,972,2022-01-10 18:03:51:582
-1.5706,1.6259,9.5456,-1.5569,1.6324,9.5437,0.0507,-0.0737,0.0843,0.0631,0.0129,0.0234,75.0,18.53,-7.27,-36.45,267.88,-9.58,9.27,2.0,23.187,48.8439,2.353347,307.1,NaN,,45.01613,,0 / 19,978,2022-01-10 18:03:51:588
-1.5706,1.6259,9.5456,-1.5569,1.6324,9.5437,0.0507,-0.0737,0.0843,0.0631,0.0129,0.0234,75.0,18.53,-7.27,-36.45,267.88,-9.58,9.27,2.0,23.187,48.8439,2.353347,307.1,NaN,,45.01613,,0 / 19,983,2022-01-10 18:03:51:593
-1.5706,1.6259,9.5456,-1.5569,1.6324,9.5437,0.0507,-0.0737,0.0843,0.0631,0.0129,0.0234,75.0,18.53,-7.27,-36.45,267.88,-9.58,9.27,2.0,23.187,48.8439,2.353347,307.1,NaN,,45.01613,,0 / 19,988,2022-01-10 18:03:51:598
-1.5706,1.6259,9.5456,-1.5569,1.6324,9.5437,0.0507,-0.0737,0.0843,0.0631,0.0129,0.0234,75.0,18.53,-7.27,-36.45,267.88,-9.58,9.27,2.0,23.187,48.8439,2.353347,307.1,NaN,,45.01613,,0 / 19,993,2022-01-10 18:03:51:603
-1.5706,1.6259,9.5456,-1.5569,1.6324,9.5437,0.0507,-0.0737,0.0843,0.0631,0.0129,0.0234,75.0,18.53,-7.27,-36.45,267.88,-9.58,9.27,2.0,23.187,48.8439,2.353347,307.1,NaN,,45.01613,,0 / 19,997,2022-01-10 18:03:51:607
-1.5706,1.6259,9.5456,-1.5569,1.6324,9.5437,0.0507,-0.0737,0.0843,0.0631,0.0129,0.0234,75.0,18.53,-7.27,-36.45,267.88,-9.58,9.27,2.0,23.187,48.8439,2.353347,307.1,NaN,,45.01613,,0 / 19,1002,2022-01-10 18:03:51:612
-1.5706,1.6259,9.5456,-1.5569,1.6324,9.5437,0.0507,-0.0737,0.0843,0.0631,0.0129,0.0234,75.0,18.53,-7.27,-36.45,267.88,-9.58,9.27,2.0,23.187,48.8439,2.353347,307.1,NaN,,45.01613,,0 / 19,1007,2022-01-10 18:03:51:617
-1.5706,1.6259,9.5456,-1.5569,1.6324,9.5437,0.0507,-0.0737,0.0843,0.0631,0.0129,0.0234,75.0,18.53,-7.27,-36.45,267.88,-9.58,9.27,2.0,23.187,48.8439,2.353347,307.1,NaN,,45.01613,,0 / 19,1013,2022-01-10 18:03:51:623
-1.5706,1.6259,9.5456,-1.5569,1.6324,9.5437,0.0507,-0.0737,0.0843,0.0631,0.0129,0.0234,75.0,18.53,-7.27,-36.45,267.88,-9.58,9.27,2.0,23.187,48.8439,2.353347,307.1,NaN,,45.01613,,0 / 19,1017,2022-01-10 18:03:51:627
-1.5706,1.6259,9.5456,-1.5569,1.6324,9.5437,0.0507,-0.0737,0.0843,0.0631,0.0129,0.0234,75.0,18.53,-7.27,-36.45,267.88,-9.58,9.27,2.0,23.187,48.8439,2.353347,307.1,NaN,,45.01613,,0 / 19,1022,2022-01-10 18:03:51:632
-1.5706,1.6259,9.5456,-1.5569,1.6324,9.5437,0.0507,-0.0737,0.0843,0.0631,0.0129,0.0234,75.0,18.53,-7.27,-36.45,267.88,-9.58,9.27,2.0,23.187,48.8439,2.353347,307.1,NaN,,45.01613,,0 / 19,1027,2022-01-10 18:03:51:637
-1.5706,1.6259,9.5456,-1.5569,1.6324,9.5437,0.0507,-0.0737,0.0843,0.0631,0.0129,0.0234,75.0,18.53,-7.27,-36.45,267.88,-9.58,9.27,2.0,23.187,48.8439,2.353347,307.1,NaN,,45.01613,,0 / 19,1032,2022-01-10 18:03:51:642
-1.4928,1.6391,9.5133,-1.5359,1.6906,9.5369,0.096,-0.0594,0.009,0.0399,-0.0221,0.0015,75.0,18.53,-7.27,-36.45,267.88,-9.58,9.27,2.0,23.187,48.8439,2.353347,307.1,NaN,,45.01613,,0 / 19,1037,2022-01-10 18:03:51:647
-1.4928,1.6391,9.5133,-1.5359,1.6906,9.5369,0.096,-0.0594,0.009,0.0399,-0.0221,0.0015,75.0,18.53,-7.27,-36.45,267.88,-9.58,9.27,2.0,23.187,48.8439,2.353347,307.1,NaN,,45.01613,,0 / 19,1042,2022-01-10 18:03:51:652
-1.4928,1.6391,9.5133,-1.5359,1.6906,9.5369,0.096,-0.0594,0.009,0.0399,-0.0221,0.0015,75.0,18.53,-7.27,-36.45,267.88,-9.58,9.27,2.0,23.187,48.8439,2.353347,307.1,NaN,,45.01613,,0 / 19,1047,2022-01-10 18:03:51:657
-1.4928,1.6391,9.5133,-1.5359,1.6906,9.5369,0.096,-0.0594,0.009,0.0399,-0.0221,0.0015,75.0,18.53,-7.27,-36.45,267.88,-9.58,9.27,2.0,23.187,48.8439,2.353347,307.1,NaN,,45.01613,,0 / 19,1053,2022-01-10 18:03:51:663
-1.4928,1.6391,9.5133,-1.5359,1.6906,9.5369,0.096,-0.0594,0.009,0.0399,-0.0221,0.0015,75.0,18.53,-7.27,-36.45,267.88,-9.58,9.27,2.0,23.187,48.8439,2.353347,307.1,NaN,,45.01613,,0 / 19,1057,2022-01-10 18:03:51:667
-1.4928,1.6391,9.5133,-1.5359,1.6906,9.5369,0.096,-0.0594,0.009,0.0399,-0.0221,0.0015,75.0,18.53,-7.27,-36.45,267.88,-9.58,9.27,2.0,23.187,48.8439,2.353347,307.1,NaN,,45.01613,,0 / 19,1063,2022-01-10 18:03:51:673
-1.4928,1.6391,9.5133,-1.5359,1.6906,9.5369,0.096,-0.0594,0.009,0.0399,-0.0221,0.0015,75.0,18.53,-7.27,-36.45,267.88,-9.58,9.27,2.0,23.187,48.8439,2.353347,307.1,NaN,,45.01613,,0 / 19,1067,2022-01-10 18:03:51:677
-1.4928,1.6391,9.5133,-1.5359,1.6906,9.5369,0.096,-0.0594,0.009,0.0399,-0.0221,0.0015,75.0,18.53,-7.27,-36.45,267.88,-9.58,9.27,2.0,23.187,48.8439,2.353347,307.1,NaN,,45.01613,,0 / 19,1072,2022-01-10 18:03:51:682
-1.4928,1.6391,9.5133,-1.5359,1.6906,9.5369,0.096,-0.0594,0.009,0.0399,-0.0221,0.0015,75.0,18.53,-7.27,-36.45,267.88,-9.58,9.27,2.0,23.187,48.8439,2.353347,307.1,NaN,,45.01613,,0 / 19,1077,2022-01-10 18:03:51:687
-1.4928,1.6391,9.5133,-1.5359,1.6906,9.5369,0.096,-0.0594,0.009,0.0399,-0.0221,0.0015,75.0,18.53,-7.27,-36.45,267.88,-9.58,9.27,2.0,23.187,48.8439,2.353347,307.1,NaN,,45.01613,,0 / 19,1082,2022-01-10 18:03:51:692
-1.4928,1.6391,9.5133,-1.5359,1.6906,9.5369,0.096,-0.0594,0.009,0.0399,-0.0221,0.0015,75.0,18.53,-7.27,-36.45,267.88,-9.58,9.27,2.0,23.187,48.8439,2.353347,307.1,NaN,,45.01613,,0 / 19,1087,2022-01-10 18:03:51:697
-1.4928,1.6391,9.5133,-1.5359,1.6906,9.5369,0.096,-0.0594,0.009,0.0399,-0.0221,0.0015,75.0,18.53,-7.27,-36.45,267.88,-9.58,9.27,2.0,23.187,48.8439,2.353347,307.1,NaN,,45.01613,,0 / 19,1092,2022-01-10 18:03:51:702
-1.4928,1.6391,9.5133,-1.5359,1.6906,9.5369,0.096,-0.0594,0.009,0.0399,-0.0221,0.0015,75.0,18.53,-7.27,-36.45,267.88,-9.58,9.27,2.0,23.187,48.8439,2.353347,307.1,NaN,,45.01613,,0 / 19,1097,2022-01-10 18:03:51:707
-1.4928,1.6391,9.5133,-1.5359,1.6906,9.5369,0.096,-0.0594,0.009,0.0399,-0.0221,0.0015,75.0,18.53,-7.27,-36.45,267.88,-9.58,9.27,2.0,23.187,48.8439,2.353347,307.1,NaN,,45.01613,,0 / 19,1102,2022-01-10 18:03:51:712
-1.4928,1.6391,9.5133,-1.5359,1.6906,9.5369,0.096,-0.0594,0.009,0.0399,-0.0221,0.0015,75.0,18.53,-7.27,-36.45,267.88,-9.58,9.27,2.0,23.187,48.8439,2.353347,307.1,NaN,,45.01613,,0 / 19,1107,2022-01-10 18:03:51:717
-1.4928,1.6391,9.5133,-1.5359,1.6906,9.5369,0.096,-0.0594,0.009,0.0399,-0.0221,0.0015,75.0,18.23,-7.42,-36.53,269.5,-9.93,9.15,2.0,23.187,48.8439,2.353347,307.1,NaN,,45.01613,,0 / 19,1112,2022-01-10 18:03:51:722
-1.4928,1.6391,9.5133,-1.5359,1.6906,9.5369,0.096,-0.0594,0.009,0.0399,-0.0221,0.0015,75.0,18.23,-7.42,-36.53,269.5,-9.93,9.15,2.0,23.187,48.8439,2.353347,307.1,NaN,,45.01613,,0 / 19,1117,2022-01-10 18:03:51:727
-1.4928,1.6391,9.5133,-1.5359,1.6906,9.5369,0.096,-0.0594,0.009,0.0399,-0.0221,0.0015,75.0,18.23,-7.42,-36.53,269.5,-9.93,9.15,2.0,23.187,48.8439,2.353347,307.1,NaN,,45.01613,,0 / 19,1122,2022-01-10 18:03:51:732
-1.4928,1.6391,9.5133,-1.5359,1.6906,9.5369,0.096,-0.0594,0.009,0.0399,-0.0221,0.0015,75.0,18.23,-7.42,-36.53,269.5,-9.93,9.15,2.0,23.187,48.8439,2.353347,307.1,NaN,,45.01613,,0 / 19,1127,2022-01-10 18:03:51:737
-1.6711,1.8619,9.609,-1.5359,1.6906,9.5369,0.096,-0.0594,0.009,0.0399,-0.0221,0.0015,70.0,18.23,-7.42,-36.53,269.5,-9.93,9.15,2.0,23.187,48.8439,2.353347,307.1,NaN,,45.01613,,0 / 19,1132,2022-01-10 18:03:51:742
-1.6711,1.8619,9.609,-1.5359,1.6906,9.5369,0.096,-0.0594,0.009,0.0399,-0.0221,0.0015,70.0,18.23,-7.42,-36.53,269.5,-9.93,9.15,2.0,23.187,48.8439,2.353347,307.1,NaN,,45.01613,,0 / 19,1137,2022-01-10 18:03:51:747
-1.6711,1.8619,9.609,-1.5359,1.6906,9.5369,0.096,-0.0594,0.009,0.0399,-0.0221,0.0015,70.0,18.23,-7.42,-36.53,269.5,-9.93,9.15,2.0,23.187,48.8439,2.353347,307.1,NaN,,45.01613,,0 / 19,1142,2022-01-10 18:03:51:752
-1.6711,1.8619,9.609,-1.5359,1.6906,9.5369,0.096,-0.0594,0.009,0.0399,-0.0221,0.0015,70.0,18.23,-7.42,-36.53,269.5,-9.93,9.15,2.0,23.187,48.8439,2.353347,307.1,NaN,,45.01613,,0 / 19,1147,2022-01-10 18:03:51:757
-1.6711,1.8619,9.609,-1.5359,1.6906,9.5369,0.096,-0.0594,0.009,0.0399,-0.0221,0.0015,70.0,18.23,-7.42,-36.53,269.5,-9.93,9.15,2.0,23.187,48.8439,2.353347,307.1,NaN,,45.01613,,0 / 19,1152,2022-01-10 18:03:51:762
-1.6711,1.8619,9.609,-1.5359,1.6906,9.5369,0.096,-0.0594,0.009,0.0399,-0.0221,0.0015,70.0,18.23,-7.42,-36.53,269.5,-9.93,9.15,2.0,23.187,48.8439,2.353347,307.1,NaN,,45.01613,,0 / 19,1157,2022-01-10 18:03:51:767
-1.6711,1.8619,9.609,-1.5359,1.6906,9.5369,0.096,-0.0594,0.009,0.0399,-0.0221,0.0015,70.0,18.23,-7.42,-36.53,269.5,-9.93,9.15,2.0,23.187,48.8439,2.353347,307.1,NaN,,45.01613,,0 / 19,1162,2022-01-10 18:03:51:772
-1.6711,1.8619,9.609,-1.5359,1.6906,9.5369,0.096,-0.0594,0.009,0.0399,-0.0221,0.0015,70.0,18.23,-7.42,-36.53,269.5,-9.93,9.15,2.0,23.187,48.8439,2.353347,307.1,NaN,,45.01613,,0 / 19,1167,2022-01-10 18:03:51:777
-1.6711,1.8619,9.609,-1.3414,1.7494,9.5557,-0.2983,-0.0015,-0.0431,0.1,-0.3786,0.0666,70.0,18.23,-7.42,-36.53,269.5,-9.93,9.15,2.0,23.187,48.8439,2.353347,307.1,NaN,,45.01613,,0 / 19,1173,2022-01-10 18:03:51:783
-1.6711,1.8619,9.609,-1.3414,1.7494,9.5557,-0.2983,-0.0015,-0.0431,0.1,-0.3786,0.0666,70.0,18.23,-7.42,-36.53,269.5,-9.93,9.15,2.0,23.187,48.8439,2.353347,307.1,NaN,,45.01613,,0 / 19,1177,2022-01-10 18:03:51:787
-1.6711,1.8619,9.609,-1.3414,1.7494,9.5557,-0.2983,-0.0015,-0.0431,0.1,-0.3786,0.0666,70.0,18.23,-7.42,-36.53,269.5,-9.93,9.15,2.0,23.187,48.8439,2.353347,307.1,NaN,,45.01613,,0 / 19,1182,2022-01-10 18:03:51:792
-1.6711,1.8619,9.609,-1.3414,1.7494,9.5557,-0.2983,-0.0015,-0.0431,0.1,-0.3786,0.0666,70.0,18.23,-7.42,-36.53,269.5,-9.93,9.15,2.0,23.187,48.8439,2.353347,307.1,NaN,,45.01613,,0 / 19,1187,2022-01-10 18:03:51:797
-1.6711,1.8619,9.609,-1.3414,1.7494,9.5557,-0.2983,-0.0015,-0.0431,0.1,-0.3786,0.0666,70.0,18.23,-7.42,-36.53,269.5,-9.93,9.15,2.0,23.187,48.8439,2.353347,307.1,NaN,,45.01613,,0 / 19,1192,2022-01-10 18:03:51:802
-1.6711,1.8619,9.609,-1.3414,1.7494,9.5557,-0.2983,-0.0015,-0.0431,0.1,-0.3786,0.0666,70.0,18.23,-7.42,-36.53,269.5,-9.93,9.15,2.0,23.187,48.8439,2.353347,307.1,NaN,,45.01613,,0 / 19,1197,2022-01-10 18:03:51:807
-1.6711,1.8619,9.609,-1.3414,1.7494,9.5557,-0.2983,-0.0015,-0.0431,0.1,-0.3786,0.0666,70.0,18.23,-7.42,-36.53,269.5,-9.93,9.15,2.0,23.187,48.8439,2.353347,307.1,NaN,,45.01613,,0 / 19,1202,2022-01-10 18:03:51:812
-1.6711,1.8619,9.609,-1.3414,1.7494,9.5557,-0.2983,-0.0015,-0.0431,0.1,-0.3786,0.0666,70.0,18.23,-7.42,-36.53,269.5,-9.93,9.15,2.0,23.187,48.8439,2.353347,307.1,NaN,,45.01613,,0 / 19,1208,2022-01-10 18:03:51:818
-1.6711,1.8619,9.609,-1.3414,1.7494,9.5557,-0.2983,-0.0015,-0.0431,0.1,-0.3786,0.0666,70.0,18.23,-7.42,-36.53,269.5,-9.93,9.15,2.0,23.187,48.8439,2.353347,307.1,NaN,,45.01613,,0 / 19,1212,2022-01-10 18:03:51:822
-1.6711,1.8619,9.609,-1.3414,1.7494,9.5557,-0.2983,-0.0015,-0.0431,0.1,-0.3786,0.0666,70.0,18.23,-7.42,-36.53,269.5,-9.93,9.15,2.0,23.187,48.8439,2.353347,307.1,NaN,,45.01613,,0 / 19,1217,2022-01-10 18:03:51:827
-0.7394,2.1697,9.0724,-1.3414,1.7494,9.5557,-0.2983,-0.0015,-0.0431,0.1,-0.3786,0.0666,70.0,18.23,-7.42,-36.53,269.5,-9.93,9.15,2.0,23.187,48.8439,2.353347,307.1,NaN,,45.01613,,0 / 19,1224,2022-01-10 18:03:51:834
-0.7394,2.1697,9.0724,-1.3414,1.7494,9.5557,-0.2983,-0.0015,-0.0431,0.1,-0.3786,0.0666,70.0,18.23,-7.42,-36.53,269.5,-9.93,9.15,2.0,23.681,48.8439,2.353347,307.1,NaN,,45.01613,,0 / 19,1227,2022-01-10 18:03:51:837
-0.7394,2.1697,9.0724,-1.3414,1.7494,9.5557,-0.2983,-0.0015,-0.0431,0.1,-0.3786,0.0666,70.0,18.23,-7.42,-36.53,269.5,-9.93,9.15,2.0,23.681,48.8439,2.353347,307.1,NaN,,45.01613,,0 / 19,1232,2022-01-10 18:03:51:842
-0.7394,2.1697,9.0724,-1.3414,1.7494,9.5557,-0.2983,-0.0015,-0.0431,0.1,-0.3786,0.0666,70.0,18.23,-7.42,-36.53,269.5,-9.93,9.15,2.0,23.681,48.8439,2.353347,307.1,NaN,,45.01613,,0 / 19,1238,2022-01-10 18:03:51:848
-0.7394,2.1697,9.0724,-1.3414,1.7494,9.5557,-0.2983,-0.0015,-0.0431,0.1,-0.3786,0.0666,70.0,18.23,-7.42,-36.53,269.5,-9.93,9.15,2.0,23.681,48.8439,2.353347,307.1,NaN,,45.01613,,0 / 19,1242,2022-01-10 18:03:51:852
-0.7394,2.1697,9.0724,-1.3414,1.7494,9.5557,-0.2983,-0.0015,-0.0431,0.1,-0.3786,0.0666,70.0,18.23,-7.42,-36.53,269.5,-9.93,9.15,2.0,23.681,48.8439,2.353347,307.1,NaN,,45.01613,,0 / 19,1246,2022-01-10 18:03:51:856
-0.7394,2.1697,9.0724,-1.3414,1.7494,9.5557,-0.2983,-0.0015,-0.0431,0.1,-0.3786,0.0666,70.0,18.23,-7.42,-36.53,269.5,-9.93,9.15,2.0,23.681,48.8439,2.353347,307.1,NaN,,45.01613,,0 / 19,1252,2022-01-10 18:03:51:862
-0.7394,2.1697,9.0724,-1.3414,1.7494,9.5557,-0.2983,-0.0015,-0.0431,0.1,-0.3786,0.0666,70.0,18.23,-7.42,-36.53,269.5,-9.93,9.15,2.0,23.681,48.8439,2.353347,307.1,NaN,,45.01613,,0 / 19,1257,2022-01-10 18:03:51:867
-0.7394,2.1697,9.0724,-1.3414,1.7494,9.5557,-0.2983,-0.0015,-0.0431,0.1,-0.3786,0.0666,70.0,18.23,-7.42,-36.53,269.5,-9.93,9.15,2.0,23.681,48.8439,2.353347,307.1,NaN,,45.01613,,0 / 19,1262,2022-01-10 18:03:51:872
-0.7394,2.1697,9.0724,-1.3414,1.7494,9.5557,-0.2983,-0.0015,-0.0431,0.1,-0.3786,0.0666,70.0,18.23,-7.42,-36.53,269.5,-9.93,9.15,2.0,23.681,48.8439,2.353347,307.1,NaN,,45.01613,,0 / 19,1268,2022-01-10 18:03:51:878
-0.7394,2.1697,9.0724,-1.3414,1.7494,9.5557,-0.2983,-0.0015,-0.0431,0.1,-0.3786,0.0666,70.0,18.23,-7.42,-36.53,269.5,-9.93,9.15,2.0,23.681,48.8439,2.353347,307.1,NaN,,45.01613,,0 / 19,1272,2022-01-10 18:03:51:882
-0.7394,2.1697,9.0724,-1.3414,1.7494,9.5557,-0.2983,-0.0015,-0.0431,0.1,-0.3786,0.0666,70.0,18.23,-7.42,-36.53,269.5,-9.93,9.15,2.0,23.681,48.8439,2.353347,307.1,NaN,,45.01613,,0 / 19,1277,2022-01-10 18:03:51:887
-0.7394,2.1697,9.0724,-0.949,2.2711,9.4927,-0.0715,-0.3104,0.111,0.1,-0.3786,0.0666,70.0,18.23,-7.42,-36.53,269.5,-9.93,9.15,2.0,23.681,48.8439,2.353347,307.1,NaN,,45.01613,,0 / 19,1282,2022-01-10 18:03:51:892
-0.7394,2.1697,9.0724,-0.949,2.2711,9.4927,-0.0715,-0.3104,0.111,0.1,-0.3786,0.0666,70.0,18.23,-7.42,-36.53,269.5,-9.93,9.15,2.0,23.681,48.8439,2.353347,307.1,NaN,,45.01613,,0 / 19,1287,2022-01-10 18:03:51:897
-0.7394,2.1697,9.0724,-0.949,2.2711,9.4927,-0.0715,-0.3104,0.111,0.1,-0.3786,0.0666,70.0,18.23,-7.42,-36.53,269.5,-9.93,9.15,2.0,23.681,48.8439,2.353347,307.1,NaN,,45.01613,,0 / 19,1292,2022-01-10 18:03:51:902
-0.7394,2.1697,9.0724,-0.949,2.2711,9.4927,-0.0715,-0.3104,0.111,0.1,-0.3786,0.0666,70.0,18.23,-7.42,-36.53,269.5,-9.93,9.15,2.0,23.681,48.8439,2.353347,307.1,NaN,,45.01613,,0 / 19,1297,2022-01-10 18:03:51:907
-0.7394,2.1697,9.0724,-0.949,2.2711,9.4927,-0.0715,-0.3104,0.111,0.0826,-0.2541,0.1609,70.0,18.23,-7.42,-36.53,269.5,-9.93,9.15,2.0,23.681,48.8439,2.353347,307.1,NaN,,45.01613,,0 / 19,1302,2022-01-10 18:03:51:912
-0.7394,2.1697,9.0724,-0.949,2.2711,9.4927,-0.0715,-0.3104,0.111,0.0826,-0.2541,0.1609,70.0,18.23,-7.42,-36.53,269.5,-9.93,9.15,2.0,23.681,48.8439,2.353347,307.1,NaN,,45.01613,,0 / 19,1308,2022-01-10 18:03:51:918
-0.7394,2.1697,9.0724,-0.949,2.2711,9.4927,-0.0715,-0.3104,0.111,0.0826,-0.2541,0.1609,70.0,17.48,-8.17,-36.82,274.9,-13.39,5.71,2.0,23.681,48.8439,2.353347,307.1,NaN,,45.01613,,0 / 19,1312,2022-01-10 18:03:51:922
-0.7394,2.1697,9.0724,-0.949,2.2711,9.4927,-0.0715,-0.3104,0.111,0.0826,-0.2541,0.1609,70.0,17.48,-8.17,-36.82,274.9,-13.39,5.71,2.0,23.681,48.8439,2.353347,307.1,NaN,,45.01613,,0 / 19,1317,2022-01-10 18:03:51:927
-0.7394,2.1697,9.0724,-0.949,2.2711,9.4927,-0.0715,-0.3104,0.111,0.0826,-0.2541,0.1609,70.0,17.48,-8.17,-36.82,274.9,-13.39,5.71,2.0,23.681,48.8439,2.353347,307.1,NaN,,45.01613,,0 / 19,1322,2022-01-10 18:03:51:932
-0.7394,2.1697,9.0724,-0.949,2.2711,9.4927,-0.0715,-0.3104,0.111,0.0826,-0.2541,0.1609,70.0,17.48,-8.17,-36.82,274.9,-13.39,5.71,2.0,23.681,48.8439,2.353347,307.1,NaN,,45.01613,,0 / 19,1327,2022-01-10 18:03:51:937
-0.9502,2.4368,9.9275,-0.949,2.2711,9.4927,-0.0715,-0.3104,0.111,0.0826,-0.2541,0.1609,70.0,17.48,-8.17,-36.82,274.9,-13.39,5.71,2.0,23.681,48.8439,2.353347,307.1,NaN,,45.01613,,0 / 19,1332,2022-01-10 18:03:51:942
-0.9502,2.4368,9.9275,-0.949,2.2711,9.4927,-0.0715,-0.3104,0.111,0.0826,-0.2541,0.1609,70.0,17.48,-8.17,-36.82,274.9,-13.39,5.71,2.0,23.681,48.8439,2.353347,307.1,NaN,,45.01613,,0 / 19,1337,2022-01-10 18:03:51:947
-0.9502,2.4368,9.9275,-0.949,2.2711,9.4927,-0.0715,-0.3104,0.111,0.0826,-0.2541,0.1609,70.0,17.48,-8.17,-36.82,274.9,-13.39,5.71,2.0,23.681,48.8439,2.353347,307.1,NaN,,45.01613,,0 / 19,1342,2022-01-10 18:03:51:952
-0.9502,2.4368,9.9275,-0.949,2.2711,9.4927,-0.0715,-0.3104,0.111,0.0826,-0.2541,0.1609,70.0,17.48,-8.17,-36.82,274.9,-13.39,5.71,2.0,23.681,48.8439,2.353347,307.1,NaN,,45.01613,,0 / 19,1347,2022-01-10 18:03:51:957
-0.9502,2.4368,9.9275,-0.949,2.2711,9.4927,-0.0715,-0.3104,0.111,0.0826,-0.2541,0.1609,70.0,17.48,-8.17,-36.82,274.9,-13.39,5.71,2.0,23.681,48.8439,2.353347,307.1,NaN,,45.01613,,0 / 19,1352,2022-01-10 18:03:51:962
-0.9502,2.4368,9.9275,-0.949,2.2711,9.4927,-0.0715,-0.3104,0.111,0.0826,-0.2541,0.1609,70.0,17.48,-8.17,-36.82,274.9,-13.39,5.71,2.0,23.681,48.8439,2.353347,307.1,NaN,,45.01613,,0 / 19,1358,2022-01-10 18:03:51:968
-0.9502,2.4368,9.9275,-0.949,2.2711,9.4927,-0.0715,-0.3104,0.111,0.0826,-0.2541,0.1609,70.0,17.48,-8.17,-36.82,274.9,-13.39,5.71,2.0,23.681,48.8439,2.353347,307.1,NaN,,45.01613,,0 / 19,1362,2022-01-10 18:03:51:972
-0.9502,2.4368,9.9275,-0.949,2.2711,9.4927,-0.0715,-0.3104,0.111,0.0826,-0.2541,0.1609,70.0,17.48,-8.17,-36.82,274.9,-13.39,5.71,2.0,23.681,48.8439,2.353347,307.1,NaN,,45.01613,,0 / 19,1367,2022-01-10 18:03:51:977
-0.9502,2.4368,9.9275,-0.949,2.2711,9.4927,-0.0715,-0.3104,0.111,0.0826,-0.2541,0.1609,70.0,17.48,-8.17,-36.82,274.9,-13.39,5.71,2.0,23.681,48.8439,2.353347,307.1,NaN,,45.01613,,0 / 19,1372,2022-01-10 18:03:51:982
-0.9502,2.4368,9.9275,-0.949,2.2711,9.4927,-0.0715,-0.3104,0.111,0.0826,-0.2541,0.1609,70.0,17.48,-8.17,-36.82,274.9,-13.39,5.71,2.0,23.681,48.8439,2.353347,307.1,NaN,,45.01613,,0 / 19,1377,2022-01-10 18:03:51:987
-0.9502,2.4368,9.9275,-0.949,2.2711,9.4927,-0.0715,-0.3104,0.111,0.0826,-0.2541,0.1609,70.0,17.48,-8.17,-36.82,274.9,-13.39,5.71,2.0,23.681,48.8439,2.353347,307.1,NaN,,45.01613,,0 / 19,1382,2022-01-10 18:03:51:992
-0.9502,2.4368,9.9275,-0.949,2.2711,9.4927,-0.0715,-0.3104,0.111,0.0826,-0.2541,0.1609,70.0,17.48,-8.17,-36.82,274.9,-13.39,5.71,2.0,23.681,48.8439,2.353347,307.1,NaN,,45.01613,,0 / 19,1387,2022-01-10 18:03:51:997
-0.9502,2.4368,9.9275,-0.949,2.2711,9.4927,-0.0715,-0.3104,0.111,0.0826,-0.2541,0.1609,70.0,17.48,-8.17,-36.82,274.9,-13.39,5.71,2.0,23.681,48.8439,2.353347,307.1,NaN,,45.01613,,0 / 19,1392,2022-01-10 18:03:52:002
-0.9502,2.4368,9.9275,-0.949,2.2711,9.4927,-0.0715,-0.3104,0.111,0.0826,-0.2541,0.1609,70.0,17.48,-8.17,-36.82,274.9,-13.39,5.71,2.0,23.681,48.8439,2.353347,307.1,NaN,,45.01613,,0 / 19,1397,2022-01-10 18:03:52:007
-0.9502,2.4368,9.9275,-0.949,2.2711,9.4927,-0.0715,-0.3104,0.111,0.0826,-0.2541,0.1609,70.0,17.48,-8.17,-36.82,274.9,-13.39,5.71,2.0,23.681,48.8439,2.353347,307.1,NaN,,45.01613,,0 / 19,1402,2022-01-10 18:03:52:012
-0.9502,2.4368,9.9275,-0.949,2.2711,9.4927,-0.0715,-0.3104,0.111,0.0826,-0.2541,0.1609,70.0,17.48,-8.17,-36.82,274.9,-13.39,5.71,2.0,23.681,48.8439,2.353347,307.1,NaN,,45.01613,,0 / 19,1407,2022-01-10 18:03:52:017
-0.9502,2.4368,9.9275,-0.7086,2.2575,9.5169,-0.0715,-0.3104,0.111,0.0826,-0.2541,0.1609,70.0,17.48,-8.17,-36.82,274.9,-13.39,5.71,2.0,23.681,48.8439,2.353347,307.1,NaN,,45.01613,,0 / 19,1412,2022-01-10 18:03:52:022
-0.9502,2.4368,9.9275,-0.7086,2.2575,9.5169,-0.2104,0.2256,0.3687,0.0826,-0.2541,0.1609,70.0,17.48,-8.17,-36.82,274.9,-13.39,5.71,2.0,23.681,48.8439,2.353347,307.1,NaN,,45.01613,,0 / 19,1417,2022-01-10 18:03:52:027
-0.9502,2.4368,9.9275,-0.7086,2.2575,9.5169,-0.2104,0.2256,0.3687,0.0826,-0.2541,0.1609,70.0,17.48,-8.17,-36.82,274.9,-13.39,5.71,2.0,23.681,48.8439,2.353347,307.1,NaN,,45.01613,,0 / 19,1422,2022-01-10 18:03:52:032
-0.792,2.7111,10.0606,-0.7086,2.2575,9.5169,-0.2104,0.2256,0.3687,0.71,0.0413,0.2849,57.0,17.48,-8.17,-36.82,274.9,-13.39,5.71,2.0,23.681,48.8439,2.353347,307.1,NaN,,45.01613,,0 / 19,1431,2022-01-10 18:03:52:041
-0.792,2.7111,10.0606,-0.7086,2.2575,9.5169,-0.2104,0.2256,0.3687,0.71,0.0413,0.2849,57.0,17.48,-8.17,-36.82,274.9,-13.39,5.71,2.0,23.681,48.8439,2.353347,307.1,NaN,,45.01613,,0 / 19,1433,2022-01-10 18:03:52:043
-0.792,2.7111,10.0606,-0.7086,2.2575,9.5169,-0.2104,0.2256,0.3687,0.71,0.0413,0.2849,57.0,17.48,-8.17,-36.82,274.9,-13.39,5.71,2.0,23.681,48.8439,2.353347,307.1,NaN,,45.01613,,0 / 19,1438,2022-01-10 18:03:52:048
-0.792,2.7111,10.0606,-0.7086,2.2575,9.5169,-0.2104,0.2256,0.3687,0.71,0.0413,0.2849,57.0,17.48,-8.17,-36.82,274.9,-13.39,5.71,2.0,23.681,48.8439,2.353347,307.1,NaN,,45.01613,,0 / 19,1442,2022-01-10 18:03:52:052
-0.792,2.7111,10.0606,-0.7086,2.2575,9.5169,-0.2104,0.2256,0.3687,0.71,0.0413,0.2849,57.0,17.48,-8.17,-36.82,274.9,-13.39,5.71,2.0,23.681,48.8439,2.353347,307.1,NaN,,45.01613,,0 / 19,1446,2022-01-10 18:03:52:056
-0.792,2.7111,10.0606,-0.7086,2.2575,9.5169,-0.2104,0.2256,0.3687,0.71,0.0413,0.2849,57.0,17.48,-8.17,-36.82,274.9,-13.39,5.71,2.0,23.681,48.8439,2.353347,307.1,NaN,,45.01613,,0 / 19,1452,2022-01-10 18:03:52:062
-0.792,2.7111,10.0606,-0.7086,2.2575,9.5169,-0.2104,0.2256,0.3687,0.71,0.0413,0.2849,57.0,17.48,-8.17,-36.82,274.9,-13.39,5.71,2.0,23.681,48.8439,2.353347,307.1,NaN,,45.01613,,0 / 19,1457,2022-01-10 18:03:52:067
-0.792,2.7111,10.0606,-0.7086,2.2575,9.5169,-0.2104,0.2256,0.3687,0.71,0.0413,0.2849,57.0,17.48,-8.17,-36.82,274.9,-13.39,5.71,2.0,23.681,48.8439,2.353347,307.1,NaN,,45.01613,,0 / 19,1462,2022-01-10 18:03:52:072
-0.792,2.7111,10.0606,-0.7086,2.2575,9.5169,-0.2104,0.2256,0.3687,0.71,0.0413,0.2849,57.0,17.48,-8.17,-36.82,274.9,-13.39,5.71,2.0,23.681,48.8439,2.353347,307.1,NaN,,45.01613,,0 / 19,1466,2022-01-10 18:03:52:076
-0.792,2.7111,10.0606,-0.7086,2.2575,9.5169,-0.2104,0.2256,0.3687,0.71,0.0413,0.2849,57.0,17.48,-8.17,-36.82,274.9,-13.39,5.71,2.0,23.681,48.8439,2.353347,307.1,NaN,,45.01613,,0 / 19,1472,2022-01-10 18:03:52:082
-0.792,2.7111,10.0606,-0.7086,2.2575,9.5169,-0.2104,0.2256,0.3687,0.71,0.0413,0.2849,57.0,17.48,-8.17,-36.82,274.9,-13.39,5.71,2.0,23.681,48.8439,2.353347,307.1,NaN,,45.01613,,0 / 19,1477,2022-01-10 18:03:52:087
-0.792,2.7111,10.0606,-0.7086,2.2575,9.5169,-0.2104,0.2256,0.3687,0.71,0.0413,0.2849,57.0,17.48,-8.17,-36.82,274.9,-13.39,5.71,2.0,23.681,48.8439,2.353347,307.1,NaN,,45.01613,,0 / 19,1482,2022-01-10 18:03:52:092
-0.792,2.7111,10.0606,-0.7086,2.2575,9.5169,-0.2104,0.2256,0.3687,0.71,0.0413,0.2849,57.0,17.48,-8.17,-36.82,274.9,-13.39,5.71,2.0,23.681,48.8439,2.353347,307.1,NaN,,45.01613,,0 / 19,1487,2022-01-10 18:03:52:097
-0.792,2.7111,10.0606,-0.7086,2.2575,9.5169,-0.2104,0.2256,0.3687,0.71,0.0413,0.2849,57.0,17.48,-8.17,-36.82,274.9,-13.39,5.71,2.0,23.681,48.8439,2.353347,307.1,NaN,,45.01613,,0 / 19,1492,2022-01-10 18:03:52:102
-0.792,2.7111,10.0606,-0.7086,2.2575,9.5169,-0.2104,0.2256,0.3687,0.71,0.0413,0.2849,57.0,17.48,-8.17,-36.82,274.9,-13.39,5.71,2.0,23.681,48.8439,2.353347,307.1,NaN,,45.01613,,0 / 19,1497,2022-01-10 18:03:52:107
-0.792,2.7111,10.0606,-0.7086,2.2575,9.5169,-0.2104,0.2256,0.3687,0.71,0.0413,0.2849,57.0,17.48,-8.17,-36.82,274.9,-13.39,5.71,2.0,23.681,48.8439,2.353347,307.1,NaN,,45.01613,,0 / 19,1502,2022-01-10 18:03:52:112
-0.792,2.7111,10.0606,-0.7086,2.2575,9.5169,-0.2104,0.2256,0.3687,0.71,0.0413,0.2849,57.0,17.48,-8.17,-36.82,274.9,-13.39,5.71,2.0,23.681,48.8439,2.353347,307.1,NaN,,45.01613,,0 / 19,1507,2022-01-10 18:03:52:117
-0.792,2.7111,10.0606,-0.7086,2.2575,9.5169,-0.2104,0.2256,0.3687,0.71,0.0413,0.2849,57.0,16.05,-9.9,-36.68,265.83,-13.31,4.26,2.0,23.681,48.8439,2.353347,307.1,NaN,,45.01613,,0 / 19,1512,2022-01-10 18:03:52:122
-0.792,2.7111,10.0606,-0.7086,2.2575,9.5169,-0.2104,0.2256,0.3687,0.71,0.0413,0.2849,57.0,16.05,-9.9,-36.68,265.83,-13.31,4.26,2.0,23.681,48.8439,2.353347,307.1,NaN,,45.01613,,0 / 19,1517,2022-01-10 18:03:52:127
-0.792,2.7111,10.0606,-0.7086,2.2575,9.5169,-0.2104,0.2256,0.3687,0.71,0.0413,0.2849,57.0,16.05,-9.9,-36.68,265.83,-13.31,4.26,2.0,23.681,48.8439,2.353347,307.1,NaN,,45.01613,,0 / 19,1523,2022-01-10 18:03:52:133
-0.2542,4.0406,10.2236,-0.3362,3.1358,9.2857,-0.3798,-0.1226,0.3078,0.71,0.0413,0.2849,57.0,16.05,-9.9,-36.68,265.83,-13.31,4.26,2.0,23.681,48.8439,2.353347,307.1,NaN,,45.01613,,0 / 19,1527,2022-01-10 18:03:52:137
-0.2542,4.0406,10.2236,-0.3362,3.1358,9.2857,-0.3798,-0.1226,0.3078,0.71,0.0413,0.2849,57.0,16.05,-9.9,-36.68,265.83,-13.31,4.26,2.0,23.681,48.8439,2.353347,307.1,NaN,,45.01613,,0 / 19,1534,2022-01-10 18:03:52:144
-0.2542,4.0406,10.2236,-0.3362,3.1358,9.2857,-0.3798,-0.1226,0.3078,0.71,0.0413,0.2849,57.0,16.05,-9.9,-36.68,265.83,-13.31,4.26,2.0,23.681,48.8439,2.353347,307.1,NaN,,45.01613,,0 / 19,1538,2022-01-10 18:03:52:148
-0.2542,4.0406,10.2236,-0.3362,3.1358,9.2857,-0.3798,-0.1226,0.3078,0.71,0.0413,0.2849,57.0,16.05,-9.9,-36.68,265.83,-13.31,4.26,2.0,24.191,48.8439,2.353347,307.1,NaN,,45.01613,,0 / 19,1543,2022-01-10 18:03:52:153
-0.2542,4.0406,10.2236,-0.3362,3.1358,9.2857,-0.3798,-0.1226,0.3078,0.71,0.0413,0.2849,57.0,16.05,-9.9,-36.68,265.83,-13.31,4.26,2.0,24.191,48.8439,2.353347,307.1,NaN,,45.01613,,0 / 19,1547,2022-01-10 18:03:52:157
-0.2542,4.0406,10.2236,-0.3362,3.1358,9.2857,-0.3798,-0.1226,0.3078,0.71,0.0413,0.2849,57.0,16.05,-9.9,-36.68,265.83,-13.31,4.26,2.0,24.191,48.8439,2.353347,307.1,NaN,,45.01613,,0 / 19,1552,2022-01-10 18:03:52:162
-0.2542,4.0406,10.2236,-0.3362,3.1358,9.2857,-0.3798,-0.1226,0.3078,0.71,0.0413,0.2849,57.0,16.05,-9.9,-36.68,265.83,-13.31,4.26,2.0,24.191,48.8439,2.353347,307.1,NaN,,45.01613,,0 / 19,1557,2022-01-10 18:03:52:167
-0.2542,4.0406,10.2236,-0.3362,3.1358,9.2857,-0.3798,-0.1226,0.3078,0.71,0.0413,0.2849,57.0,16.05,-9.9,-36.68,265.83,-13.31,4.26,2.0,24.191,48.8439,2.353347,307.1,NaN,,45.01613,,0 / 19,1563,2022-01-10 18:03:52:173
-0.2542,4.0406,10.2236,-0.3362,3.1358,9.2857,-0.3798,-0.1226,0.3078,0.71,0.0413,0.2849,57.0,16.05,-9.9,-36.68,265.83,-13.31,4.26,2.0,24.191,48.8439,2.353347,307.1,NaN,,45.01613,,0 / 19,1567,2022-01-10 18:03:52:177
-0.2542,4.0406,10.2236,-0.3362,3.1358,9.2857,-0.3798,-0.1226,0.3078,0.71,0.0413,0.2849,57.0,16.05,-9.9,-36.68,265.83,-13.31,4.26,2.0,24.191,48.8439,2.353347,307.1,NaN,,45.01613,,0 / 19,1572,2022-01-10 18:03:52:182
-0.2542,4.0406,10.2236,-0.3362,3.1358,9.2857,-0.3798,-0.1226,0.3078,0.71,0.0413,0.2849,57.0,16.05,-9.9,-36.68,265.83,-13.31,4.26,2.0,24.191,48.8439,2.353347,307.1,NaN,,45.01613,,0 / 19,1577,2022-01-10 18:03:52:187
-0.2542,4.0406,10.2236,-0.3362,3.1358,9.2857,-0.3798,-0.1226,0.3078,0.71,0.0413,0.2849,57.0,16.05,-9.9,-36.68,265.83,-13.31,4.26,2.0,24.191,48.8439,2.353347,307.1,NaN,,45.01613,,0 / 19,1582,2022-01-10 18:03:52:192
-0.2542,4.0406,10.2236,-0.3362,3.1358,9.2857,-0.3798,-0.1226,0.3078,0.7619,-0.7092,0.3997,57.0,16.05,-9.9,-36.68,265.83,-13.31,4.26,2.0,24.191,48.8439,2.353347,307.1,NaN,,45.01613,,0 / 19,1588,2022-01-10 18:03:52:198
-0.2542,4.0406,10.2236,-0.3362,3.1358,9.2857,-0.3798,-0.1226,0.3078,0.7619,-0.7092,0.3997,57.0,16.05,-9.9,-36.68,265.83,-13.31,4.26,2.0,24.191,48.8439,2.353347,307.1,NaN,,45.01613,,0 / 19,1592,2022-01-10 18:03:52:202
-0.2542,4.0406,10.2236,-0.3362,3.1358,9.2857,-0.3798,-0.1226,0.3078,0.7619,-0.7092,0.3997,57.0,16.05,-9.9,-36.68,265.83,-13.31,4.26,2.0,24.191,48.8439,2.353347,307.1,NaN,,45.01613,,0 / 19,1597,2022-01-10 18:03:52:207
-0.2542,4.0406,10.2236,-0.3362,3.1358,9.2857,-0.3798,-0.1226,0.3078,0.7619,-0.7092,0.3997,35.0,16.05,-9.9,-36.68,265.83,-13.31,4.26,2.0,24.191,48.8439,2.353347,307.1,NaN,,45.01613,,0 / 19,1602,2022-01-10 18:03:52:212
-0.2542,4.0406,10.2236,-0.3362,3.1358,9.2857,-0.3798,-0.1226,0.3078,0.7619,-0.7092,0.3997,35.0,16.05,-9.9,-36.68,265.83,-13.31,4.26,2.0,24.191,48.8439,2.353347,307.1,NaN,,45.01613,,0 / 19,1607,2022-01-10 18:03:52:217
-0.2542,4.0406,10.2236,-0.3362,3.1358,9.2857,-0.3798,-0.1226,0.3078,0.7619,-0.7092,0.3997,35.0,16.05,-9.9,-36.68,265.83,-13.31,4.26,2.0,24.191,48.8439,2.353347,307.1,NaN,,45.01613,,0 / 19,1612,2022-01-10 18:03:52:222
-0.2542,4.0406,10.2236,-0.3362,3.1358,9.2857,-0.3798,-0.1226,0.3078,0.7619,-0.7092,0.3997,35.0,16.05,-9.9,-36.68,265.83,-13.31,4.26,2.0,24.191,48.8439,2.353347,307.1,NaN,,45.01613,,0 / 19,1617,2022-01-10 18:03:52:227
-0.2542,4.0406,10.2236,-0.3362,3.1358,9.2857,-0.3798,-0.1226,0.3078,0.7619,-0.7092,0.3997,35.0,16.05,-9.9,-36.68,265.83,-13.31,4.26,2.0,24.191,48.8439,2.353347,307.1,NaN,,45.01613,,0 / 19,1622,2022-01-10 18:03:52:232
-0.2542,4.0406,10.2236,-0.3362,3.1358,9.2857,-0.3798,-0.1226,0.3078,0.7619,-0.7092,0.3997,35.0,16.05,-9.9,-36.68,265.83,-13.31,4.26,2.0,24.191,48.8439,2.353347,307.1,NaN,,45.01613,,0 / 19,1628,2022-01-10 18:03:52:238
-0.2542,4.0406,10.2236,-0.3362,3.1358,9.2857,-0.3798,-0.1226,0.3078,0.7619,-0.7092,0.3997,35.0,16.05,-9.9,-36.68,265.83,-13.31,4.26,2.0,24.191,48.8439,2.353347,307.1,NaN,,45.01613,,0 / 19,1632,2022-01-10 18:03:52:242
1.346,4.2132,7.5694,-0.3362,3.1358,9.2857,-0.3798,-0.1226,0.3078,0.7619,-0.7092,0.3997,35.0,16.05,-9.9,-36.68,265.83,-13.31,4.26,2.0,24.191,48.8439,2.353347,307.1,NaN,,45.01613,,0 / 19,1641,2022-01-10 18:03:52:251
1.346,4.2132,7.5694,-0.3362,3.1358,9.2857,-0.3798,-0.1226,0.3078,0.7619,-0.7092,0.3997,35.0,16.05,-9.9,-36.68,265.83,-13.31,4.26,2.0,24.191,48.8439,2.353347,307.1,NaN,,45.01613,,0 / 19,1642,2022-01-10 18:03:52:252
1.346,4.2132,7.5694,-0.3362,3.1358,9.2857,-0.3798,-0.1226,0.3078,0.7619,-0.7092,0.3997,35.0,16.05,-9.9,-36.68,265.83,-13.31,4.26,2.0,24.191,48.8439,2.353347,307.1,NaN,,45.01613,,0 / 19,1647,2022-01-10 18:03:52:257
1.346,4.2132,7.5694,-0.3362,3.1358,9.2857,-0.3798,-0.1226,0.3078,0.7619,-0.7092,0.3997,35.0,16.05,-9.9,-36.68,265.83,-13.31,4.26,2.0,24.191,48.8439,2.353347,307.1,NaN,,45.01613,,0 / 19,1652,2022-01-10 18:03:52:262
1.346,4.2132,7.5694,0.7824,3.4162,9.159,-0.669,0.5081,-0.5783,0.7619,-0.7092,0.3997,35.0,16.05,-9.9,-36.68,265.83,-13.31,4.26,2.0,24.191,48.8439,2.353347,307.1,NaN,,45.01613,,0 / 19,1657,2022-01-10 18:03:52:267
1.346,4.2132,7.5694,0.7824,3.4162,9.159,-0.669,0.5081,-0.5783,0.7619,-0.7092,0.3997,35.0,16.05,-9.9,-36.68,265.83,-13.31,4.26,2.0,24.191,48.8439,2.353347,307.1,NaN,,45.01613,,0 / 19,1662,2022-01-10 18:03:52:272
1.346,4.2132,7.5694,0.7824,3.4162,9.159,-0.669,0.5081,-0.5783,0.7619,-0.7092,0.3997,35.0,16.05,-9.9,-36.68,265.83,-13.31,4.26,2.0,24.191,48.8439,2.353347,307.1,NaN,,45.01613,,0 / 19,1667,2022-01-10 18:03:52:277
1.346,4.2132,7.5694,0.7824,3.4162,9.159,-0.669,0.5081,-0.5783,0.7619,-0.7092,0.3997,35.0,16.05,-9.9,-36.68,265.83,-13.31,4.26,2.0,24.191,48.8439,2.353347,307.1,NaN,,45.01613,,0 / 19,1673,2022-01-10 18:03:52:283
1.346,4.2132,7.5694,0.7824,3.4162,9.159,-0.669,0.5081,-0.5783,0.7619,-0.7092,0.3997,35.0,16.05,-9.9,-36.68,265.83,-13.31,4.26,2.0,24.191,48.8439,2.353347,307.1,NaN,,45.01613,,0 / 19,1677,2022-01-10 18:03:52:287
1.346,4.2132,7.5694,0.7824,3.4162,9.159,-0.669,0.5081,-0.5783,0.7619,-0.7092,0.3997,35.0,16.05,-9.9,-36.68,265.83,-13.31,4.26,2.0,24.191,48.8439,2.353347,307.1,NaN,,45.01613,,0 / 19,1682,2022-01-10 18:03:52:292
1.346,4.2132,7.5694,0.7824,3.4162,9.159,-0.669,0.5081,-0.5783,0.7619,-0.7092,0.3997,35.0,16.05,-9.9,-36.68,265.83,-13.31,4.26,2.0,24.191,48.8439,2.353347,307.1,NaN,,45.01613,,0 / 19,1687,2022-01-10 18:03:52:297
1.346,4.2132,7.5694,0.7824,3.4162,9.159,-0.669,0.5081,-0.5783,0.7619,-0.7092,0.3997,35.0,16.05,-9.9,-36.68,265.83,-13.31,4.26,2.0,24.191,48.8439,2.353347,307.1,NaN,,45.01613,,0 / 19,1692,2022-01-10 18:03:52:302
1.346,4.2132,7.5694,0.7824,3.4162,9.159,-0.669,0.5081,-0.5783,0.7619,-0.7092,0.3997,35.0,16.05,-9.9,-36.68,265.83,-13.31,4.26,2.0,24.191,48.8439,2.353347,307.1,NaN,,45.01613,,0 / 19,1697,2022-01-10 18:03:52:307
1.346,4.2132,7.5694,0.7824,3.4162,9.159,-0.669,0.5081,-0.5783,0.7619,-0.7092,0.3997,35.0,16.05,-9.9,-36.68,265.83,-13.31,4.26,2.0,24.191,48.8439,2.353347,307.1,NaN,,45.01613,,0 / 19,1702,2022-01-10 18:03:52:312
1.346,4.2132,7.5694,0.7824,3.4162,9.159,-0.669,0.5081,-0.5783,0.7619,-0.7092,0.3997,35.0,16.05,-9.9,-36.68,265.83,-13.31,4.26,2.0,24.191,48.8439,2.353347,307.1,NaN,,45.01613,,0 / 19,1707,2022-01-10 18:03:52:317
1.346,4.2132,7.5694,0.7824,3.4162,9.159,-0.669,0.5081,-0.5783,0.7619,-0.7092,0.3997,35.0,13.05,-13.05,-37.28,270.96,-20.39,-4.88,2.0,24.191,48.8439,2.353347,307.1,NaN,,45.01613,,0 / 19,1712,2022-01-10 18:03:52:322
1.346,4.2132,7.5694,0.7824,3.4162,9.159,-0.669,0.5081,-0.5783,-0.2549,0.3619,0.1075,35.0,13.05,-13.05,-37.28,270.96,-20.39,-4.88,2.0,24.191,48.8439,2.353347,307.1,NaN,,45.01613,,0 / 19,1717,2022-01-10 18:03:52:327
1.346,4.2132,7.5694,0.7824,3.4162,9.159,-0.669,0.5081,-0.5783,-0.2549,0.3619,0.1075,35.0,13.05,-13.05,-37.28,270.96,-20.39,-4.88,2.0,24.191,48.8439,2.353347,307.1,NaN,,45.01613,,0 / 19,1723,2022-01-10 18:03:52:333
1.346,4.2132,7.5694,0.7824,3.4162,9.159,-0.669,0.5081,-0.5783,-0.2549,0.3619,0.1075,35.0,13.05,-13.05,-37.28,270.96,-20.39,-4.88,2.0,24.191,48.8439,2.353347,307.1,NaN,,45.01613,,0 / 19,1727,2022-01-10 18:03:52:337
1.4501,2.141,9.3838,0.7824,3.4162,9.159,-0.669,0.5081,-0.5783,-0.2549,0.3619,0.1075,35.0,13.05,-13.05,-37.28,270.96,-20.39,-4.88,2.0,24.191,48.8439,2.353347,307.1,NaN,,45.01613,,0 / 19,1733,2022-01-10 18:03:52:343
1.4501,2.141,9.3838,0.7824,3.4162,9.159,-0.669,0.5081,-0.5783,-0.2549,0.3619,0.1075,35.0,13.05,-13.05,-37.28,270.96,-20.39,-4.88,2.0,24.191,48.8439,2.353347,307.1,NaN,,45.01613,,0 / 19,1737,2022-01-10 18:03:52:347
1.4501,2.141,9.3838,0.7824,3.4162,9.159,-0.669,0.5081,-0.5783,-0.2549,0.3619,0.1075,35.0,13.05,-13.05,-37.28,270.96,-20.39,-4.88,2.0,24.191,48.8439,2.353347,307.1,NaN,,45.01613,,0 / 19,1743,2022-01-10 18:03:52:353
1.4501,2.141,9.3838,0.7824,3.4162,9.159,-0.669,0.5081,-0.5783,-0.2549,0.3619,0.1075,35.0,13.05,-13.05,-37.28,270.96,-20.39,-4.88,2.0,24.191,48.8439,2.353347,307.1,NaN,,45.01613,,0 / 19,1747,2022-01-10 18:03:52:357
1.4501,2.141,9.3838,0.7824,3.4162,9.159,-0.669,0.5081,-0.5783,-0.2549,0.3619,0.1075,35.0,13.05,-13.05,-37.28,270.96,-20.39,-4.88,2.0,24.191,48.8439,2.353347,307.1,NaN,,45.01613,,0 / 19,1754,2022-01-10 18:03:52:364
1.4501,2.141,9.3838,0.7824,3.4162,9.159,-0.669,0.5081,-0.5783,-0.2549,0.3619,0.1075,35.0,13.05,-13.05,-37.28,270.96,-20.39,-4.88,2.0,24.191,48.8439,2.353347,307.1,NaN,,45.01613,,0 / 19,1757,2022-01-10 18:03:52:367
1.4501,2.141,9.3838,0.7824,3.4162,9.159,-0.669,0.5081,-0.5783,-0.2549,0.3619,0.1075,35.0,13.05,-13.05,-37.28,270.96,-20.39,-4.88,2.0,24.191,48.8439,2.353347,307.1,NaN,,45.01613,,0 / 19,1762,2022-01-10 18:03:52:372
1.4501,2.141,9.3838,0.2803,3.5043,9.1549,-0.0897,-0.3551,1.8464,-0.2549,0.3619,0.1075,35.0,13.05,-13.05,-37.28,270.96,-20.39,-4.88,2.0,24.191,48.8439,2.353347,307.1,NaN,,45.01613,,0 / 19,1767,2022-01-10 18:03:52:377
1.4501,2.141,9.3838,0.2803,3.5043,9.1549,-0.0897,-0.3551,1.8464,-0.2549,0.3619,0.1075,35.0,13.05,-13.05,-37.28,270.96,-20.39,-4.88,2.0,24.191,48.8439,2.353347,307.1,NaN,,45.01613,,0 / 19,1772,2022-01-10 18:03:52:382
1.4501,2.141,9.3838,0.2803,3.5043,9.1549,-0.0897,-0.3551,1.8464,-0.2549,0.3619,0.1075,35.0,13.05,-13.05,-37.28,270.96,-20.39,-4.88,2.0,24.191,48.8439,2.353347,307.1,NaN,,45.01613,,0 / 19,1778,2022-01-10 18:03:52:388
1.4501,2.141,9.3838,0.2803,3.5043,9.1549,-0.0897,-0.3551,1.8464,-0.2549,0.3619,0.1075,35.0,13.05,-13.05,-37.28,270.96,-20.39,-4.88,2.0,24.191,48.8439,2.353347,307.1,NaN,,45.01613,,0 / 19,1783,2022-01-10 18:03:52:393
1.4501,2.141,9.3838,0.2803,3.5043,9.1549,-0.0897,-0.3551,1.8464,-0.2549,0.3619,0.1075,38.0,13.05,-13.05,-37.28,270.96,-20.39,-4.88,2.0,24.191,48.8439,2.353347,307.1,NaN,,45.01613,,0 / 19,1788,2022-01-10 18:03:52:398
1.4501,2.141,9.3838,0.2803,3.5043,9.1549,-0.0897,-0.3551,1.8464,-0.2549,0.3619,0.1075,38.0,13.05,-13.05,-37.28,270.96,-20.39,-4.88,2.0,24.191,48.8439,2.353347,307.1,NaN,,45.01613,,0 / 19,1793,2022-01-10 18:03:52:403
1.4501,2.141,9.3838,0.2803,3.5043,9.1549,-0.0897,-0.3551,1.8464,-0.2549,0.3619,0.1075,38.0,13.05,-13.05,-37.28,270.96,-20.39,-4.88,2.0,24.191,48.8439,2.353347,307.1,NaN,,45.01613,,0 / 19,1797,2022-01-10 18:03:52:407
1.4501,2.141,9.3838,0.2803,3.5043,9.1549,-0.0897,-0.3551,1.8464,-0.2549,0.3619,0.1075,38.0,13.05,-13.05,-37.28,270.96,-20.39,-4.88,2.0,24.191,48.8439,2.353347,307.1,NaN,,45.01613,,0 / 19,1802,2022-01-10 18:03:52:412
1.4501,2.141,9.3838,0.2803,3.5043,9.1549,-0.0897,-0.3551,1.8464,-0.2549,0.3619,0.1075,38.0,13.05,-13.05,-37.28,270.96,-20.39,-4.88,2.0,24.191,48.8439,2.353347,307.1,NaN,,45.01613,,0 / 19,1807,2022-01-10 18:03:52:417
1.4501,2.141,9.3838,0.2803,3.5043,9.1549,-0.0897,-0.3551,1.8464,-0.2549,0.3619,0.1075,38.0,13.05,-13.05,-37.28,270.96,-20.39,-4.88,2.0,24.191,48.8439,2.353347,307.1,NaN,,45.01613,,0 / 19,1812,2022-01-10 18:03:52:422
1.4501,2.141,9.3838,0.2803,3.5043,9.1549,-0.0897,-0.3551,1.8464,-0.2549,0.3619,0.1075,38.0,13.05,-13.05,-37.28,270.96,-20.39,-4.88,2.0,24.191,48.8439,2.353347,307.1,NaN,,45.01613,,0 / 19,1818,2022-01-10 18:03:52:428
1.4501,2.141,9.3838,0.2803,3.5043,9.1549,-0.0897,-0.3551,1.8464,-0.2549,0.3619,0.1075,38.0,13.05,-13.05,-37.28,270.96,-20.39,-4.88,2.0,24.191,48.8439,2.353347,307.1,NaN,,45.01613,,0 / 19,1823,2022-01-10 18:03:52:433
1.4501,2.141,9.3838,0.2803,3.5043,9.1549,-0.0897,-0.3551,1.8464,-0.2549,0.3619,0.1075,38.0,13.05,-13.05,-37.28,270.96,-20.39,-4.88,2.0,24.191,48.8439,2.353347,307.1,NaN,,45.01613,,0 / 19,1828,2022-01-10 18:03:52:438
1.4501,2.141,9.3838,0.2803,3.5043,9.1549,-0.0897,-0.3551,1.8464,-0.2549,0.3619,0.1075,38.0,13.05,-13.05,-37.28,270.96,-20.39,-4.88,2.0,24.191,48.8439,2.353347,307.1,NaN,,45.01613,,0 / 19,1832,2022-01-10 18:03:52:442
1.4501,2.141,9.3838,0.2803,3.5043,9.1549,-0.0897,-0.3551,1.8464,-0.2549,0.3619,0.1075,38.0,13.05,-13.05,-37.28,270.96,-20.39,-4.88,2.0,24.191,48.8439,2.353347,307.1,NaN,,45.01613,,0 / 19,1837,2022-01-10 18:03:52:447
1.5616,3.7208,9.6858,0.2803,3.5043,9.1549,-0.0897,-0.3551,1.8464,1.3711,1.0736,0.0708,38.0,13.05,-13.05,-37.28,270.96,-20.39,-4.88,2.0,24.191,48.8439,2.353347,307.1,NaN,,45.01613,,0 / 19,1843,2022-01-10 18:03:52:453
1.5616,3.7208,9.6858,0.2803,3.5043,9.1549,-0.0897,-0.3551,1.8464,1.3711,1.0736,0.0708,38.0,13.05,-13.05,-37.28,270.96,-20.39,-4.88,2.0,24.191,48.8439,2.353347,307.1,NaN,,45.01613,,0 / 19,1848,2022-01-10 18:03:52:458
1.5616,3.7208,9.6858,0.2803,3.5043,9.1549,-0.0897,-0.3551,1.8464,1.3711,1.0736,0.0708,38.0,13.05,-13.05,-37.28,270.96,-20.39,-4.88,2.0,24.191,48.8439,2.353347,307.1,NaN,,45.01613,,0 / 19,1853,2022-01-10 18:03:52:463
1.5616,3.7208,9.6858,0.2803,3.5043,9.1549,-0.0897,-0.3551,1.8464,1.3711,1.0736,0.0708,38.0,13.05,-13.05,-37.28,270.96,-20.39,-4.88,2.0,24.191,48.8439,2.353347,307.1,NaN,,45.01613,,0 / 19,1857,2022-01-10 18:03:52:467
1.5616,3.7208,9.6858,0.2803,3.5043,9.1549,-0.0897,-0.3551,1.8464,1.3711,1.0736,0.0708,38.0,13.05,-13.05,-37.28,270.96,-20.39,-4.88,2.0,24.191,48.8439,2.353347,307.1,NaN,,45.01613,,0 / 19,1862,2022-01-10 18:03:52:472
1.5616,3.7208,9.6858,0.2803,3.5043,9.1549,-0.0897,-0.3551,1.8464,1.3711,1.0736,0.0708,38.0,13.05,-13.05,-37.28,270.96,-20.39,-4.88,2.0,29.217,48.8439,2.353347,307.1,NaN,,45.01613,,0 / 19,1867,2022-01-10 18:03:52:477
1.5616,3.7208,9.6858,0.2803,3.5043,9.1549,-0.0897,-0.3551,1.8464,1.3711,1.0736,0.0708,38.0,13.05,-13.05,-37.28,270.96,-20.39,-4.88,2.0,29.217,48.8439,2.353347,307.1,NaN,,45.01613,,0 / 19,1872,2022-01-10 18:03:52:482
1.5616,3.7208,9.6858,0.2803,3.5043,9.1549,-0.0897,-0.3551,1.8464,1.3711,1.0736,0.0708,38.0,13.05,-13.05,-37.28,270.96,-20.39,-4.88,2.0,29.217,48.8439,2.353347,307.1,NaN,,45.01613,,0 / 19,1877,2022-01-10 18:03:52:487
1.5616,3.7208,9.6858,0.2803,3.5043,9.1549,-0.0897,-0.3551,1.8464,1.3711,1.0736,0.0708,38.0,13.05,-13.05,-37.28,270.96,-20.39,-4.88,2.0,29.217,48.8439,2.353347,307.1,NaN,,45.01613,,0 / 19,1882,2022-01-10 18:03:52:492
1.5616,3.7208,9.6858,0.2803,3.5043,9.1549,-0.0897,-0.3551,1.8464,1.3711,1.0736,0.0708,38.0,13.05,-13.05,-37.28,270.96,-20.39,-4.88,2.0,29.217,48.8439,2.353347,307.1,NaN,,45.01613,,0 / 19,1887,2022-01-10 18:03:52:497
1.5616,3.7208,9.6858,0.2803,3.5043,9.1549,-0.0897,-0.3551,1.8464,1.3711,1.0736,0.0708,38.0,13.05,-13.05,-37.28,270.96,-20.39,-4.88,2.0,29.217,48.8439,2.353347,307.1,NaN,,45.01613,,0 / 19,1892,2022-01-10 18:03:52:502
1.5616,3.7208,9.6858,0.2803,3.5043,9.1549,-0.0897,-0.3551,1.8464,1.3711,1.0736,0.0708,38.0,13.05,-13.05,-37.28,270.96,-20.39,-4.88,2.0,29.217,48.8439,2.353347,307.1,NaN,,45.01613,,0 / 19,1897,2022-01-10 18:03:52:507
1.5616,3.7208,9.6858,-0.6393,4.9962,8.4142,1.8588,-1.4923,1.2696,1.3711,1.0736,0.0708,38.0,13.05,-13.05,-37.28,270.96,-20.39,-4.88,2.0,29.217,48.8439,2.353347,307.1,NaN,,45.01613,,0 / 19,1902,2022-01-10 18:03:52:512
1.5616,3.7208,9.6858,-0.6393,4.9962,8.4142,1.8588,-1.4923,1.2696,1.3711,1.0736,0.0708,38.0,13.05,-13.05,-37.28,270.96,-20.39,-4.88,2.0,29.217,48.8439,2.353347,307.1,NaN,,45.01613,,0 / 19,1907,2022-01-10 18:03:52:517
1.5616,3.7208,9.6858,-0.6393,4.9962,8.4142,1.8588,-1.4923,1.2696,1.3711,1.0736,0.0708,38.0,11.85,-16.43,-37.35,300.94,-30.63,4.35,2.0,29.217,48.8439,2.353347,307.1,NaN,,45.01613,,0 / 19,1912,2022-01-10 18:03:52:522
1.5616,3.7208,9.6858,-0.6393,4.9962,8.4142,1.8588,-1.4923,1.2696,1.3711,1.0736,0.0708,38.0,11.85,-16.43,-37.35,300.94,-30.63,4.35,2.0,29.217,48.8439,2.353347,307.1,NaN,,45.01613,,0 / 19,1917,2022-01-10 18:03:52:527
1.5616,3.7208,9.6858,-0.6393,4.9962,8.4142,1.8588,-1.4923,1.2696,1.3711,1.0736,0.0708,38.0,11.85,-16.43,-37.35,300.94,-30.63,4.35,2.0,29.217,48.8439,2.353347,307.1,NaN,,45.01613,,0 / 19,1922,2022-01-10 18:03:52:532
1.5616,3.7208,9.6858,-0.6393,4.9962,8.4142,1.8588,-1.4923,1.2696,1.3711,1.0736,0.0708,38.0,11.85,-16.43,-37.35,300.94,-30.63,4.35,2.0,29.217,48.8439,2.353347,307.1,NaN,,45.01613,,0 / 19,1927,2022-01-10 18:03:52:537
-0.4878,4.9403,9.6437,-0.6393,4.9962,8.4142,1.8588,-1.4923,1.2696,1.3711,1.0736,0.0708,38.0,11.85,-16.43,-37.35,300.94,-30.63,4.35,2.0,29.217,48.8439,2.353347,307.1,NaN,,45.01613,,0 / 19,1936,2022-01-10 18:03:52:546
-0.4878,4.9403,9.6437,-0.6393,4.9962,8.4142,1.8588,-1.4923,1.2696,1.3711,1.0736,0.0708,38.0,11.85,-16.43,-37.35,300.94,-30.63,4.35,2.0,29.217,48.8439,2.353347,307.1,NaN,,45.01613,,0 / 19,1938,2022-01-10 18:03:52:548
-0.4878,4.9403,9.6437,-0.6393,4.9962,8.4142,1.8588,-1.4923,1.2696,1.3711,1.0736,0.0708,38.0,11.85,-16.43,-37.35,300.94,-30.63,4.35,2.0,29.217,48.8439,2.353347,307.1,NaN,,45.01613,,0 / 19,1941,2022-01-10 18:03:52:551
-0.4878,4.9403,9.6437,-0.6393,4.9962,8.4142,1.8588,-1.4923,1.2696,1.3711,1.0736,0.0708,38.0,11.85,-16.43,-37.35,300.94,-30.63,4.35,2.0,29.217,48.8439,2.353347,307.1,NaN,,45.01613,,0 / 19,1947,2022-01-10 18:03:52:557
-0.4878,4.9403,9.6437,-0.6393,4.9962,8.4142,1.8588,-1.4923,1.2696,1.3711,1.0736,0.0708,38.0,11.85,-16.43,-37.35,300.94,-30.63,4.35,2.0,29.217,48.8439,2.353347,307.1,NaN,,45.01613,,0 / 19,1952,2022-01-10 18:03:52:562
-0.4878,4.9403,9.6437,-0.6393,4.9962,8.4142,1.8588,-1.4923,1.2696,1.3711,1.0736,0.0708,38.0,11.85,-16.43,-37.35,300.94,-30.63,4.35,2.0,29.217,48.8439,2.353347,307.1,NaN,,45.01613,,0 / 19,1957,2022-01-10 18:03:52:567
-0.4878,4.9403,9.6437,-0.6393,4.9962,8.4142,1.8588,-1.4923,1.2696,1.3711,1.0736,0.0708,38.0,11.85,-16.43,-37.35,300.94,-30.63,4.35,2.0,29.217,48.8439,2.353347,307.1,NaN,,45.01613,,0 / 19,1962,2022-01-10 18:03:52:572
-0.4878,4.9403,9.6437,-0.6393,4.9962,8.4142,1.8588,-1.4923,1.2696,1.3711,1.0736,0.0708,38.0,11.85,-16.43,-37.35,300.94,-30.63,4.35,2.0,29.217,48.8439,2.353347,307.1,NaN,,45.01613,,0 / 19,1967,2022-01-10 18:03:52:577
-0.4878,4.9403,9.6437,-0.6393,4.9962,8.4142,1.8588,-1.4923,1.2696,2.902,0.986,-0.3369,38.0,11.85,-16.43,-37.35,300.94,-30.63,4.35,2.0,29.217,48.8439,2.353347,307.1,NaN,,45.01613,,0 / 19,1972,2022-01-10 18:03:52:582
-0.4878,4.9403,9.6437,-0.6393,4.9962,8.4142,1.8588,-1.4923,1.2696,2.902,0.986,-0.3369,38.0,11.85,-16.43,-37.35,300.94,-30.63,4.35,2.0,29.217,48.8439,2.353347,307.1,NaN,,45.01613,,0 / 19,1977,2022-01-10 18:03:52:587
-0.4878,4.9403,9.6437,-0.6393,4.9962,8.4142,1.8588,-1.4923,1.2696,2.902,0.986,-0.3369,38.0,11.85,-16.43,-37.35,300.94,-30.63,4.35,2.0,29.217,48.8439,2.353347,307.1,NaN,,45.01613,,0 / 19,1982,2022-01-10 18:03:52:592
-0.4878,4.9403,9.6437,-0.6393,4.9962,8.4142,1.8588,-1.4923,1.2696,2.902,0.986,-0.3369,38.0,11.85,-16.43,-37.35,300.94,-30.63,4.35,2.0,29.217,48.8439,2.353347,307.1,NaN,,45.01613,,0 / 19,1987,2022-01-10 18:03:52:597
-0.4878,4.9403,9.6437,-0.6393,4.9962,8.4142,1.8588,-1.4923,1.2696,2.902,0.986,-0.3369,38.0,11.85,-16.43,-37.35,300.94,-30.63,4.35,2.0,29.217,48.8439,2.353347,307.1,NaN,,45.01613,,0 / 19,1992,2022-01-10 18:03:52:602
-0.4878,4.9403,9.6437,-0.6393,4.9962,8.4142,1.8588,-1.4923,1.2696,2.902,0.986,-0.3369,38.0,11.85,-16.43,-37.35,300.94,-30.63,4.35,2.0,29.217,48.8439,2.353347,307.1,NaN,,45.01613,,0 / 19,1997,2022-01-10 18:03:52:607
-0.4878,4.9403,9.6437,-0.6393,4.9962,8.4142,1.8588,-1.4923,1.2696,2.902,0.986,-0.3369,38.0,11.85,-16.43,-37.35,300.94,-30.63,4.35,2.0,29.217,48.8439,2.353347,307.1,NaN,,45.01613,,0 / 19,2002,2022-01-10 18:03:52:612
-0.4878,4.9403,9.6437,-0.6393,4.9962,8.4142,1.8588,-1.4923,1.2696,2.902,0.986,-0.3369,38.0,11.85,-16.43,-37.35,300.94,-30.63,4.35,2.0,29.217,48.8439,2.353347,307.1,NaN,,45.01613,,0 / 19,2008,2022-01-10 18:03:52:618
-0.4878,4.9403,9.6437,-1.4932,7.2854,6.3925,0.7905,-2.0113,2.6142,2.902,0.986,-0.3369,25.0,11.85,-16.43,-37.35,300.94,-30.63,4.35,2.0,29.217,48.8439,2.353347,307.1,NaN,,45.01613,,0 / 19,2012,2022-01-10 18:03:52:622
-0.4878,4.9403,9.6437,-1.4932,7.2854,6.3925,0.7905,-2.0113,2.6142,2.902,0.986,-0.3369,25.0,11.85,-16.43,-37.35,300.94,-30.63,4.35,2.0,29.217,48.8439,2.353347,307.1,NaN,,45.01613,,0 / 19,2018,2022-01-10 18:03:52:628
-0.4878,4.9403,9.6437,-1.4932,7.2854,6.3925,0.7905,-2.0113,2.6142,2.902,0.986,-0.3369,25.0,11.85,-16.43,-37.35,300.94,-30.63,4.35,2.0,29.217,48.8439,2.353347,307.1,NaN,,45.01613,,0 / 19,2025,2022-01-10 18:03:52:635
-0.4878,4.9403,9.6437,-1.4932,7.2854,6.3925,0.7905,-2.0113,2.6142,2.902,0.986,-0.3369,25.0,11.85,-16.43,-37.35,300.94,-30.63,4.35,2.0,29.217,48.8439,2.353347,307.1,NaN,,45.01613,,0 / 19,2028,2022-01-10 18:03:52:638
-0.4878,4.9403,9.6437,-1.4932,7.2854,6.3925,0.7905,-2.0113,2.6142,2.902,0.986,-0.3369,25.0,11.85,-16.43,-37.35,300.94,-30.63,4.35,2.0,29.217,48.8439,2.353347,307.1,NaN,,45.01613,,0 / 19,2032,2022-01-10 18:03:52:642
-2.3862,7.7237,4.745,-1.4932,7.2854,6.3925,0.7905,-2.0113,2.6142,2.902,0.986,-0.3369,25.0,11.85,-16.43,-37.35,300.94,-30.63,4.35,2.0,29.217,48.8439,2.353347,307.1,NaN,,45.01613,,0 / 19,2037,2022-01-10 18:03:52:647
-2.3862,7.7237,4.745,-1.4932,7.2854,6.3925,0.7905,-2.0113,2.6142,2.902,0.986,-0.3369,25.0,11.85,-16.43,-37.35,300.94,-30.63,4.35,2.0,29.217,48.8439,2.353347,307.1,NaN,,45.01613,,0 / 19,2042,2022-01-10 18:03:52:652
-2.3862,7.7237,4.745,-1.4932,7.2854,6.3925,0.7905,-2.0113,2.6142,2.902,0.986,-0.3369,25.0,11.85,-16.43,-37.35,300.94,-30.63,4.35,2.0,29.217,48.8439,2.353347,307.1,NaN,,45.01613,,0 / 19,2047,2022-01-10 18:03:52:657
-2.3862,7.7237,4.745,-1.4932,7.2854,6.3925,0.7905,-2.0113,2.6142,2.902,0.986,-0.3369,25.0,11.85,-16.43,-37.35,300.94,-30.63,4.35,2.0,29.217,48.8439,2.353347,307.1,NaN,,45.01613,,0 / 19,2051,2022-01-10 18:03:52:661
-2.3862,7.7237,4.745,-1.4932,7.2854,6.3925,0.7905,-2.0113,2.6142,2.902,0.986,-0.3369,25.0,11.85,-16.43,-37.35,300.94,-30.63,4.35,2.0,29.217,48.8439,2.353347,307.1,NaN,,45.01613,,0 / 19,2057,2022-01-10 18:03:52:667
-2.3862,7.7237,4.745,-1.4932,7.2854,6.3925,0.7905,-2.0113,2.6142,2.902,0.986,-0.3369,25.0,11.85,-16.43,-37.35,300.94,-30.63,4.35,2.0,29.217,48.8439,2.353347,307.1,NaN,,45.01613,,0 / 19,2062,2022-01-10 18:03:52:672
-2.3862,7.7237,4.745,-1.4932,7.2854,6.3925,0.7905,-2.0113,2.6142,2.902,0.986,-0.3369,25.0,11.85,-16.43,-37.35,300.94,-30.63,4.35,2.0,29.217,48.8439,2.353347,307.1,NaN,,45.01613,,0 / 19,2067,2022-01-10 18:03:52:677
-2.3862,7.7237,4.745,-1.4932,7.2854,6.3925,0.7905,-2.0113,2.6142,2.902,0.986,-0.3369,25.0,11.85,-16.43,-37.35,300.94,-30.63,4.35,2.0,29.217,48.8439,2.353347,307.1,NaN,,45.01613,,0 / 19,2072,2022-01-10 18:03:52:682
-2.3862,7.7237,4.745,-1.4932,7.2854,6.3925,0.7905,-2.0113,2.6142,2.902,0.986,-0.3369,25.0,11.85,-16.43,-37.35,300.94,-30.63,4.35,2.0,29.217,48.8439,2.353347,307.1,NaN,,45.01613,,0 / 19,2077,2022-01-10 18:03:52:687
-2.3862,7.7237,4.745,-1.4932,7.2854,6.3925,0.7905,-2.0113,2.6142,2.902,0.986,-0.3369,25.0,11.85,-16.43,-37.35,300.94,-30.63,4.35,2.0,29.217,48.8439,2.353347,307.1,NaN,,45.01613,,0 / 19,2083,2022-01-10 18:03:52:693
-2.3862,7.7237,4.745,-1.4932,7.2854,6.3925,0.7905,-2.0113,2.6142,2.902,0.986,-0.3369,25.0,11.85,-16.43,-37.35,300.94,-30.63,4.35,2.0,29.217,48.8439,2.353347,307.1,NaN,,45.01613,,0 / 19,2086,2022-01-10 18:03:52:696
-2.3862,7.7237,4.745,-1.4932,7.2854,6.3925,0.7905,-2.0113,2.6142,2.902,0.986,-0.3369,25.0,11.85,-16.43,-37.35,300.94,-30.63,4.35,2.0,29.217,48.8439,2.353347,307.1,NaN,,45.01613,,0 / 19,2092,2022-01-10 18:03:52:702
-2.3862,7.7237,4.745,-1.4932,7.2854,6.3925,0.7905,-2.0113,2.6142,2.902,0.986,-0.3369,25.0,11.85,-16.43,-37.35,300.94,-30.63,4.35,2.0,29.217,48.8439,2.353347,307.1,NaN,,45.01613,,0 / 19,2097,2022-01-10 18:03:52:707
-2.3862,7.7237,4.745,-1.4932,7.2854,6.3925,0.7905,-2.0113,2.6142,2.4309,1.2136,0.2807,25.0,11.85,-16.43,-37.35,300.94,-30.63,4.35,2.0,29.217,48.8439,2.353347,307.1,NaN,,45.01613,,0 / 19,2102,2022-01-10 18:03:52:712
-2.3862,7.7237,4.745,-1.4932,7.2854,6.3925,0.7905,-2.0113,2.6142,2.4309,1.2136,0.2807,25.0,11.85,-16.43,-37.35,300.94,-30.63,4.35,2.0,29.217,48.8439,2.353347,307.1,NaN,,45.01613,,0 / 19,2107,2022-01-10 18:03:52:717
-2.3862,7.7237,4.745,-1.4932,7.2854,6.3925,0.7905,-2.0113,2.6142,2.4309,1.2136,0.2807,25.0,13.58,-23.1,-32.4,327.87,-47.98,13.15,2.0,29.217,48.8439,2.353347,307.1,NaN,,45.01613,,0 / 19,2112,2022-01-10 18:03:52:722
-2.3862,7.7237,4.745,-1.4932,7.2854,6.3925,0.7905,-2.0113,2.6142,2.4309,1.2136,0.2807,25.0,13.58,-23.1,-32.4,327.87,-47.98,13.15,2.0,29.217,48.8439,2.353347,307.1,NaN,,45.01613,,0 / 19,2117,2022-01-10 18:03:52:727
-2.3862,7.7237,4.745,-1.4932,7.2854,6.3925,0.7905,-2.0113,2.6142,2.4309,1.2136,0.2807,25.0,13.58,-23.1,-32.4,327.87,-47.98,13.15,2.0,29.217,48.8439,2.353347,307.1,NaN,,45.01613,,0 / 19,2121,2022-01-10 18:03:52:731
-2.2726,8.4532,3.6287,-1.4932,7.2854,6.3925,0.7905,-2.0113,2.6142,2.4309,1.2136,0.2807,25.0,13.58,-23.1,-32.4,327.87,-47.98,13.15,2.0,29.217,48.8439,2.353347,307.1,NaN,,45.01613,,0 / 19,2127,2022-01-10 18:03:52:737
-2.2726,8.4532,3.6287,-1.4932,7.2854,6.3925,0.7905,-2.0113,2.6142,2.4309,1.2136,0.2807,25.0,13.58,-23.1,-32.4,327.87,-47.98,13.15,2.0,29.217,48.8439,2.353347,307.1,NaN,,45.01613,,0 / 19,2131,2022-01-10 18:03:52:741
-2.2726,8.4532,3.6287,-1.4932,7.2854,6.3925,0.7905,-2.0113,2.6142,2.4309,1.2136,0.2807,25.0,13.58,-23.1,-32.4,327.87,-47.98,13.15,2.0,29.217,48.8439,2.353347,307.1,NaN,,45.01613,,0 / 19,2137,2022-01-10 18:03:52:747
-2.2726,8.4532,3.6287,-1.4932,7.2854,6.3925,0.7905,-2.0113,2.6142,2.4309,1.2136,0.2807,25.0,13.58,-23.1,-32.4,327.87,-47.98,13.15,2.0,29.217,48.8439,2.353347,307.1,NaN,,45.01613,,0 / 19,2142,2022-01-10 18:03:52:752
-2.2726,8.4532,3.6287,-1.7621,8.7819,3.993,0.2977,-1.0406,1.4107,2.4309,1.2136,0.2807,25.0,13.58,-23.1,-32.4,327.87,-47.98,13.15,2.0,29.217,48.8439,2.353347,307.1,NaN,,45.01613,,0 / 19,2147,2022-01-10 18:03:52:757
-2.2726,8.4532,3.6287,-1.7621,8.7819,3.993,0.2977,-1.0406,1.4107,2.4309,1.2136,0.2807,25.0,13.58,-23.1,-32.4,327.87,-47.98,13.15,2.0,29.217,48.8439,2.353347,307.1,NaN,,45.01613,,0 / 19,2152,2022-01-10 18:03:52:762
-2.2726,8.4532,3.6287,-1.7621,8.7819,3.993,0.2977,-1.0406,1.4107,2.4309,1.2136,0.2807,25.0,13.58,-23.1,-32.4,327.87,-47.98,13.15,2.0,29.217,48.8439,2.353347,307.1,NaN,,45.01613,,0 / 19,2157,2022-01-10 18:03:52:767
-2.2726,8.4532,3.6287,-1.7621,8.7819,3.993,0.2977,-1.0406,1.4107,2.4309,1.2136,0.2807,25.0,13.58,-23.1,-32.4,327.87,-47.98,13.15,2.0,29.217,48.8439,2.353347,307.1,NaN,,45.01613,,0 / 19,2162,2022-01-10 18:03:52:772
-2.2726,8.4532,3.6287,-1.7621,8.7819,3.993,0.2977,-1.0406,1.4107,2.4309,1.2136,0.2807,25.0,13.58,-23.1,-32.4,327.87,-47.98,13.15,2.0,29.217,48.8439,2.353347,307.1,NaN,,45.01613,,0 / 19,2168,2022-01-10 18:03:52:778
-2.2726,8.4532,3.6287,-1.7621,8.7819,3.993,0.2977,-1.0406,1.4107,2.4309,1.2136,0.2807,25.0,13.58,-23.1,-32.4,327.87,-47.98,13.15,2.0,29.217,48.8439,2.353347,307.1,NaN,,45.01613,,0 / 19,2173,2022-01-10 18:03:52:783
-2.2726,8.4532,3.6287,-1.7621,8.7819,3.993,0.2977,-1.0406,1.4107,2.4309,1.2136,0.2807,25.0,13.58,-23.1,-32.4,327.87,-47.98,13.15,2.0,29.217,48.8439,2.353347,307.1,NaN,,45.01613,,0 / 19,2177,2022-01-10 18:03:52:787
-2.2726,8.4532,3.6287,-1.7621,8.7819,3.993,0.2977,-1.0406,1.4107,2.4309,1.2136,0.2807,25.0,13.58,-23.1,-32.4,327.87,-47.98,13.15,2.0,29.217,48.8439,2.353347,307.1,NaN,,45.01613,,0 / 19,2182,2022-01-10 18:03:52:792
-2.2726,8.4532,3.6287,-1.7621,8.7819,3.993,0.2977,-1.0406,1.4107,2.4309,1.2136,0.2807,25.0,13.58,-23.1,-32.4,327.87,-47.98,13.15,2.0,29.217,48.8439,2.353347,307.1,NaN,,45.01613,,0 / 19,2187,2022-01-10 18:03:52:797
-2.2726,8.4532,3.6287,-1.7621,8.7819,3.993,0.2977,-1.0406,1.4107,2.4309,1.2136,0.2807,25.0,13.58,-23.1,-32.4,327.87,-47.98,13.15,2.0,29.217,48.8439,2.353347,307.1,NaN,,45.01613,,0 / 19,2192,2022-01-10 18:03:52:802
-2.2726,8.4532,3.6287,-1.7621,8.7819,3.993,0.2977,-1.0406,1.4107,2.4309,1.2136,0.2807,25.0,13.58,-23.1,-32.4,327.87,-47.98,13.15,2.0,29.217,48.8439,2.353347,307.1,NaN,,45.01613,,0 / 19,2197,2022-01-10 18:03:52:807
-2.2726,8.4532,3.6287,-1.7621,8.7819,3.993,0.2977,-1.0406,1.4107,2.4309,1.2136,0.2807,25.0,13.58,-23.1,-32.4,327.87,-47.98,13.15,2.0,29.217,48.8439,2.353347,307.1,NaN,,45.01613,,0 / 19,2202,2022-01-10 18:03:52:812
-2.2726,8.4532,3.6287,-1.7621,8.7819,3.993,0.2977,-1.0406,1.4107,2.4309,1.2136,0.2807,25.0,13.58,-23.1,-32.4,327.87,-47.98,13.15,2.0,29.217,48.8439,2.353347,307.1,NaN,,45.01613,,0 / 19,2207,2022-01-10 18:03:52:817
-2.2726,8.4532,3.6287,-1.7621,8.7819,3.993,0.2977,-1.0406,1.4107,2.4309,1.2136,0.2807,25.0,13.58,-23.1,-32.4,327.87,-47.98,13.15,2.0,29.217,48.8439,2.353347,307.1,NaN,,45.01613,,0 / 19,2212,2022-01-10 18:03:52:822
-2.2726,8.4532,3.6287,-1.7621,8.7819,3.993,0.2977,-1.0406,1.4107,2.4309,1.2136,0.2807,25.0,13.58,-23.1,-32.4,327.87,-47.98,13.15,2.0,29.217,48.8439,2.353347,307.1,NaN,,45.01613,,0 / 19,2217,2022-01-10 18:03:52:827
-2.2726,8.4532,3.6287,-1.7621,8.7819,3.993,0.2977,-1.0406,1.4107,2.4309,1.2136,0.2807,25.0,13.58,-23.1,-32.4,327.87,-47.98,13.15,2.0,29.217,48.8439,2.353347,307.1,NaN,,45.01613,,0 / 19,2222,2022-01-10 18:03:52:832
-2.2726,8.4532,3.6287,-1.7621,8.7819,3.993,0.2977,-1.0406,1.4107,2.4309,1.2136,0.2807,25.0,13.58,-23.1,-32.4,327.87,-47.98,13.15,2.0,29.217,48.8439,2.353347,307.1,NaN,,45.01613,,0 / 19,2227,2022-01-10 18:03:52:837
-2.2726,8.4532,3.6287,-1.7621,8.7819,3.993,0.2977,-1.0406,1.4107,2.4309,1.2136,0.2807,25.0,13.58,-23.1,-32.4,327.87,-47.98,13.15,2.0,29.217,48.8439,2.353347,307.1,NaN,,45.01613,,0 / 19,2232,2022-01-10 18:03:52:842
-2.2726,8.4532,3.6287,-1.7621,8.7819,3.993,0.2977,-1.0406,1.4107,2.4309,1.2136,0.2807,25.0,13.58,-23.1,-32.4,327.87,-47.98,13.15,2.0,29.217,48.8439,2.353347,307.1,NaN,,45.01613,,0 / 19,2237,2022-01-10 18:03:52:847
-2.2726,8.4532,3.6287,-1.7621,8.7819,3.993,0.2977,-1.0406,1.4107,2.4309,1.2136,0.2807,25.0,13.58,-23.1,-32.4,327.87,-47.98,13.15,2.0,29.217,48.8439,2.353347,307.1,NaN,,45.01613,,0 / 19,2242,2022-01-10 18:03:52:852
-2.2726,8.4532,3.6287,-1.7621,8.7819,3.993,0.2977,-1.0406,1.4107,2.4309,1.2136,0.2807,25.0,13.58,-23.1,-32.4,327.87,-47.98,13.15,2.0,29.217,48.8439,2.353347,307.1,NaN,,45.01613,,0 / 19,2247,2022-01-10 18:03:52:857
-2.2726,8.4532,3.6287,-1.7621,8.7819,3.993,0.2977,-1.0406,1.4107,2.4309,1.2136,0.2807,25.0,13.58,-23.1,-32.4,327.87,-47.98,13.15,2.0,29.217,48.8439,2.353347,307.1,NaN,,45.01613,,0 / 19,2251,2022-01-10 18:03:52:861
-2.2726,8.4532,3.6287,-1.7621,8.7819,3.993,0.2977,-1.0406,1.4107,2.4309,1.2136,0.2807,25.0,13.58,-23.1,-32.4,327.87,-47.98,13.15,2.0,29.217,48.8439,2.353347,307.1,NaN,,45.01613,,0 / 19,2257,2022-01-10 18:03:52:867
-2.2726,8.4532,3.6287,-1.7621,8.7819,3.993,0.2977,-1.0406,1.4107,2.4309,1.2136,0.2807,25.0,13.58,-23.1,-32.4,327.87,-47.98,13.15,2.0,29.217,48.8439,2.353347,307.1,NaN,,45.01613,,0 / 19,2263,2022-01-10 18:03:52:873
-2.2726,8.4532,3.6287,-1.7621,8.7819,3.993,0.2977,-1.0406,1.4107,2.4309,1.2136,0.2807,25.0,13.58,-23.1,-32.4,327.87,-47.98,13.15,2.0,29.217,48.8439,2.353347,307.1,NaN,,45.01613,,0 / 19,2267,2022-01-10 18:03:52:877
-2.2726,8.4532,3.6287,-1.7621,8.7819,3.993,0.2977,-1.0406,1.4107,2.4309,1.2136,0.2807,25.0,13.58,-23.1,-32.4,327.87,-47.98,13.15,2.0,29.217,48.8439,2.353347,307.1,NaN,,45.01613,,0 / 19,2272,2022-01-10 18:03:52:882
-2.2726,8.4532,3.6287,-1.7621,8.7819,3.993,0.2977,-1.0406,1.4107,2.4309,1.2136,0.2807,25.0,13.58,-23.1,-32.4,327.87,-47.98,13.15,2.0,29.217,48.8439,2.353347,307.1,NaN,,45.01613,,0 / 19,2277,2022-01-10 18:03:52:887
-2.2726,8.4532,3.6287,-1.7621,8.7819,3.993,0.2977,-1.0406,1.4107,2.4309,1.2136,0.2807,25.0,13.58,-23.1,-32.4,327.87,-47.98,13.15,2.0,29.217,48.8439,2.353347,307.1,NaN,,45.01613,,0 / 19,2282,2022-01-10 18:03:52:892
-2.2726,8.4532,3.6287,-1.7621,8.7819,3.993,0.2977,-1.0406,1.4107,2.4309,1.2136,0.2807,25.0,13.58,-23.1,-32.4,327.87,-47.98,13.15,2.0,29.217,48.8439,2.353347,307.1,NaN,,45.01613,,0 / 19,2287,2022-01-10 18:03:52:897
-1.7551,9.2653,3.1893,-1.758,9.2902,2.6024,-0.2884,-0.8042,1.2939,2.3957,0.8913,0.3493,15.0,16.5,-27.75,-24.67,359.73,-71.32,34.04,2.0,26.148,48.8439,2.353347,307.1,NaN,,45.01613,,0 / 19,2292,2022-01-10 18:03:52:902
-1.7551,9.2653,3.1893,-1.758,9.2902,2.6024,-0.2884,-0.8042,1.2939,2.3957,0.8913,0.3493,15.0,16.5,-27.75,-24.67,359.73,-71.32,34.04,2.0,26.148,48.8439,2.353347,307.1,NaN,,45.01613,,0 / 19,2297,2022-01-10 18:03:52:907
-1.7551,9.2653,3.1893,-1.758,9.2902,2.6024,-0.2884,-0.8042,1.2939,2.3957,0.8913,0.3493,15.0,16.5,-27.75,-24.67,359.73,-71.32,34.04,2.0,26.148,48.8439,2.353347,307.1,NaN,,45.01613,,0 / 19,2302,2022-01-10 18:03:52:912
-1.7551,9.2653,3.1893,-1.758,9.2902,2.6024,-0.2884,-0.8042,1.2939,2.3957,0.8913,0.3493,15.0,16.5,-27.75,-24.67,359.73,-71.32,34.04,2.0,26.148,48.8439,2.353347,307.1,NaN,,45.01613,,0 / 19,2307,2022-01-10 18:03:52:917
-1.7551,9.2653,3.1893,-1.758,9.2902,2.6024,-0.2884,-0.8042,1.2939,2.3957,0.8913,0.3493,15.0,16.5,-27.75,-24.67,359.73,-71.32,34.04,2.0,26.148,48.8439,2.353347,307.1,NaN,,45.01613,,0 / 19,2312,2022-01-10 18:03:52:922
-1.7551,9.2653,3.1893,-1.758,9.2902,2.6024,-0.2884,-0.8042,1.2939,2.3957,0.8913,0.3493,15.0,16.5,-27.75,-24.67,359.73,-71.32,34.04,2.0,26.148,48.8439,2.353347,307.1,NaN,,45.01613,,0 / 19,2317,2022-01-10 18:03:52:927
-1.7551,9.2653,3.1893,-1.758,9.2902,2.6024,-0.2884,-0.8042,1.2939,2.3957,0.8913,0.3493,15.0,16.5,-27.75,-24.67,359.73,-71.32,34.04,2.0,26.148,48.8439,2.353347,307.1,NaN,,45.01613,,0 / 19,2322,2022-01-10 18:03:52:932
-1.7551,9.2653,3.1893,-1.758,9.2902,2.6024,-0.2884,-0.8042,1.2939,2.3957,0.8913,0.3493,15.0,16.5,-27.75,-24.67,359.73,-71.32,34.04,2.0,26.148,48.8439,2.353347,307.1,NaN,,45.01613,,0 / 19,2327,2022-01-10 18:03:52:937
-1.7551,9.2653,3.1893,-1.758,9.2902,2.6024,-0.2884,-0.8042,1.2939,2.3957,0.8913,0.3493,15.0,16.5,-27.75,-24.67,359.73,-71.32,34.04,2.0,26.148,48.8439,2.353347,307.1,NaN,,45.01613,,0 / 19,2332,2022-01-10 18:03:52:942
-1.7551,9.2653,3.1893,-1.758,9.2902,2.6024,-0.2884,-0.8042,1.2939,2.3957,0.8913,0.3493,15.0,16.5,-27.75,-24.67,359.73,-71.32,34.04,2.0,26.148,48.8439,2.353347,307.1,NaN,,45.01613,,0 / 19,2337,2022-01-10 18:03:52:947
-1.7551,9.2653,3.1893,-1.758,9.2902,2.6024,-0.2884,-0.8042,1.2939,2.3957,0.8913,0.3493,15.0,16.5,-27.75,-24.67,359.73,-71.32,34.04,2.0,26.148,48.8439,2.353347,307.1,NaN,,45.01613,,0 / 19,2342,2022-01-10 18:03:52:952
-1.7551,9.2653,3.1893,-1.758,9.2902,2.6024,-0.2884,-0.8042,1.2939,2.3957,0.8913,0.3493,15.0,16.5,-27.75,-24.67,359.73,-71.32,34.04,2.0,26.148,48.8439,2.353347,307.1,NaN,,45.01613,,0 / 19,2347,2022-01-10 18:03:52:957
-1.7551,9.2653,3.1893,-1.758,9.2902,2.6024,-0.2884,-0.8042,1.2939,2.3957,0.8913,0.3493,15.0,16.5,-27.75,-24.67,359.73,-71.32,34.04,2.0,26.148,48.8439,2.353347,307.1,NaN,,45.01613,,0 / 19,2352,2022-01-10 18:03:52:962
-1.7551,9.2653,3.1893,-1.758,9.2902,2.6024,-0.2884,-0.8042,1.2939,2.3957,0.8913,0.3493,15.0,16.5,-27.75,-24.67,359.73,-71.32,34.04,2.0,26.148,48.8439,2.353347,307.1,NaN,,45.01613,,0 / 19,2357,2022-01-10 18:03:52:967
-1.7551,9.2653,3.1893,-1.758,9.2902,2.6024,-0.2884,-0.8042,1.2939,2.3957,0.8913,0.3493,15.0,16.5,-27.75,-24.67,359.73,-71.32,34.04,2.0,26.148,48.8439,2.353347,307.1,NaN,,45.01613,,0 / 19,2362,2022-01-10 18:03:52:972
-1.7551,9.2653,3.1893,-1.758,9.2902,2.6024,-0.2884,-0.8042,1.2939,2.3957,0.8913,0.3493,15.0,16.5,-27.75,-24.67,359.73,-71.32,34.04,2.0,26.148,48.8439,2.353347,307.1,NaN,,45.01613,,0 / 19,2367,2022-01-10 18:03:52:977
-1.7551,9.2653,3.1893,-1.758,9.2902,2.6024,-0.2884,-0.8042,1.2939,2.3957,0.8913,0.3493,15.0,16.5,-27.75,-24.67,359.73,-71.32,34.04,2.0,26.148,48.8439,2.353347,307.1,NaN,,45.01613,,0 / 19,2372,2022-01-10 18:03:52:982
-1.7551,9.2653,3.1893,-1.758,9.2902,2.6024,-0.2884,-0.8042,1.2939,2.3957,0.8913,0.3493,15.0,16.5,-27.75,-24.67,359.73,-71.32,34.04,2.0,26.148,48.8439,2.353347,307.1,NaN,,45.01613,,0 / 19,2377,2022-01-10 18:03:52:987
-1.7551,9.2653,3.1893,-1.758,9.2902,2.6024,-0.2884,-0.8042,1.2939,2.3957,0.8913,0.3493,15.0,16.5,-27.75,-24.67,359.73,-71.32,34.04,2.0,26.148,48.8439,2.353347,307.1,NaN,,45.01613,,0 / 19,2381,2022-01-10 18:03:52:991
0.2273,7.0229,-3.8309,-2.8819,8.83,-3.1458,2.3051,0.0606,2.6092,2.3957,0.8913,0.3493,15.0,16.5,-27.75,-24.67,359.73,-71.32,34.04,2.0,26.148,48.8439,2.353347,307.1,NaN,,45.01613,,0 / 19,2387,2022-01-10 18:03:52:997
0.2273,7.0229,-3.8309,-2.8819,8.83,-3.1458,2.3051,0.0606,2.6092,2.3957,0.8913,0.3493,15.0,16.5,-27.75,-24.67,359.73,-71.32,34.04,2.0,26.148,48.8439,2.353347,307.1,NaN,,45.01613,,0 / 19,2393,2022-01-10 18:03:53:003
0.2273,7.0229,-3.8309,-2.8819,8.83,-3.1458,2.3051,0.0606,2.6092,2.3957,0.8913,0.3493,15.0,16.5,-27.75,-24.67,359.73,-71.32,34.04,2.0,26.148,48.8439,2.353347,307.1,NaN,,45.01613,,0 / 19,2397,2022-01-10 18:03:53:007
0.2273,7.0229,-3.8309,-2.8819,8.83,-3.1458,2.3051,0.0606,2.6092,2.3957,0.8913,0.3493,15.0,16.5,-27.75,-24.67,359.73,-71.32,34.04,2.0,26.148,48.8439,2.353347,307.1,NaN,,45.01613,,0 / 19,2402,2022-01-10 18:03:53:012
0.2273,7.0229,-3.8309,-2.8819,8.83,-3.1458,2.3051,0.0606,2.6092,2.3957,0.8913,0.3493,15.0,16.5,-27.75,-24.67,359.73,-71.32,34.04,2.0,26.148,48.8439,2.353347,307.1,NaN,,45.01613,,0 / 19,2407,2022-01-10 18:03:53:017
0.2273,7.0229,-3.8309,-2.8819,8.83,-3.1458,2.3051,0.0606,2.6092,2.3957,0.8913,0.3493,15.0,20.63,-32.78,-4.35,103.12,-64.21,137.51,2.0,26.148,48.8439,2.353347,307.1,NaN,,45.01613,,0 / 19,2412,2022-01-10 18:03:53:022
0.2273,7.0229,-3.8309,-2.8819,8.83,-3.1458,2.3051,0.0606,2.6092,2.3957,0.8913,0.3493,15.0,20.63,-32.78,-4.35,103.12,-64.21,137.51,2.0,26.148,48.8439,2.353347,307.1,NaN,,45.01613,,0 / 19,2417,2022-01-10 18:03:53:027
0.2273,7.0229,-3.8309,-2.8819,8.83,-3.1458,2.3051,0.0606,2.6092,2.3957,0.8913,0.3493,15.0,20.63,-32.78,-4.35,103.12,-64.21,137.51,2.0,26.148,48.8439,2.353347,307.1,NaN,,45.01613,,0 / 19,2422,2022-01-10 18:03:53:032
0.2273,7.0229,-3.8309,-2.8819,8.83,-3.1458,2.3051,0.0606,2.6092,2.3957,0.8913,0.3493,15.0,20.63,-32.78,-4.35,103.12,-64.21,137.51,2.0,26.148,48.8439,2.353347,307.1,NaN,,45.01613,,0 / 19,2427,2022-01-10 18:03:53:037
0.2273,7.0229,-3.8309,-2.8819,8.83,-3.1458,2.3051,0.0606,2.6092,2.3957,0.8913,0.3493,15.0,20.63,-32.78,-4.35,103.12,-64.21,137.51,2.0,26.148,48.8439,2.353347,307.1,NaN,,45.01613,,0 / 19,2432,2022-01-10 18:03:53:042
0.2273,7.0229,-3.8309,-2.8819,8.83,-3.1458,2.3051,0.0606,2.6092,2.3957,0.8913,0.3493,15.0,20.63,-32.78,-4.35,103.12,-64.21,137.51,2.0,26.148,48.8439,2.353347,307.1,NaN,,45.01613,,0 / 19,2437,2022-01-10 18:03:53:047
0.2273,7.0229,-3.8309,-2.8819,8.83,-3.1458,2.3051,0.0606,2.6092,3.0904,2.51,-3.0419,15.0,20.63,-32.78,-4.35,103.12,-64.21,137.51,2.0,26.148,48.8439,2.353347,307.1,NaN,,45.01613,,0 / 19,2441,2022-01-10 18:03:53:051
0.2273,7.0229,-3.8309,-2.8819,8.83,-3.1458,2.3051,0.0606,2.6092,3.0904,2.51,-3.0419,15.0,20.63,-32.78,-4.35,103.12,-64.21,137.51,2.0,26.148,48.8439,2.353347,307.1,NaN,,45.01613,,0 / 19,2447,2022-01-10 18:03:53:057
0.2273,7.0229,-3.8309,-2.8819,8.83,-3.1458,2.3051,0.0606,2.6092,3.0904,2.51,-3.0419,15.0,20.63,-32.78,-4.35,103.12,-64.21,137.51,2.0,26.148,48.8439,2.353347,307.1,NaN,,45.01613,,0 / 19,2452,2022-01-10 18:03:53:062
0.2273,7.0229,-3.8309,-2.8819,8.83,-3.1458,2.3051,0.0606,2.6092,3.0904,2.51,-3.0419,15.0,20.63,-32.78,-4.35,103.12,-64.21,137.51,2.0,26.148,48.8439,2.353347,307.1,NaN,,45.01613,,0 / 19,2457,2022-01-10 18:03:53:067
0.2273,7.0229,-3.8309,-2.8819,8.83,-3.1458,2.3051,0.0606,2.6092,3.0904,2.51,-3.0419,15.0,20.63,-32.78,-4.35,103.12,-64.21,137.51,2.0,26.148,48.8439,2.353347,307.1,NaN,,45.01613,,0 / 19,2462,2022-01-10 18:03:53:072
0.2273,7.0229,-3.8309,-2.8819,8.83,-3.1458,2.3051,0.0606,2.6092,3.0904,2.51,-3.0419,15.0,20.63,-32.78,-4.35,103.12,-64.21,137.51,2.0,26.148,48.8439,2.353347,307.1,NaN,,45.01613,,0 / 19,2467,2022-01-10 18:03:53:077
0.2273,7.0229,-3.8309,-2.8819,8.83,-3.1458,2.3051,0.0606,2.6092,3.0904,2.51,-3.0419,15.0,20.63,-32.78,-4.35,103.12,-64.21,137.51,2.0,26.148,48.8439,2.353347,307.1,NaN,,45.01613,,0 / 19,2472,2022-01-10 18:03:53:082
0.2273,7.0229,-3.8309,-2.8819,8.83,-3.1458,2.3051,0.0606,2.6092,3.0904,2.51,-3.0419,15.0,20.63,-32.78,-4.35,103.12,-64.21,137.51,2.0,26.148,48.8439,2.353347,307.1,NaN,,45.01613,,0 / 19,2476,2022-01-10 18:03:53:086
0.2273,7.0229,-3.8309,-2.8819,8.83,-3.1458,2.3051,0.0606,2.6092,3.0904,2.51,-3.0419,15.0,20.63,-32.78,-4.35,103.12,-64.21,137.51,2.0,26.148,48.8439,2.353347,307.1,NaN,,45.01613,,0 / 19,2482,2022-01-10 18:03:53:092
0.2273,7.0229,-3.8309,-2.8819,8.83,-3.1458,2.3051,0.0606,2.6092,3.0904,2.51,-3.0419,15.0,20.63,-32.78,-4.35,103.12,-64.21,137.51,2.0,26.148,48.8439,2.353347,307.1,NaN,,45.01613,,0 / 19,2487,2022-01-10 18:03:53:097
0.2273,7.0229,-3.8309,-2.8819,8.83,-3.1458,2.3051,0.0606,2.6092,3.0904,2.51,-3.0419,15.0,20.63,-32.78,-4.35,103.12,-64.21,137.51,2.0,26.148,48.8439,2.353347,307.1,NaN,,45.01613,,0 / 19,2492,2022-01-10 18:03:53:102
0.2273,7.0229,-3.8309,-2.8819,8.83,-3.1458,2.3051,0.0606,2.6092,3.0904,2.51,-3.0419,15.0,20.63,-32.78,-4.35,103.12,-64.21,137.51,2.0,26.148,48.8439,2.353347,307.1,NaN,,45.01613,,0 / 19,2497,2022-01-10 18:03:53:107
-2.0928,3.6455,-6.7675,-4.2014,5.5564,-6.9026,2.7597,-0.0256,1.7074,3.0904,2.51,-3.0419,15.0,20.63,-32.78,-4.35,103.12,-64.21,137.51,2.0,26.148,48.8439,2.353347,307.1,NaN,,45.01613,,0 / 19,2502,2022-01-10 18:03:53:112
-2.0928,3.6455,-6.7675,-4.2014,5.5564,-6.9026,2.7597,-0.0256,1.7074,3.0904,2.51,-3.0419,15.0,20.63,-32.78,-4.35,103.12,-64.21,137.51,2.0,26.148,48.8439,2.353347,307.1,NaN,,45.01613,,0 / 19,2507,2022-01-10 18:03:53:117
-2.0928,3.6455,-6.7675,-4.2014,5.5564,-6.9026,2.7597,-0.0256,1.7074,3.0904,2.51,-3.0419,15.0,20.63,-32.78,-4.35,103.12,-64.21,137.51,2.0,26.148,48.8439,2.353347,307.1,NaN,,45.01613,,0 / 19,2512,2022-01-10 18:03:53:122
-2.0928,3.6455,-6.7675,-4.2014,5.5564,-6.9026,2.7597,-0.0256,1.7074,3.0904,2.51,-3.0419,15.0,20.63,-32.78,-4.35,103.12,-64.21,137.51,2.0,26.148,48.8439,2.353347,307.1,NaN,,45.01613,,0 / 19,2516,2022-01-10 18:03:53:126
-2.0928,3.6455,-6.7675,-4.2014,5.5564,-6.9026,2.7597,-0.0256,1.7074,3.0904,2.51,-3.0419,15.0,20.63,-32.78,-4.35,103.12,-64.21,137.51,2.0,26.148,48.8439,2.353347,307.1,NaN,,45.01613,,0 / 19,2522,2022-01-10 18:03:53:132
-2.0928,3.6455,-6.7675,-4.2014,5.5564,-6.9026,2.7597,-0.0256,1.7074,3.0904,2.51,-3.0419,15.0,20.63,-32.78,-4.35,103.12,-64.21,137.51,2.0,26.148,48.8439,2.353347,307.1,NaN,,45.01613,,0 / 19,2527,2022-01-10 18:03:53:137
-2.0928,3.6455,-6.7675,-4.2014,5.5564,-6.9026,2.7597,-0.0256,1.7074,3.0904,2.51,-3.0419,15.0,20.63,-32.78,-4.35,103.12,-64.21,137.51,2.0,26.148,48.8439,2.353347,307.1,NaN,,45.01613,,0 / 19,2532,2022-01-10 18:03:53:142
-2.0928,3.6455,-6.7675,-4.2014,5.5564,-6.9026,2.7597,-0.0256,1.7074,3.0904,2.51,-3.0419,15.0,20.63,-32.78,-4.35,103.12,-64.21,137.51,2.0,26.148,48.8439,2.353347,307.1,NaN,,45.01613,,0 / 19,2537,2022-01-10 18:03:53:147
-2.0928,3.6455,-6.7675,-4.2014,5.5564,-6.9026,2.7597,-0.0256,1.7074,3.0904,2.51,-3.0419,15.0,20.63,-32.78,-4.35,103.12,-64.21,137.51,2.0,26.148,48.8439,2.353347,307.1,NaN,,45.01613,,0 / 19,2542,2022-01-10 18:03:53:152
-2.0928,3.6455,-6.7675,-4.2014,5.5564,-6.9026,2.7597,-0.0256,1.7074,3.0904,2.51,-3.0419,15.0,20.63,-32.78,-4.35,103.12,-64.21,137.51,2.0,26.148,48.8439,2.353347,307.1,NaN,,45.01613,,0 / 19,2547,2022-01-10 18:03:53:157
-2.0928,3.6455,-6.7675,-4.2014,5.5564,-6.9026,2.7597,-0.0256,1.7074,3.0904,2.51,-3.0419,15.0,20.63,-32.78,-4.35,103.12,-64.21,137.51,2.0,26.148,48.8439,2.353347,307.1,NaN,,45.01613,,0 / 19,2552,2022-01-10 18:03:53:162
-2.0928,3.6455,-6.7675,-4.2014,5.5564,-6.9026,2.7597,-0.0256,1.7074,3.0904,2.51,-3.0419,15.0,20.63,-32.78,-4.35,103.12,-64.21,137.51,2.0,26.148,48.8439,2.353347,307.1,NaN,,45.01613,,0 / 19,2557,2022-01-10 18:03:53:167
-2.0928,3.6455,-6.7675,-4.2014,5.5564,-6.9026,2.7597,-0.0256,1.7074,3.0904,2.51,-3.0419,15.0,21.9,-27.67,11.63,130.66,-34.51,148.67,2.0,26.148,48.8439,2.353347,307.1,NaN,,45.01613,,0 / 19,2562,2022-01-10 18:03:53:172
-2.0928,3.6455,-6.7675,-4.2014,5.5564,-6.9026,2.7597,-0.0256,1.7074,3.0904,2.51,-3.0419,15.0,21.9,-27.67,11.63,130.66,-34.51,148.67,2.0,26.148,48.8439,2.353347,307.1,NaN,,45.01613,,0 / 19,2567,2022-01-10 18:03:53:177
-2.0928,3.6455,-6.7675,-4.2014,5.5564,-6.9026,2.7597,-0.0256,1.7074,3.0904,2.51,-3.0419,15.0,21.9,-27.67,11.63,130.66,-34.51,148.67,2.0,26.148,48.8439,2.353347,307.1,NaN,,45.01613,,0 / 19,2573,2022-01-10 18:03:53:183
-2.0928,3.6455,-6.7675,-4.2014,5.5564,-6.9026,2.7597,-0.0256,1.7074,3.0904,2.51,-3.0419,15.0,21.9,-27.67,11.63,130.66,-34.51,148.67,2.0,26.148,48.8439,2.353347,307.1,NaN,,45.01613,,0 / 19,2577,2022-01-10 18:03:53:187
-2.0928,3.6455,-6.7675,-4.2014,5.5564,-6.9026,2.7597,-0.0256,1.7074,3.0904,2.51,-3.0419,15.0,21.9,-27.67,11.63,130.66,-34.51,148.67,2.0,26.148,48.8439,2.353347,307.1,NaN,,45.01613,,0 / 19,2582,2022-01-10 18:03:53:192
-2.0928,3.6455,-6.7675,-4.2014,5.5564,-6.9026,2.7597,-0.0256,1.7074,3.0904,2.51,-3.0419,15.0,21.9,-27.67,11.63,130.66,-34.51,148.67,2.0,26.148,48.8439,2.353347,307.1,NaN,,45.01613,,0 / 19,2587,2022-01-10 18:03:53:197
-2.0928,3.6455,-6.7675,-4.2014,5.5564,-6.9026,2.7597,-0.0256,1.7074,3.0904,2.51,-3.0419,15.0,21.9,-27.67,11.63,130.66,-34.51,148.67,2.0,26.148,48.8439,2.353347,307.1,NaN,,45.01613,,0 / 19,2592,2022-01-10 18:03:53:202
-2.0928,3.6455,-6.7675,-4.2014,5.5564,-6.9026,2.7597,-0.0256,1.7074,3.0904,2.51,-3.0419,15.0,21.9,-27.67,11.63,130.66,-34.51,148.67,2.0,26.148,48.8439,2.353347,307.1,NaN,,45.01613,,0 / 19,2597,2022-01-10 18:03:53:207
-2.0928,3.6455,-6.7675,-4.2014,5.5564,-6.9026,2.7597,-0.0256,1.7074,3.0904,2.51,-3.0419,15.0,21.9,-27.67,11.63,130.66,-34.51,148.67,2.0,26.148,48.8439,2.353347,307.1,NaN,,45.01613,,0 / 19,2601,2022-01-10 18:03:53:211
-3.7505,0.7193,-6.5725,-4.5155,3.3346,-8.0412,2.1055,0.3856,1.2769,2.5856,0.7527,-3.617,5.0,21.9,-27.67,11.63,130.66,-34.51,148.67,2.0,26.148,48.8439,2.353347,307.1,NaN,,45.01613,,0 / 19,2607,2022-01-10 18:03:53:217
-3.7505,0.7193,-6.5725,-4.5155,3.3346,-8.0412,2.1055,0.3856,1.2769,2.5856,0.7527,-3.617,5.0,21.9,-27.67,11.63,130.66,-34.51,148.67,2.0,26.148,48.8439,2.353347,307.1,NaN,,45.01613,,0 / 19,2612,2022-01-10 18:03:53:222
-3.7505,0.7193,-6.5725,-4.5155,3.3346,-8.0412,2.1055,0.3856,1.2769,2.5856,0.7527,-3.617,5.0,21.9,-27.67,11.63,130.66,-34.51,148.67,2.0,26.148,48.8439,2.353347,307.1,NaN,,45.01613,,0 / 19,2617,2022-01-10 18:03:53:227
-3.7505,0.7193,-6.5725,-4.5155,3.3346,-8.0412,2.1055,0.3856,1.2769,2.5856,0.7527,-3.617,5.0,21.9,-27.67,11.63,130.66,-34.51,148.67,2.0,26.148,48.8439,2.353347,307.1,NaN,,45.01613,,0 / 19,2622,2022-01-10 18:03:53:232
-3.7505,0.7193,-6.5725,-4.5155,3.3346,-8.0412,2.1055,0.3856,1.2769,2.5856,0.7527,-3.617,5.0,21.9,-27.67,11.63,130.66,-34.51,148.67,2.0,26.148,48.8439,2.353347,307.1,NaN,,45.01613,,0 / 19,2627,2022-01-10 18:03:53:237
-3.7505,0.7193,-6.5725,-4.5155,3.3346,-8.0412,2.1055,0.3856,1.2769,2.5856,0.7527,-3.617,5.0,21.9,-27.67,11.63,130.66,-34.51,148.67,2.0,26.148,48.8439,2.353347,307.1,NaN,,45.01613,,0 / 19,2632,2022-01-10 18:03:53:242
-3.7505,0.7193,-6.5725,-4.5155,3.3346,-8.0412,2.1055,0.3856,1.2769,2.5856,0.7527,-3.617,5.0,21.9,-27.67,11.63,130.66,-34.51,148.67,2.0,26.148,48.8439,2.353347,307.1,NaN,,45.01613,,0 / 19,2637,2022-01-10 18:03:53:247
-3.7505,0.7193,-6.5725,-4.5155,3.3346,-8.0412,2.1055,0.3856,1.2769,2.5856,0.7527,-3.617,5.0,21.9,-27.67,11.63,130.66,-34.51,148.67,2.0,26.148,48.8439,2.353347,307.1,NaN,,45.01613,,0 / 19,2642,2022-01-10 18:03:53:252
-3.7505,0.7193,-6.5725,-4.5155,3.3346,-8.0412,2.1055,0.3856,1.2769,2.5856,0.7527,-3.617,5.0,21.9,-27.67,11.63,130.66,-34.51,148.67,2.0,26.148,48.8439,2.353347,307.1,NaN,,45.01613,,0 / 19,2647,2022-01-10 18:03:53:257
-3.7505,0.7193,-6.5725,-4.5155,3.3346,-8.0412,2.1055,0.3856,1.2769,2.5856,0.7527,-3.617,5.0,21.9,-27.67,11.63,130.66,-34.51,148.67,2.0,26.148,48.8439,2.353347,307.1,NaN,,45.01613,,0 / 19,2652,2022-01-10 18:03:53:262
-3.7505,0.7193,-6.5725,-4.5155,3.3346,-8.0412,2.1055,0.3856,1.2769,2.5856,0.7527,-3.617,5.0,21.9,-27.67,11.63,130.66,-34.51,148.67,2.0,26.148,48.8439,2.353347,307.1,NaN,,45.01613,,0 / 19,2657,2022-01-10 18:03:53:267
-3.7505,0.7193,-6.5725,-4.5155,3.3346,-8.0412,2.1055,0.3856,1.2769,2.5856,0.7527,-3.617,5.0,21.9,-27.67,11.63,130.66,-34.51,148.67,2.0,25.314,48.8439,2.353347,307.1,NaN,,45.01613,,0 / 19,2662,2022-01-10 18:03:53:272
-3.7505,0.7193,-6.5725,-4.5155,3.3346,-8.0412,2.1055,0.3856,1.2769,2.5856,0.7527,-3.617,5.0,21.9,-27.67,11.63,130.66,-34.51,148.67,2.0,25.314,48.8439,2.353347,307.1,NaN,,45.01613,,0 / 19,2667,2022-01-10 18:03:53:277
-3.7505,0.7193,-6.5725,-4.5155,3.3346,-8.0412,2.1055,0.3856,1.2769,2.5856,0.7527,-3.617,5.0,21.9,-27.67,11.63,130.66,-34.51,148.67,2.0,25.314,48.8439,2.353347,307.1,NaN,,45.01613,,0 / 19,2671,2022-01-10 18:03:53:281
-3.7505,0.7193,-6.5725,-4.5155,3.3346,-8.0412,2.1055,0.3856,1.2769,2.5856,0.7527,-3.617,5.0,21.9,-27.67,11.63,130.66,-34.51,148.67,2.0,25.314,48.8439,2.353347,307.1,NaN,,45.01613,,0 / 19,2677,2022-01-10 18:03:53:287
-3.7505,0.7193,-6.5725,-4.5155,3.3346,-8.0412,2.1055,0.3856,1.2769,2.5856,0.7527,-3.617,5.0,21.9,-27.67,11.63,130.66,-34.51,148.67,2.0,25.314,48.8439,2.353347,307.1,NaN,,45.01613,,0 / 19,2682,2022-01-10 18:03:53:292
-3.7505,0.7193,-6.5725,-4.5155,3.3346,-8.0412,2.1055,0.3856,1.2769,2.5856,0.7527,-3.617,5.0,21.9,-27.67,11.63,130.66,-34.51,148.67,2.0,25.314,48.8439,2.353347,307.1,NaN,,45.01613,,0 / 19,2687,2022-01-10 18:03:53:297
-3.7505,0.7193,-6.5725,-4.5155,3.3346,-8.0412,2.1055,0.3856,1.2769,2.5856,0.7527,-3.617,5.0,21.9,-27.67,11.63,130.66,-34.51,148.67,2.0,25.314,48.8439,2.353347,307.1,NaN,,45.01613,,0 / 19,2692,2022-01-10 18:03:53:302
-3.7505,0.7193,-6.5725,-4.5155,3.3346,-8.0412,2.1055,0.3856,1.2769,2.5856,0.7527,-3.617,5.0,21.9,-27.67,11.63,130.66,-34.51,148.67,2.0,25.314,48.8439,2.353347,307.1,NaN,,45.01613,,0 / 19,2697,2022-01-10 18:03:53:307
-7.9355,-3.1588,-3.6727,-4.5155,3.3346,-8.0412,2.1055,0.3856,1.2769,2.5856,0.7527,-3.617,5.0,21.9,-27.67,11.63,130.66,-34.51,148.67,2.0,25.314,48.8439,2.353347,307.1,NaN,,45.01613,,0 / 19,2702,2022-01-10 18:03:53:312
-7.9355,-3.1588,-3.6727,-4.5155,3.3346,-8.0412,2.1055,0.3856,1.2769,2.5856,0.7527,-3.617,5.0,21.9,-27.67,11.63,130.66,-34.51,148.67,2.0,25.314,48.8439,2.353347,307.1,NaN,,45.01613,,0 / 19,2707,2022-01-10 18:03:53:317
-7.9355,-3.1588,-3.6727,-4.5155,3.3346,-8.0412,2.1055,0.3856,1.2769,2.5856,0.7527,-3.617,5.0,22.35,-15.15,24.45,114.12,-19.88,150.68,2.0,25.314,48.8439,2.353347,307.1,NaN,,45.01613,,0 / 19,2712,2022-01-10 18:03:53:322
-7.9355,-3.1588,-3.6727,-4.5155,3.3346,-8.0412,2.1055,0.3856,1.2769,2.5856,0.7527,-3.617,5.0,22.35,-15.15,24.45,114.12,-19.88,150.68,2.0,25.314,48.8439,2.353347,307.1,NaN,,45.01613,,0 / 19,2717,2022-01-10 18:03:53:327
-7.9355,-3.1588,-3.6727,-4.5155,3.3346,-8.0412,2.1055,0.3856,1.2769,2.5856,0.7527,-3.617,5.0,22.35,-15.15,24.45,114.12,-19.88,150.68,2.0,25.314,48.8439,2.353347,307.1,NaN,,45.01613,,0 / 19,2724,2022-01-10 18:03:53:334
-7.9355,-3.1588,-3.6727,-4.5155,3.3346,-8.0412,2.1055,0.3856,1.2769,2.5856,0.7527,-3.617,5.0,22.35,-15.15,24.45,114.12,-19.88,150.68,2.0,25.314,48.8439,2.353347,307.1,NaN,,45.01613,,0 / 19,2727,2022-01-10 18:03:53:337
-7.9355,-3.1588,-3.6727,-4.5155,3.3346,-8.0412,2.1055,0.3856,1.2769,2.5856,0.7527,-3.617,5.0,22.35,-15.15,24.45,114.12,-19.88,150.68,2.0,25.314,48.8439,2.353347,307.1,NaN,,45.01613,,0 / 19,2732,2022-01-10 18:03:53:342
-7.9355,-3.1588,-3.6727,-4.5155,3.3346,-8.0412,2.1055,0.3856,1.2769,2.5856,0.7527,-3.617,5.0,22.35,-15.15,24.45,114.12,-19.88,150.68,2.0,25.314,48.8439,2.353347,307.1,NaN,,45.01613,,0 / 19,2737,2022-01-10 18:03:53:347
-7.9355,-3.1588,-3.6727,-4.5155,3.3346,-8.0412,2.1055,0.3856,1.2769,2.5856,0.7527,-3.617,5.0,22.35,-15.15,24.45,114.12,-19.88,150.68,2.0,25.314,48.8439,2.353347,307.1,NaN,,45.01613,,0 / 19,2742,2022-01-10 18:03:53:352
-7.9355,-3.1588,-3.6727,-7.9172,-3.0574,-4.9133,1.0746,0.777,0.6091,2.5856,0.7527,-3.617,5.0,22.35,-15.15,24.45,114.12,-19.88,150.68,2.0,25.314,48.8439,2.353347,307.1,NaN,,45.01613,,0 / 19,2747,2022-01-10 18:03:53:357
-7.9355,-3.1588,-3.6727,-7.9172,-3.0574,-4.9133,1.0746,0.777,0.6091,2.5856,0.7527,-3.617,5.0,22.35,-15.15,24.45,114.12,-19.88,150.68,2.0,25.314,48.8439,2.353347,307.1,NaN,,45.01613,,0 / 19,2753,2022-01-10 18:03:53:363
-7.9355,-3.1588,-3.6727,-7.9172,-3.0574,-4.9133,1.0746,0.777,0.6091,2.5856,0.7527,-3.617,5.0,22.35,-15.15,24.45,114.12,-19.88,150.68,2.0,25.314,48.8439,2.353347,307.1,NaN,,45.01613,,0 / 19,2757,2022-01-10 18:03:53:367
-7.9355,-3.1588,-3.6727,-7.9172,-3.0574,-4.9133,1.0746,0.777,0.6091,2.5856,0.7527,-3.617,5.0,22.35,-15.15,24.45,114.12,-19.88,150.68,2.0,25.314,48.8439,2.353347,307.1,NaN,,45.01613,,0 / 19,2762,2022-01-10 18:03:53:372
-7.9355,-3.1588,-3.6727,-7.9172,-3.0574,-4.9133,1.0746,0.777,0.6091,2.5856,0.7527,-3.617,5.0,22.35,-15.15,24.45,114.12,-19.88,150.68,2.0,25.314,48.8439,2.353347,307.1,NaN,,45.01613,,0 / 19,2767,2022-01-10 18:03:53:377
-7.9355,-3.1588,-3.6727,-7.9172,-3.0574,-4.9133,1.0746,0.777,0.6091,2.5856,0.7527,-3.617,5.0,22.35,-15.15,24.45,114.12,-19.88,150.68,2.0,25.314,48.8439,2.353347,307.1,NaN,,45.01613,,0 / 19,2772,2022-01-10 18:03:53:382
-7.9355,-3.1588,-3.6727,-7.9172,-3.0574,-4.9133,1.0746,0.777,0.6091,2.5856,0.7527,-3.617,5.0,22.35,-15.15,24.45,114.12,-19.88,150.68,2.0,25.314,48.8439,2.353347,307.1,NaN,,45.01613,,0 / 19,2777,2022-01-10 18:03:53:387
-7.9355,-3.1588,-3.6727,-7.9172,-3.0574,-4.9133,1.0746,0.777,0.6091,2.5856,0.7527,-3.617,5.0,22.35,-15.15,24.45,114.12,-19.88,150.68,2.0,25.314,48.8439,2.353347,307.1,NaN,,45.01613,,0 / 19,2782,2022-01-10 18:03:53:392
-11.2543,-3.5219,-0.4723,-7.9172,-3.0574,-4.9133,1.0746,0.777,0.6091,1.7955,-5.6151,-2.0484,5.0,22.35,-15.15,24.45,114.12,-19.88,150.68,2.0,25.314,48.8439,2.353347,307.1,NaN,,45.01613,,0 / 19,2787,2022-01-10 18:03:53:397
-11.2543,-3.5219,-0.4723,-7.9172,-3.0574,-4.9133,1.0746,0.777,0.6091,1.7955,-5.6151,-2.0484,5.0,22.35,-15.15,24.45,114.12,-19.88,150.68,2.0,25.314,48.8439,2.353347,307.1,NaN,,45.01613,,0 / 19,2792,2022-01-10 18:03:53:402
-11.2543,-3.5219,-0.4723,-7.9172,-3.0574,-4.9133,1.0746,0.777,0.6091,1.7955,-5.6151,-2.0484,5.0,22.35,-15.15,24.45,114.12,-19.88,150.68,2.0,25.314,48.8439,2.353347,307.1,NaN,,45.01613,,0 / 19,2798,2022-01-10 18:03:53:408
-11.2543,-3.5219,-0.4723,-7.9172,-3.0574,-4.9133,1.0746,0.777,0.6091,1.7955,-5.6151,-2.0484,5.0,22.35,-15.15,24.45,114.12,-19.88,150.68,2.0,25.314,48.8439,2.353347,307.1,NaN,,45.01613,,0 / 19,2802,2022-01-10 18:03:53:412
