ACCELEROMETER X (m/s²),ACCELEROMETER Y (m/s²),ACCELEROMETER Z (m/s²),GRAVITY X (m/s²),GRAVITY Y (m/s²),GRAVITY Z (m/s²),LINEAR ACCELERATION X (m/s²),LINEAR ACCELERATION Y (m/s²),LINEAR ACCELERATION Z (m/s²),GYROSCOPE X (rad/s),GYROSCOPE Y (rad/s),GYROSCOPE Z (rad/s),MAGNETIC FIELD X (μT),MAGNETIC FIELD Y (μT),MAGNETIC FIELD Z (μT),ORIENTATION Z (azimuth °),ORIENTATION X (pitch °),ORIENTATION Y (roll °),LOCATION Latitude : ,LOCATION Longitude : ,LOCATION Altitude ( m),LOCATION Altitude-google ( m),LOCATION Speed ( Kmh),LOCATION Accuracy ( m),LOCATION ORIENTATION (°),Satellites in range,GPS NMEA,Time since start in ms ,YYYY-MO-DD HH-MI-SS_SSS
-0.1561,9.204,4.3343,-0.0895,8.7656,4.3962,-0.0297,-0.2373,1.4122,1.1536,0.1794,-0.1569,18.6,-27.67,-23.1,280.08,-56.28,-0.59,48.84388,2.353328,91.4,NaN,,11.998,,0 / 29,,22,2022-01-12 10:13:07:133
-0.1561,9.204,4.3343,-0.0895,8.7656,4.3962,-0.0297,-0.2373,1.4122,1.1536,0.1794,-0.1569,18.6,-27.67,-23.1,280.08,-56.28,-0.59,48.84388,2.353328,91.4,NaN,,11.998,,0 / 29,,27,2022-01-12 10:13:07:138
-0.1561,9.204,4.3343,-0.0895,8.7656,4.3962,-0.0297,-0.2373,1.4122,1.1536,0.1794,-0.1569,18.6,-27.67,-23.1,280.08,-56.28,-0.59,48.84388,2.353328,91.4,NaN,,11.998,,0 / 29,,32,2022-01-12 10:13:07:143
-0.1561,9.204,4.3343,-0.0895,8.7656,4.3962,-0.0297,-0.2373,1.4122,1.1536,0.1794,-0.1569,18.15,-30.67,-20.92,286.47,-63.36,1.17,48.84388,2.353328,91.4,NaN,,11.998,,0 / 29,,37,2022-01-12 10:13:07:148
-0.1561,9.204,4.3343,-0.0895,8.7656,4.3962,-0.0297,-0.2373,1.4122,1.1536,0.1794,-0.1569,18.15,-30.67,-20.92,286.47,-63.36,1.17,48.84388,2.353328,91.4,NaN,,11.998,,0 / 29,,42,2022-01-12 10:13:07:153
-0.1561,9.204,4.3343,-0.0895,8.7656,4.3962,-0.0297,-0.2373,1.4122,1.1536,0.1794,-0.1569,18.15,-30.67,-20.92,286.47,-63.36,1.17,48.84388,2.353328,91.4,NaN,,11.998,,0 / 29,,49,2022-01-12 10:13:07:160
-0.1561,9.204,4.3343,-0.0895,8.7656,4.3962,-0.0297,-0.2373,1.4122,1.1536,0.1794,-0.1569,18.15,-30.67,-20.92,286.47,-63.36,1.17,48.84388,2.353328,91.4,NaN,,11.998,,0 / 29,,51,2022-01-12 10:13:07:162
-0.1561,9.204,4.3343,-0.0895,8.7656,4.3962,-0.0297,-0.2373,1.4122,1.1536,0.1794,-0.1569,18.15,-30.67,-20.92,286.47,-63.36,1.17,48.84388,2.353328,91.4,NaN,,11.998,,0 / 29,,57,2022-01-12 10:13:07:168
-0.1561,9.204,4.3343,-0.0895,8.7656,4.3962,-0.0297,-0.2373,1.4122,1.1536,0.1794,-0.1569,18.15,-30.67,-20.92,286.47,-63.36,1.17,48.84388,2.353328,91.4,NaN,,11.998,,0 / 29,,62,2022-01-12 10:13:07:173
-0.1561,9.204,4.3343,-0.0895,8.7656,4.3962,-0.0297,-0.2373,1.4122,1.1536,0.1794,-0.1569,18.15,-30.67,-20.92,286.47,-63.36,1.17,48.84388,2.353328,91.4,NaN,,11.998,,0 / 29,,67,2022-01-12 10:13:07:178
-0.3742,9.3646,4.4982,-0.0895,8.7656,4.3962,-0.0297,-0.2373,1.4122,1.1536,0.1794,-0.1569,18.15,-30.67,-20.92,286.47,-63.36,1.17,48.84388,2.353328,91.4,NaN,,11.998,,0 / 29,,72,2022-01-12 10:13:07:183
-0.3742,9.3646,4.4982,-0.0895,8.7656,4.3962,-0.0297,-0.2373,1.4122,1.1536,0.1794,-0.1569,18.15,-30.67,-20.92,286.47,-63.36,1.17,48.84388,2.353328,91.4,NaN,,11.998,,0 / 29,,77,2022-01-12 10:13:07:188
-0.3742,9.3646,4.4982,-0.0895,8.7656,4.3962,-0.0297,-0.2373,1.4122,1.1536,0.1794,-0.1569,18.15,-30.67,-20.92,286.47,-63.36,1.17,48.84388,2.353328,91.4,NaN,,11.998,,0 / 29,,82,2022-01-12 10:13:07:193
-0.3742,9.3646,4.4982,-0.0895,8.7656,4.3962,-0.0297,-0.2373,1.4122,1.1536,0.1794,-0.1569,18.15,-30.67,-20.92,286.47,-63.36,1.17,48.84388,2.353328,91.4,NaN,,11.998,,0 / 29,,86,2022-01-12 10:13:07:197
-0.3742,9.3646,4.4982,-0.0895,8.7656,4.3962,-0.0297,-0.2373,1.4122,1.1536,0.1794,-0.1569,18.15,-30.67,-20.92,286.47,-63.36,1.17,48.84388,2.353328,91.4,NaN,,11.998,,0 / 29,,91,2022-01-12 10:13:07:202
-0.3742,9.3646,4.4982,-0.0895,8.7656,4.3962,-0.0297,-0.2373,1.4122,1.1536,0.1794,-0.1569,18.15,-30.67,-20.92,286.47,-63.36,1.17,48.84388,2.353328,91.4,NaN,,11.998,,0 / 29,,97,2022-01-12 10:13:07:208
-0.3742,9.3646,4.4982,-0.0895,8.7656,4.3962,-0.0297,-0.2373,1.4122,1.1536,0.1794,-0.1569,18.15,-30.67,-20.92,286.47,-63.36,1.17,48.84388,2.353328,91.4,NaN,,11.998,,0 / 29,,101,2022-01-12 10:13:07:212
-0.3742,9.3646,4.4982,-0.0895,8.7656,4.3962,-0.0297,-0.2373,1.4122,1.1536,0.1794,-0.1569,18.15,-30.67,-20.92,286.47,-63.36,1.17,48.84388,2.353328,91.4,NaN,,11.998,,0 / 29,,106,2022-01-12 10:13:07:217
-0.3742,9.3646,4.4982,-0.0895,8.7656,4.3962,-0.0297,-0.2373,1.4122,1.1536,0.1794,-0.1569,18.15,-30.67,-20.92,286.47,-63.36,1.17,48.84388,2.353328,91.4,NaN,,11.998,,0 / 29,,114,2022-01-12 10:13:07:225
-0.3742,9.3646,4.4982,-0.0895,8.7656,4.3962,-0.0297,-0.2373,1.4122,1.1536,0.1794,-0.1569,18.15,-30.67,-20.92,286.47,-63.36,1.17,48.84388,2.353328,91.4,NaN,,11.998,,0 / 29,,116,2022-01-12 10:13:07:227
-0.3742,9.3646,4.4982,-0.0895,8.7656,4.3962,-0.0297,-0.2373,1.4122,1.1536,0.1794,-0.1569,18.15,-30.67,-20.92,286.47,-63.36,1.17,48.84388,2.353328,91.4,NaN,,11.998,,0 / 29,,122,2022-01-12 10:13:07:233
-0.3742,9.3646,4.4982,-0.0895,8.7656,4.3962,-0.0297,-0.2373,1.4122,1.1536,0.1794,-0.1569,18.15,-30.67,-20.92,286.47,-63.36,1.17,48.84388,2.353328,91.4,NaN,,11.998,,0 / 29,,127,2022-01-12 10:13:07:238
-0.6748,9.4878,2.7927,-0.4353,9.2423,3.2497,-0.1209,0.1576,0.5213,1.1536,0.1794,-0.1569,17.63,-34.65,-16.58,292.42,-70.47,7.63,48.84388,2.353328,91.4,NaN,,11.998,,0 / 29,,132,2022-01-12 10:13:07:243
-0.6748,9.4878,2.7927,-0.4353,9.2423,3.2497,-0.1209,0.1576,0.5213,1.1536,0.1794,-0.1569,17.63,-34.65,-16.58,292.42,-70.47,7.63,48.84388,2.353328,91.4,NaN,,11.998,,0 / 29,,137,2022-01-12 10:13:07:248
-0.6748,9.4878,2.7927,-0.4353,9.2423,3.2497,-0.1209,0.1576,0.5213,1.1536,0.1794,-0.1569,17.63,-34.65,-16.58,292.42,-70.47,7.63,48.84388,2.353328,91.4,NaN,,11.998,,0 / 29,,142,2022-01-12 10:13:07:253
-0.6748,9.4878,2.7927,-0.4353,9.2423,3.2497,-0.1209,0.1576,0.5213,1.1536,0.1794,-0.1569,17.63,-34.65,-16.58,292.42,-70.47,7.63,48.84388,2.353328,91.4,NaN,,11.998,,0 / 29,,147,2022-01-12 10:13:07:258
-0.6748,9.4878,2.7927,-0.4353,9.2423,3.2497,-0.1209,0.1576,0.5213,1.1536,0.1794,-0.1569,17.63,-34.65,-16.58,292.42,-70.47,7.63,48.84388,2.353328,91.4,NaN,,11.998,,0 / 29,,151,2022-01-12 10:13:07:262
-0.6748,9.4878,2.7927,-0.4353,9.2423,3.2497,-0.1209,0.1576,0.5213,0.8262,0.225,-0.1185,17.63,-34.65,-16.58,292.42,-70.47,7.63,48.84388,2.353328,91.4,NaN,,11.998,,0 / 29,,157,2022-01-12 10:13:07:268
-0.6748,9.4878,2.7927,-0.4353,9.2423,3.2497,-0.1209,0.1576,0.5213,0.8262,0.225,-0.1185,17.63,-34.65,-16.58,292.42,-70.47,7.63,48.84388,2.353328,91.4,NaN,,11.998,,0 / 29,,162,2022-01-12 10:13:07:273
-0.6748,9.4878,2.7927,-0.4353,9.2423,3.2497,-0.1209,0.1576,0.5213,0.8262,0.225,-0.1185,17.63,-34.65,-16.58,292.42,-70.47,7.63,48.84388,2.353328,91.4,NaN,,11.998,,0 / 29,,166,2022-01-12 10:13:07:277
-0.6748,9.4878,2.7927,-0.4353,9.2423,3.2497,-0.1209,0.1576,0.5213,0.8262,0.225,-0.1185,17.63,-34.65,-16.58,292.42,-70.47,7.63,48.84388,2.353328,91.4,NaN,,11.998,,0 / 29,,171,2022-01-12 10:13:07:282
-0.6748,9.4878,2.7927,-0.4353,9.2423,3.2497,-0.1209,0.1576,0.5213,0.8262,0.225,-0.1185,17.63,-34.65,-16.58,292.42,-70.47,7.63,48.84388,2.353328,91.4,NaN,,11.998,,0 / 29,,177,2022-01-12 10:13:07:288
-0.6748,9.4878,2.7927,-0.4353,9.2423,3.2497,-0.1209,0.1576,0.5213,0.8262,0.225,-0.1185,17.63,-34.65,-16.58,292.42,-70.47,7.63,48.84388,2.353328,91.4,NaN,,11.998,,0 / 29,,182,2022-01-12 10:13:07:293
-0.6748,9.4878,2.7927,-0.4353,9.2423,3.2497,-0.1209,0.1576,0.5213,0.8262,0.225,-0.1185,17.63,-34.65,-16.58,292.42,-70.47,7.63,48.84388,2.353328,91.4,NaN,,11.998,,0 / 29,,187,2022-01-12 10:13:07:298
-0.6748,9.4878,2.7927,-0.4353,9.2423,3.2497,-0.1209,0.1576,0.5213,0.8262,0.225,-0.1185,17.63,-34.65,-16.58,292.42,-70.47,7.63,48.84388,2.353328,91.4,NaN,,11.998,,0 / 29,,192,2022-01-12 10:13:07:303
-0.6748,9.3598,2.7449,-0.4856,9.3684,2.8578,0.162,0.1385,-0.1024,0.8262,0.225,-0.1185,17.63,-34.65,-16.58,292.42,-70.47,7.63,48.84388,2.353328,91.4,NaN,,11.998,,0 / 29,,197,2022-01-12 10:13:07:308
-0.6748,9.3598,2.7449,-0.4856,9.3684,2.8578,0.162,0.1385,-0.1024,0.8262,0.225,-0.1185,17.63,-34.65,-16.58,292.42,-70.47,7.63,48.84388,2.353328,91.4,NaN,,11.998,,0 / 29,,201,2022-01-12 10:13:07:312
-0.6748,9.3598,2.7449,-0.4856,9.3684,2.8578,0.162,0.1385,-0.1024,0.8262,0.225,-0.1185,17.63,-34.65,-16.58,292.42,-70.47,7.63,48.84388,2.353328,91.4,NaN,,11.998,,0 / 29,,207,2022-01-12 10:13:07:318
-0.6748,9.3598,2.7449,-0.4856,9.3684,2.8578,0.162,0.1385,-0.1024,0.8262,0.225,-0.1185,17.63,-34.65,-16.58,292.42,-70.47,7.63,48.84388,2.353328,91.4,NaN,,11.998,,0 / 29,,211,2022-01-12 10:13:07:322
-0.6748,9.3598,2.7449,-0.4856,9.3684,2.8578,0.162,0.1385,-0.1024,0.8262,0.225,-0.1185,17.63,-34.65,-16.58,292.42,-70.47,7.63,48.84388,2.353328,91.4,NaN,,11.998,,0 / 29,,217,2022-01-12 10:13:07:328
-0.6748,9.3598,2.7449,-0.4856,9.3684,2.8578,0.162,0.1385,-0.1024,0.8262,0.225,-0.1185,17.63,-34.65,-16.58,292.42,-70.47,7.63,48.84388,2.353328,91.4,NaN,,11.998,,0 / 29,,221,2022-01-12 10:13:07:332
-0.6748,9.3598,2.7449,-0.4856,9.3684,2.8578,0.162,0.1385,-0.1024,0.8262,0.225,-0.1185,17.63,-34.65,-16.58,292.42,-70.47,7.63,48.84388,2.353328,91.4,NaN,,11.998,,0 / 29,,226,2022-01-12 10:13:07:337
-0.6748,9.3598,2.7449,-0.4856,9.3684,2.8578,0.162,0.1385,-0.1024,0.8262,0.225,-0.1185,17.63,-34.65,-16.58,292.42,-70.47,7.63,48.84388,2.353328,91.4,NaN,,11.998,,0 / 29,,232,2022-01-12 10:13:07:343
-0.6748,9.3598,2.7449,-0.4856,9.3684,2.8578,0.162,0.1385,-0.1024,0.8262,0.225,-0.1185,17.33,-35.32,-14.7,294.53,-72.81,9.64,48.84388,2.353328,91.4,NaN,,11.998,,0 / 29,,236,2022-01-12 10:13:07:347
-0.6748,9.3598,2.7449,-0.4856,9.3684,2.8578,0.162,0.1385,-0.1024,0.8262,0.225,-0.1185,17.33,-35.32,-14.7,294.53,-72.81,9.64,48.84388,2.353328,91.4,NaN,,11.998,,0 / 29,,241,2022-01-12 10:13:07:352
-0.6748,9.3598,2.7449,-0.4856,9.3684,2.8578,0.162,0.1385,-0.1024,0.8262,0.225,-0.1185,17.33,-35.32,-14.7,294.53,-72.81,9.64,48.84388,2.353328,91.4,NaN,,11.998,,0 / 29,,247,2022-01-12 10:13:07:358
-0.6748,9.3598,2.7449,-0.4856,9.3684,2.8578,0.162,0.1385,-0.1024,0.8262,0.225,-0.1185,17.33,-35.32,-14.7,294.53,-72.81,9.64,48.84388,2.353328,91.4,NaN,,11.998,,0 / 29,,252,2022-01-12 10:13:07:363
-0.6748,9.3598,2.7449,-0.4856,9.3684,2.8578,0.162,0.1385,-0.1024,0.8262,0.225,-0.1185,17.33,-35.32,-14.7,294.53,-72.81,9.64,48.84388,2.353328,91.4,NaN,,11.998,,0 / 29,,256,2022-01-12 10:13:07:367
-0.6748,9.3598,2.7449,-0.4856,9.3684,2.8578,0.162,0.1385,-0.1024,0.8262,0.225,-0.1185,17.33,-35.32,-14.7,294.53,-72.81,9.64,48.84388,2.353328,91.4,NaN,,11.998,,0 / 29,,262,2022-01-12 10:13:07:373
-0.5154,9.8665,2.17,-0.5049,9.4743,2.4805,-0.2341,-0.0912,0.2633,0.8262,0.225,-0.1185,17.33,-35.32,-14.7,294.53,-72.81,9.64,48.84388,2.353328,91.4,NaN,,11.998,,0 / 29,,267,2022-01-12 10:13:07:378
-0.5154,9.8665,2.17,-0.5049,9.4743,2.4805,-0.2341,-0.0912,0.2633,0.8262,0.225,-0.1185,17.33,-35.32,-14.7,294.53,-72.81,9.64,48.84388,2.353328,91.4,NaN,,11.998,,0 / 29,,271,2022-01-12 10:13:07:382
-0.5154,9.8665,2.17,-0.5049,9.4743,2.4805,-0.2341,-0.0912,0.2633,0.8262,0.225,-0.1185,17.33,-35.32,-14.7,294.53,-72.81,9.64,48.84388,2.353328,91.4,NaN,,11.998,,0 / 29,,277,2022-01-12 10:13:07:388
-0.5154,9.8665,2.17,-0.5049,9.4743,2.4805,-0.2341,-0.0912,0.2633,0.8262,0.225,-0.1185,17.33,-35.32,-14.7,294.53,-72.81,9.64,48.84388,2.353328,91.4,NaN,,11.998,,0 / 29,,282,2022-01-12 10:13:07:393
-0.5154,9.8665,2.17,-0.5049,9.4743,2.4805,-0.2341,-0.0912,0.2633,0.614,0.0981,-0.0196,17.33,-35.32,-14.7,294.53,-72.81,9.64,48.84388,2.353328,91.4,NaN,,11.998,,0 / 29,,287,2022-01-12 10:13:07:398
-0.5154,9.8665,2.17,-0.5049,9.4743,2.4805,-0.2341,-0.0912,0.2633,0.614,0.0981,-0.0196,17.33,-35.32,-14.7,294.53,-72.81,9.64,48.84388,2.353328,91.4,NaN,,11.998,,0 / 29,,291,2022-01-12 10:13:07:402
-0.5154,9.8665,2.17,-0.5049,9.4743,2.4805,-0.2341,-0.0912,0.2633,0.614,0.0981,-0.0196,17.33,-35.32,-14.7,294.53,-72.81,9.64,48.84388,2.353328,91.4,NaN,,11.998,,0 / 29,,298,2022-01-12 10:13:07:409
-0.5154,9.8665,2.17,-0.5049,9.4743,2.4805,-0.2341,-0.0912,0.2633,0.614,0.0981,-0.0196,17.33,-35.32,-14.7,294.53,-72.81,9.64,48.84388,2.353328,91.4,NaN,,11.998,,0 / 29,,301,2022-01-12 10:13:07:412
-0.5154,9.8665,2.17,-0.5049,9.4743,2.4805,-0.2341,-0.0912,0.2633,0.614,0.0981,-0.0196,17.33,-35.32,-14.7,294.53,-72.81,9.64,48.84388,2.353328,91.4,NaN,,11.998,,0 / 29,,307,2022-01-12 10:13:07:418
-0.5154,9.8665,2.17,-0.5049,9.4743,2.4805,-0.2341,-0.0912,0.2633,0.614,0.0981,-0.0196,17.33,-35.32,-14.7,294.53,-72.81,9.64,48.84388,2.353328,91.4,NaN,,11.998,,0 / 29,,313,2022-01-12 10:13:07:424
-0.5154,9.8665,2.17,-0.5049,9.4743,2.4805,-0.2341,-0.0912,0.2633,0.614,0.0981,-0.0196,17.33,-35.32,-14.7,294.53,-72.81,9.64,48.84388,2.353328,91.4,NaN,,11.998,,0 / 29,,317,2022-01-12 10:13:07:428
-0.5154,9.8665,2.17,-0.5049,9.4743,2.4805,-0.2341,-0.0912,0.2633,0.614,0.0981,-0.0196,17.33,-35.32,-14.7,294.53,-72.81,9.64,48.84388,2.353328,91.4,NaN,,11.998,,0 / 29,,323,2022-01-12 10:13:07:434
-0.5931,9.5755,1.6226,-0.4686,9.5412,2.2175,-0.2183,0.0179,-0.0924,0.614,0.0981,-0.0196,17.33,-35.32,-14.7,294.53,-72.81,9.64,48.84388,2.353328,91.4,NaN,,11.998,,0 / 29,,326,2022-01-12 10:13:07:437
-0.5931,9.5755,1.6226,-0.4686,9.5412,2.2175,-0.2183,0.0179,-0.0924,0.614,0.0981,-0.0196,17.78,-36.53,-11.1,289.86,-76.64,11.93,48.84388,2.353328,91.4,NaN,,11.998,,0 / 29,,333,2022-01-12 10:13:07:444
-0.5931,9.5755,1.6226,-0.4686,9.5412,2.2175,-0.2183,0.0179,-0.0924,0.614,0.0981,-0.0196,17.78,-36.53,-11.1,289.86,-76.64,11.93,48.84388,2.353328,91.4,NaN,,11.998,,0 / 29,,338,2022-01-12 10:13:07:449
-0.5931,9.5755,1.6226,-0.4686,9.5412,2.2175,-0.2183,0.0179,-0.0924,0.614,0.0981,-0.0196,17.78,-36.53,-11.1,289.86,-76.64,11.93,48.84388,2.353328,91.4,NaN,,11.998,,0 / 29,,342,2022-01-12 10:13:07:453
-0.5931,9.5755,1.6226,-0.4686,9.5412,2.2175,-0.2183,0.0179,-0.0924,0.614,0.0981,-0.0196,17.78,-36.53,-11.1,289.86,-76.64,11.93,48.84388,2.353328,91.4,NaN,,11.998,,0 / 29,,347,2022-01-12 10:13:07:458
-0.5931,9.5755,1.6226,-0.4686,9.5412,2.2175,-0.2183,0.0179,-0.0924,0.614,0.0981,-0.0196,17.78,-36.53,-11.1,289.86,-76.64,11.93,48.84388,2.353328,91.4,NaN,,11.998,,0 / 29,,352,2022-01-12 10:13:07:463
-0.5931,9.5755,1.6226,-0.4686,9.5412,2.2175,-0.2183,0.0179,-0.0924,0.614,0.0981,-0.0196,17.78,-36.53,-11.1,289.86,-76.64,11.93,48.84388,2.353328,91.4,NaN,,11.998,,0 / 29,,357,2022-01-12 10:13:07:468
-0.5931,9.5755,1.6226,-0.4686,9.5412,2.2175,-0.2183,0.0179,-0.0924,0.288,-0.0395,0.1056,17.78,-36.53,-11.1,289.86,-76.64,11.93,48.84388,2.353328,91.4,NaN,,11.998,,0 / 29,,361,2022-01-12 10:13:07:472
-0.5931,9.5755,1.6226,-0.4686,9.5412,2.2175,-0.2183,0.0179,-0.0924,0.288,-0.0395,0.1056,17.78,-36.53,-11.1,289.86,-76.64,11.93,48.84388,2.353328,91.4,NaN,,11.998,,0 / 29,,368,2022-01-12 10:13:07:479
-0.5931,9.5755,1.6226,-0.4686,9.5412,2.2175,-0.2183,0.0179,-0.0924,0.288,-0.0395,0.1056,17.78,-36.53,-11.1,289.86,-76.64,11.93,48.84388,2.353328,91.4,NaN,,11.998,,0 / 29,,373,2022-01-12 10:13:07:484
-0.5931,9.5755,1.6226,-0.4686,9.5412,2.2175,-0.2183,0.0179,-0.0924,0.288,-0.0395,0.1056,17.78,-36.53,-11.1,289.86,-76.64,11.93,48.84388,2.353328,91.4,NaN,,11.998,,0 / 29,,377,2022-01-12 10:13:07:488
-0.5931,9.5755,1.6226,-0.4686,9.5412,2.2175,-0.2183,0.0179,-0.0924,0.288,-0.0395,0.1056,17.78,-36.53,-11.1,289.86,-76.64,11.93,48.84388,2.353328,91.4,NaN,,11.998,,0 / 29,,382,2022-01-12 10:13:07:493
-0.5931,9.5755,1.6226,-0.4686,9.5412,2.2175,-0.2183,0.0179,-0.0924,0.288,-0.0395,0.1056,17.78,-36.53,-11.1,289.86,-76.64,11.93,48.84388,2.353328,91.4,NaN,,11.998,,0 / 29,,386,2022-01-12 10:13:07:497
-0.5931,9.5755,1.6226,-0.4686,9.5412,2.2175,-0.2183,0.0179,-0.0924,0.288,-0.0395,0.1056,17.78,-36.53,-11.1,289.86,-76.64,11.93,48.84388,2.353328,91.4,NaN,,11.998,,0 / 29,,392,2022-01-12 10:13:07:503
-0.5931,9.5755,1.6226,-0.4686,9.5412,2.2175,-0.2183,0.0179,-0.0924,0.288,-0.0395,0.1056,17.78,-36.53,-11.1,289.86,-76.64,11.93,48.84388,2.353328,91.4,NaN,,11.998,,0 / 29,,398,2022-01-12 10:13:07:509
-0.2375,9.4448,1.861,-0.4686,9.5412,2.2175,-0.2183,0.0179,-0.0924,0.288,-0.0395,0.1056,17.78,-36.53,-11.1,289.86,-76.64,11.93,48.84388,2.353328,91.4,NaN,,11.998,,0 / 29,,401,2022-01-12 10:13:07:512
-0.2375,9.4448,1.861,-0.4686,9.5412,2.2175,-0.2183,0.0179,-0.0924,0.288,-0.0395,0.1056,17.78,-36.53,-11.1,289.86,-76.64,11.93,48.84388,2.353328,91.4,NaN,,11.998,,0 / 29,,408,2022-01-12 10:13:07:519
-0.2375,9.4448,1.861,-0.4686,9.5412,2.2175,-0.2183,0.0179,-0.0924,0.288,-0.0395,0.1056,17.78,-36.53,-11.1,289.86,-76.64,11.93,48.84388,2.353328,91.4,NaN,,11.998,,0 / 29,,411,2022-01-12 10:13:07:522
-0.2375,9.4448,1.861,-0.4686,9.5412,2.2175,-0.2183,0.0179,-0.0924,0.288,-0.0395,0.1056,17.78,-36.53,-11.1,289.86,-76.64,11.93,48.84388,2.353328,91.4,NaN,,11.998,,0 / 29,,417,2022-01-12 10:13:07:528
-0.2375,9.4448,1.861,-0.4686,9.5412,2.2175,-0.2183,0.0179,-0.0924,0.288,-0.0395,0.1056,17.78,-36.53,-11.1,289.86,-76.64,11.93,48.84388,2.353328,91.4,NaN,,11.998,,0 / 29,,422,2022-01-12 10:13:07:533
-0.2375,9.4448,1.861,-0.4686,9.5412,2.2175,-0.2183,0.0179,-0.0924,0.288,-0.0395,0.1056,17.78,-36.53,-11.1,289.86,-76.64,11.93,48.84388,2.353328,91.4,NaN,,11.998,,0 / 29,,427,2022-01-12 10:13:07:538
-0.2375,9.4448,1.861,-0.4686,9.5412,2.2175,-0.2183,0.0179,-0.0924,0.288,-0.0395,0.1056,18.15,-37.05,-9.23,283.0,-76.64,11.93,48.84388,2.353328,91.4,NaN,,11.998,,0 / 29,,433,2022-01-12 10:13:07:544
-0.2375,9.4448,1.861,-0.3716,9.6141,1.8976,-0.1616,-0.1292,-0.0791,0.288,-0.0395,0.1056,18.15,-37.05,-9.23,283.0,-76.64,11.93,48.84388,2.353328,91.4,NaN,,11.998,,0 / 29,,438,2022-01-12 10:13:07:549
-0.2375,9.4448,1.861,-0.3716,9.6141,1.8976,-0.1616,-0.1292,-0.0791,0.288,-0.0395,0.1056,18.15,-37.05,-9.23,283.0,-76.64,11.93,48.84388,2.353328,91.4,NaN,,11.998,,0 / 29,,442,2022-01-12 10:13:07:553
-0.2375,9.4448,1.861,-0.3716,9.6141,1.8976,-0.1616,-0.1292,-0.0791,0.288,-0.0395,0.1056,18.15,-37.05,-9.23,283.0,-76.64,11.93,48.84388,2.353328,91.4,NaN,,11.998,,0 / 29,,447,2022-01-12 10:13:07:558
-0.2375,9.4448,1.861,-0.3716,9.6141,1.8976,-0.1616,-0.1292,-0.0791,0.288,-0.0395,0.1056,18.15,-37.05,-9.23,283.0,-76.64,11.93,48.84388,2.353328,91.4,NaN,,11.998,,0 / 29,,452,2022-01-12 10:13:07:563
-0.2375,9.4448,1.861,-0.3716,9.6141,1.8976,-0.1616,-0.1292,-0.0791,0.288,-0.0395,0.1056,18.15,-37.05,-9.23,283.0,-76.64,11.93,48.84388,2.353328,91.4,NaN,,11.998,,0 / 29,,456,2022-01-12 10:13:07:567
-0.2375,9.4448,1.861,-0.3716,9.6141,1.8976,-0.1616,-0.1292,-0.0791,0.288,-0.0395,0.1056,18.15,-37.05,-9.23,283.0,-76.64,11.93,48.84388,2.353328,91.4,NaN,,11.998,,0 / 29,,462,2022-01-12 10:13:07:573
-0.2375,9.4448,1.861,-0.3716,9.6141,1.8976,-0.1616,-0.1292,-0.0791,0.288,-0.0395,0.1056,18.15,-37.05,-9.23,283.0,-76.64,11.93,48.84388,2.353328,91.4,NaN,,11.998,,0 / 29,,467,2022-01-12 10:13:07:578
-0.035,9.2351,1.7435,-0.3716,9.6141,1.8976,-0.1616,-0.1292,-0.0791,0.288,-0.0395,0.1056,18.15,-37.05,-9.23,283.0,-76.64,11.93,48.84388,2.353328,91.4,NaN,,11.998,,0 / 29,,472,2022-01-12 10:13:07:583
-0.035,9.2351,1.7435,-0.3716,9.6141,1.8976,-0.1616,-0.1292,-0.0791,0.288,-0.0395,0.1056,18.15,-37.05,-9.23,283.0,-76.64,11.93,48.84388,2.353328,91.4,NaN,,11.998,,0 / 29,,477,2022-01-12 10:13:07:588
-0.035,9.2351,1.7435,-0.3716,9.6141,1.8976,-0.1616,-0.1292,-0.0791,0.288,-0.0395,0.1056,18.15,-37.05,-9.23,283.0,-76.64,11.93,48.84388,2.353328,91.4,NaN,,11.998,,0 / 29,,482,2022-01-12 10:13:07:593
-0.035,9.2351,1.7435,-0.3716,9.6141,1.8976,-0.1616,-0.1292,-0.0791,0.2355,0.0304,0.0708,18.15,-37.05,-9.23,283.0,-76.64,11.93,48.84388,2.353328,91.4,NaN,,11.998,,0 / 29,,487,2022-01-12 10:13:07:598
-0.035,9.2351,1.7435,-0.3716,9.6141,1.8976,-0.1616,-0.1292,-0.0791,0.2355,0.0304,0.0708,18.15,-37.05,-9.23,283.0,-76.64,11.93,48.84388,2.353328,91.4,NaN,,11.998,,0 / 29,,491,2022-01-12 10:13:07:602
-0.035,9.2351,1.7435,-0.3716,9.6141,1.8976,-0.1616,-0.1292,-0.0791,0.2355,0.0304,0.0708,18.15,-37.05,-9.23,283.0,-76.64,11.93,48.84388,2.353328,91.4,NaN,,11.998,,0 / 29,,499,2022-01-12 10:13:07:610
-0.035,9.2351,1.7435,-0.3716,9.6141,1.8976,-0.1616,-0.1292,-0.0791,0.2355,0.0304,0.0708,18.15,-37.05,-9.23,283.0,-76.64,11.93,48.84388,2.353328,91.4,NaN,,11.998,,0 / 29,,502,2022-01-12 10:13:07:613
-0.035,9.2351,1.7435,-0.3716,9.6141,1.8976,-0.1616,-0.1292,-0.0791,0.2355,0.0304,0.0708,18.15,-37.05,-9.23,283.0,-76.64,11.93,48.84388,2.353328,91.4,NaN,,11.998,,0 / 29,,507,2022-01-12 10:13:07:618
-0.035,9.2351,1.7435,-0.3716,9.6141,1.8976,-0.1616,-0.1292,-0.0791,0.2355,0.0304,0.0708,18.15,-37.05,-9.23,283.0,-76.64,11.93,48.84388,2.353328,91.4,NaN,,11.998,,0 / 29,,512,2022-01-12 10:13:07:623
-0.035,9.2351,1.7435,-0.3716,9.6141,1.8976,-0.1616,-0.1292,-0.0791,0.2355,0.0304,0.0708,18.15,-37.05,-9.23,283.0,-76.64,11.93,48.84388,2.353328,91.4,NaN,,11.998,,0 / 29,,517,2022-01-12 10:13:07:628
-0.3356,9.2737,1.4177,-0.3348,9.6417,1.7597,-0.0269,-0.1326,0.0364,0.185,0.0043,-0.0447,18.53,-38.03,-5.85,277.61,-79.48,10.77,48.84388,2.353328,91.4,NaN,,11.998,,0 / 29,,584,2022-01-12 10:13:07:695
-0.3356,9.2737,1.4177,-0.3348,9.6417,1.7597,-0.0269,-0.1326,0.0364,0.185,0.0043,-0.0447,18.53,-38.03,-5.85,277.61,-79.48,10.77,48.84388,2.353328,91.4,NaN,,11.998,,0 / 29,,585,2022-01-12 10:13:07:696
-0.3356,9.2737,1.4177,-0.3348,9.6417,1.7597,-0.0269,-0.1326,0.0364,0.185,0.0043,-0.0447,18.53,-38.03,-5.85,277.61,-79.48,10.77,48.84388,2.353328,91.4,NaN,,11.998,,0 / 29,,585,2022-01-12 10:13:07:696
-0.3356,9.2737,1.4177,-0.3348,9.6417,1.7597,-0.0269,-0.1326,0.0364,0.185,0.0043,-0.0447,18.53,-38.03,-5.85,277.61,-79.48,10.77,48.84388,2.353328,91.4,NaN,,11.998,,0 / 29,,585,2022-01-12 10:13:07:696
-0.3356,9.2737,1.4177,-0.3348,9.6417,1.7597,-0.0269,-0.1326,0.0364,0.185,0.0043,-0.0447,18.53,-38.03,-5.85,277.61,-79.48,10.77,48.84388,2.353328,91.4,NaN,,11.998,,0 / 29,,586,2022-01-12 10:13:07:697
-0.3356,9.2737,1.4177,-0.3348,9.6417,1.7597,-0.0269,-0.1326,0.0364,0.185,0.0043,-0.0447,18.53,-38.03,-5.85,277.61,-79.48,10.77,48.84388,2.353328,91.4,NaN,,11.998,,0 / 29,,586,2022-01-12 10:13:07:697
-0.3356,9.2737,1.4177,-0.3348,9.6417,1.7597,-0.0269,-0.1326,0.0364,0.185,0.0043,-0.0447,18.53,-38.03,-5.85,277.61,-79.48,10.77,48.84388,2.353328,91.4,NaN,,11.998,,0 / 29,,586,2022-01-12 10:13:07:697
-0.3356,9.2737,1.4177,-0.3348,9.6417,1.7597,-0.0269,-0.1326,0.0364,0.185,0.0043,-0.0447,18.53,-38.03,-5.85,277.61,-79.48,10.77,48.84388,2.353328,91.4,NaN,,11.998,,0 / 29,,586,2022-01-12 10:13:07:697
-0.3356,9.2737,1.4177,-0.3348,9.6417,1.7597,-0.0269,-0.1326,0.0364,0.185,0.0043,-0.0447,18.53,-38.03,-5.85,277.61,-79.48,10.77,48.84388,2.353328,91.4,NaN,,11.998,,0 / 29,,587,2022-01-12 10:13:07:698
-0.3356,9.2737,1.4177,-0.3348,9.6417,1.7597,-0.0269,-0.1326,0.0364,0.185,0.0043,-0.0447,18.53,-38.03,-5.85,277.61,-79.48,10.77,48.84388,2.353328,91.4,NaN,,11.998,,0 / 29,,587,2022-01-12 10:13:07:698
-0.3356,9.2737,1.4177,-0.3348,9.6417,1.7597,-0.0269,-0.1326,0.0364,0.185,0.0043,-0.0447,18.53,-38.03,-5.85,277.61,-79.48,10.77,48.84388,2.353328,91.4,NaN,,11.998,,0 / 29,,587,2022-01-12 10:13:07:698
-0.3356,9.2737,1.4177,-0.3348,9.6417,1.7597,-0.0269,-0.1326,0.0364,0.185,0.0043,-0.0447,18.53,-38.03,-5.85,277.61,-79.48,10.77,48.84388,2.353328,91.4,NaN,,11.998,,0 / 29,,587,2022-01-12 10:13:07:698
-0.3356,9.2737,1.4177,-0.3348,9.6417,1.7597,-0.0269,-0.1326,0.0364,0.185,0.0043,-0.0447,18.53,-38.03,-5.85,277.61,-79.48,10.77,48.84388,2.353328,91.4,NaN,,11.998,,0 / 29,,587,2022-01-12 10:13:07:698
-0.3356,9.2737,1.4177,-0.3348,9.6417,1.7597,-0.0269,-0.1326,0.0364,0.185,0.0043,-0.0447,18.53,-38.03,-5.85,277.61,-79.48,10.77,48.84388,2.353328,91.4,NaN,,11.998,,0 / 29,,588,2022-01-12 10:13:07:699
-0.3248,9.2904,1.3125,-0.3348,9.6417,1.7597,-0.0269,-0.1326,0.0364,0.185,0.0043,-0.0447,18.53,-38.03,-5.85,277.61,-79.48,10.77,48.84388,2.353328,91.4,NaN,,11.998,,0 / 29,,592,2022-01-12 10:13:07:703
-0.3248,9.2904,1.3125,-0.3348,9.6417,1.7597,-0.0269,-0.1326,0.0364,0.185,0.0043,-0.0447,18.53,-38.03,-5.85,277.61,-79.48,10.77,48.84388,2.353328,91.4,NaN,,11.998,,0 / 29,,597,2022-01-12 10:13:07:708
-0.3248,9.2904,1.3125,-0.3348,9.6417,1.7597,-0.0269,-0.1326,0.0364,0.185,0.0043,-0.0447,18.53,-38.03,-5.85,277.61,-79.48,10.77,48.84388,2.353328,91.4,NaN,,11.998,,0 / 29,,601,2022-01-12 10:13:07:712
-0.3248,9.2904,1.3125,-0.3348,9.6417,1.7597,-0.0269,-0.1326,0.0364,0.185,0.0043,-0.0447,18.53,-38.03,-5.85,277.61,-79.48,10.77,48.84388,2.353328,91.4,NaN,,11.998,,0 / 29,,606,2022-01-12 10:13:07:717
-0.3248,9.2904,1.3125,-0.3348,9.6417,1.7597,-0.0269,-0.1326,0.0364,0.185,0.0043,-0.0447,18.53,-38.03,-5.85,277.61,-79.48,10.77,48.84388,2.353328,91.4,NaN,,11.998,,0 / 29,,612,2022-01-12 10:13:07:723
-0.3248,9.2904,1.3125,-0.3348,9.6417,1.7597,-0.0269,-0.1326,0.0364,0.185,0.0043,-0.0447,18.53,-38.03,-5.85,277.61,-79.48,10.77,48.84388,2.353328,91.4,NaN,,11.998,,0 / 29,,617,2022-01-12 10:13:07:728
-0.3248,9.2904,1.3125,-0.3964,9.6671,1.5999,0.0801,-0.2469,-0.3482,0.185,0.0043,-0.0447,18.53,-38.03,-5.85,277.61,-79.48,10.77,48.84388,2.353328,91.4,NaN,,11.998,,0 / 29,,623,2022-01-12 10:13:07:734
-0.3248,9.2904,1.3125,-0.3964,9.6671,1.5999,0.0801,-0.2469,-0.3482,0.185,0.0043,-0.0447,18.53,-38.03,-5.85,277.61,-79.48,10.77,48.84388,2.353328,91.4,NaN,,11.998,,0 / 29,,627,2022-01-12 10:13:07:738
-0.3248,9.2904,1.3125,-0.3964,9.6671,1.5999,0.0801,-0.2469,-0.3482,0.185,0.0043,-0.0447,18.53,-38.4,-4.73,279.55,-80.32,13.92,48.84388,2.353328,91.4,NaN,,11.998,,0 / 29,,632,2022-01-12 10:13:07:743
-0.3248,9.2904,1.3125,-0.3964,9.6671,1.5999,0.0801,-0.2469,-0.3482,0.185,0.0043,-0.0447,18.53,-38.4,-4.73,279.55,-80.32,13.92,48.84388,2.353328,91.4,NaN,,11.998,,0 / 29,,638,2022-01-12 10:13:07:749
-0.3248,9.2904,1.3125,-0.3964,9.6671,1.5999,0.0801,-0.2469,-0.3482,0.185,0.0043,-0.0447,18.53,-38.4,-4.73,279.55,-80.32,13.92,48.84388,2.353328,91.4,NaN,,11.998,,0 / 29,,641,2022-01-12 10:13:07:752
-0.3248,9.2904,1.3125,-0.3964,9.6671,1.5999,0.0801,-0.2469,-0.3482,0.185,0.0043,-0.0447,18.53,-38.4,-4.73,279.55,-80.32,13.92,48.84388,2.353328,91.4,NaN,,11.998,,0 / 29,,646,2022-01-12 10:13:07:757
-0.3248,9.2904,1.3125,-0.3964,9.6671,1.5999,0.0801,-0.2469,-0.3482,0.185,0.0043,-0.0447,18.53,-38.4,-4.73,279.55,-80.32,13.92,48.84388,2.353328,91.4,NaN,,11.998,,0 / 29,,652,2022-01-12 10:13:07:763
-0.3248,9.2904,1.3125,-0.3964,9.6671,1.5999,0.0801,-0.2469,-0.3482,0.185,0.0043,-0.0447,18.53,-38.4,-4.73,279.55,-80.32,13.92,48.84388,2.353328,91.4,NaN,,11.998,,0 / 29,,658,2022-01-12 10:13:07:769
-0.3248,9.2904,1.3125,-0.3964,9.6671,1.5999,0.0801,-0.2469,-0.3482,0.185,0.0043,-0.0447,18.53,-38.4,-4.73,279.55,-80.32,13.92,48.84388,2.353328,91.4,NaN,,11.998,,0 / 29,,662,2022-01-12 10:13:07:773
-0.3248,9.2904,1.3125,-0.3964,9.6671,1.5999,0.0801,-0.2469,-0.3482,0.185,0.0043,-0.0447,18.53,-38.4,-4.73,279.55,-80.32,13.92,48.84388,2.353328,91.4,NaN,,11.998,,0 / 29,,667,2022-01-12 10:13:07:778
-0.3344,9.5635,1.0944,-0.3964,9.6671,1.5999,0.0801,-0.2469,-0.3482,0.185,0.0043,-0.0447,18.53,-38.4,-4.73,279.55,-80.32,13.92,48.84388,2.353328,91.4,NaN,,11.998,,0 / 29,,671,2022-01-12 10:13:07:782
-0.3344,9.5635,1.0944,-0.3964,9.6671,1.5999,0.0801,-0.2469,-0.3482,0.185,0.0043,-0.0447,18.53,-38.4,-4.73,279.55,-80.32,13.92,48.84388,2.353328,91.4,NaN,,11.998,,0 / 29,,677,2022-01-12 10:13:07:788
-0.3344,9.5635,1.0944,-0.3964,9.6671,1.5999,0.0801,-0.2469,-0.3482,0.185,0.0043,-0.0447,18.53,-38.4,-4.73,279.55,-80.32,13.92,48.84388,2.353328,91.4,NaN,,11.998,,0 / 29,,682,2022-01-12 10:13:07:793
-0.3344,9.5635,1.0944,-0.3964,9.6671,1.5999,0.0801,-0.2469,-0.3482,0.185,0.0043,-0.0447,18.53,-38.4,-4.73,279.55,-80.32,13.92,48.84388,2.353328,91.4,NaN,,11.998,,0 / 29,,686,2022-01-12 10:13:07:797
-0.3344,9.5635,1.0944,-0.3964,9.6671,1.5999,0.0801,-0.2469,-0.3482,0.185,0.0043,-0.0447,18.53,-38.4,-4.73,279.55,-80.32,13.92,48.84388,2.353328,91.4,NaN,,11.998,,0 / 29,,692,2022-01-12 10:13:07:803
-0.3344,9.5635,1.0944,-0.4169,9.6707,1.5731,0.0108,-0.2808,-0.1759,0.0061,0.0173,-0.031,18.53,-38.4,-4.73,279.55,-80.32,13.92,48.84388,2.353328,91.4,NaN,,11.998,,0 / 29,,697,2022-01-12 10:13:07:808
-0.3344,9.5635,1.0944,-0.4169,9.6707,1.5731,0.0108,-0.2808,-0.1759,0.0061,0.0173,-0.031,18.53,-38.4,-4.73,279.55,-80.32,13.92,48.84388,2.353328,91.4,NaN,,11.998,,0 / 29,,702,2022-01-12 10:13:07:813
-0.3344,9.5635,1.0944,-0.4169,9.6707,1.5731,0.0108,-0.2808,-0.1759,0.0061,0.0173,-0.031,18.53,-38.4,-4.73,279.55,-80.32,13.92,48.84388,2.353328,91.4,NaN,,11.998,,0 / 29,,707,2022-01-12 10:13:07:818
-0.3344,9.5635,1.0944,-0.4169,9.6707,1.5731,0.0108,-0.2808,-0.1759,0.0061,0.0173,-0.031,18.53,-38.4,-4.73,279.55,-80.32,13.92,48.84388,2.353328,91.4,NaN,,11.998,,0 / 29,,712,2022-01-12 10:13:07:823
-0.3344,9.5635,1.0944,-0.4169,9.6707,1.5731,0.0108,-0.2808,-0.1759,0.0061,0.0173,-0.031,18.53,-38.4,-4.73,279.55,-80.32,13.92,48.84388,2.353328,91.4,NaN,,11.998,,0 / 29,,716,2022-01-12 10:13:07:827
-0.3344,9.5635,1.0944,-0.4169,9.6707,1.5731,0.0108,-0.2808,-0.1759,0.0061,0.0173,-0.031,18.53,-38.4,-4.73,279.55,-80.32,13.92,48.84388,2.353328,91.4,NaN,,11.998,,0 / 29,,722,2022-01-12 10:13:07:833
-0.3344,9.5635,1.0944,-0.4169,9.6707,1.5731,0.0108,-0.2808,-0.1759,0.0061,0.0173,-0.031,18.53,-38.4,-4.73,279.55,-80.32,13.92,48.84388,2.353328,91.4,NaN,,11.998,,0 / 29,,727,2022-01-12 10:13:07:838
-0.5632,9.7286,1.7363,-0.4169,9.6707,1.5731,0.0108,-0.2808,-0.1759,0.0061,0.0173,-0.031,18.38,-38.93,-3.3,273.22,-80.45,14.84,48.84388,2.353328,91.4,NaN,,11.998,,0 / 29,,731,2022-01-12 10:13:07:842
-0.5632,9.7286,1.7363,-0.4169,9.6707,1.5731,0.0108,-0.2808,-0.1759,0.0061,0.0173,-0.031,18.38,-38.93,-3.3,273.22,-80.45,14.84,48.84388,2.353328,91.4,NaN,,11.998,,0 / 29,,738,2022-01-12 10:13:07:849
-0.5632,9.7286,1.7363,-0.4169,9.6707,1.5731,0.0108,-0.2808,-0.1759,0.0061,0.0173,-0.031,18.38,-38.93,-3.3,273.22,-80.45,14.84,48.84388,2.353328,91.4,NaN,,11.998,,0 / 29,,742,2022-01-12 10:13:07:853
-0.5632,9.7286,1.7363,-0.4169,9.6707,1.5731,0.0108,-0.2808,-0.1759,0.0061,0.0173,-0.031,18.38,-38.93,-3.3,273.22,-80.45,14.84,48.84388,2.353328,91.4,NaN,,11.998,,0 / 29,,746,2022-01-12 10:13:07:857
-0.5632,9.7286,1.7363,-0.4169,9.6707,1.5731,0.0108,-0.2808,-0.1759,0.0061,0.0173,-0.031,18.38,-38.93,-3.3,273.22,-80.45,14.84,48.84388,2.353328,91.4,NaN,,11.998,,0 / 29,,752,2022-01-12 10:13:07:863
-0.5632,9.7286,1.7363,-0.4269,9.6711,1.5678,0.0727,0.0207,-0.4505,0.0061,0.0173,-0.031,18.38,-38.93,-3.3,273.22,-80.45,14.84,48.84388,2.353328,91.4,NaN,,11.998,,0 / 29,,756,2022-01-12 10:13:07:867
-0.5632,9.7286,1.7363,-0.4269,9.6711,1.5678,0.0727,0.0207,-0.4505,0.0061,0.0173,-0.031,18.38,-38.93,-3.3,273.22,-80.45,14.84,48.84388,2.353328,91.4,NaN,,11.998,,0 / 29,,762,2022-01-12 10:13:07:873
-0.5632,9.7286,1.7363,-0.4269,9.6711,1.5678,0.0727,0.0207,-0.4505,0.0061,0.0173,-0.031,18.38,-38.93,-3.3,273.22,-80.45,14.84,48.84388,2.353328,91.4,NaN,,11.998,,0 / 29,,766,2022-01-12 10:13:07:877
-0.5632,9.7286,1.7363,-0.4269,9.6711,1.5678,0.0727,0.0207,-0.4505,0.0061,0.0173,-0.031,18.38,-38.93,-3.3,273.22,-80.45,14.84,48.84388,2.353328,91.4,NaN,,11.998,,0 / 29,,772,2022-01-12 10:13:07:883
-0.5632,9.7286,1.7363,-0.4269,9.6711,1.5678,0.0727,0.0207,-0.4505,0.0061,0.0173,-0.031,18.38,-38.93,-3.3,273.22,-80.45,14.84,48.84388,2.353328,91.4,NaN,,11.998,,0 / 29,,777,2022-01-12 10:13:07:888
-0.5632,9.7286,1.7363,-0.4269,9.6711,1.5678,0.0727,0.0207,-0.4505,0.0061,0.0173,-0.031,18.38,-38.93,-3.3,273.22,-80.45,14.84,48.84388,2.353328,91.4,NaN,,11.998,,0 / 29,,782,2022-01-12 10:13:07:893
-0.5632,9.7286,1.7363,-0.4269,9.6711,1.5678,0.0727,0.0207,-0.4505,0.0061,0.0173,-0.031,18.38,-38.93,-3.3,273.22,-80.45,14.84,48.84388,2.353328,91.4,NaN,,11.998,,0 / 29,,786,2022-01-12 10:13:07:897
-0.5632,9.7286,1.7363,-0.4269,9.6711,1.5678,0.0727,0.0207,-0.4505,0.0061,0.0173,-0.031,18.38,-38.93,-3.3,273.22,-80.45,14.84,48.84388,2.353328,91.4,NaN,,11.998,,0 / 29,,792,2022-01-12 10:13:07:903
-0.5632,9.7286,1.7363,-0.4269,9.6711,1.5678,0.0727,0.0207,-0.4505,0.0061,0.0173,-0.031,18.38,-38.93,-3.3,273.22,-80.45,14.84,48.84388,2.353328,91.4,NaN,,11.998,,0 / 29,,796,2022-01-12 10:13:07:907
-0.5632,9.7286,1.7363,-0.4269,9.6711,1.5678,0.0727,0.0207,-0.4505,0.0061,0.0173,-0.031,18.38,-38.93,-3.3,273.22,-80.45,14.84,48.84388,2.353328,91.4,NaN,,11.998,,0 / 29,,802,2022-01-12 10:13:07:913
-0.2758,9.6963,1.4333,-0.4269,9.6711,1.5678,0.0727,0.0207,-0.4505,0.0061,0.0173,-0.031,18.38,-38.93,-3.3,273.22,-80.45,14.84,48.84388,2.353328,91.4,NaN,,11.998,,0 / 29,,807,2022-01-12 10:13:07:918
-0.2758,9.6963,1.4333,-0.4269,9.6711,1.5678,0.0727,0.0207,-0.4505,0.0061,0.0173,-0.031,18.38,-38.93,-3.3,273.22,-80.45,14.84,48.84388,2.353328,91.4,NaN,,11.998,,0 / 29,,812,2022-01-12 10:13:07:923
-0.2758,9.6963,1.4333,-0.4269,9.6711,1.5678,0.0727,0.0207,-0.4505,0.0061,0.0173,-0.031,18.38,-38.93,-3.3,273.22,-80.45,14.84,48.84388,2.353328,91.4,NaN,,11.998,,0 / 29,,816,2022-01-12 10:13:07:927
-0.2758,9.6963,1.4333,-0.4269,9.6711,1.5678,0.0727,0.0207,-0.4505,0.0061,0.0173,-0.031,18.38,-38.93,-3.3,273.22,-80.45,14.84,48.84388,2.353328,91.4,NaN,,11.998,,0 / 29,,822,2022-01-12 10:13:07:933
-0.2758,9.6963,1.4333,-0.4269,9.6711,1.5678,0.0727,0.0207,-0.4505,0.0256,0.0306,-0.0262,18.38,-38.93,-3.3,273.22,-80.45,14.84,48.84388,2.353328,91.4,NaN,,11.998,,0 / 29,,827,2022-01-12 10:13:07:938
-0.2758,9.6963,1.4333,-0.4269,9.6711,1.5678,0.0727,0.0207,-0.4505,0.0256,0.0306,-0.0262,18.3,-38.85,-2.77,273.65,-80.46,15.23,48.84388,2.353328,91.4,NaN,,11.998,,0 / 29,,832,2022-01-12 10:13:07:943
-0.2758,9.6963,1.4333,-0.4269,9.6711,1.5678,0.0727,0.0207,-0.4505,0.0256,0.0306,-0.0262,18.3,-38.85,-2.77,273.65,-80.46,15.23,48.84388,2.353328,91.4,NaN,,11.998,,0 / 29,,836,2022-01-12 10:13:07:947
-0.2758,9.6963,1.4333,-0.4269,9.6711,1.5678,0.0727,0.0207,-0.4505,0.0256,0.0306,-0.0262,18.3,-38.85,-2.77,273.65,-80.46,15.23,48.84388,2.353328,91.4,NaN,,11.998,,0 / 29,,842,2022-01-12 10:13:07:953
-0.2758,9.6963,1.4333,-0.4269,9.6711,1.5678,0.0727,0.0207,-0.4505,0.0256,0.0306,-0.0262,18.3,-38.85,-2.77,273.65,-80.46,15.23,48.84388,2.353328,91.4,NaN,,11.998,,0 / 29,,846,2022-01-12 10:13:07:957
-0.2758,9.6963,1.4333,-0.4269,9.6711,1.5678,0.0727,0.0207,-0.4505,0.0256,0.0306,-0.0262,18.3,-38.85,-2.77,273.65,-80.46,15.23,48.84388,2.353328,91.4,NaN,,11.998,,0 / 29,,851,2022-01-12 10:13:07:962
-0.2758,9.6963,1.4333,-0.4269,9.6711,1.5678,0.0727,0.0207,-0.4505,0.0256,0.0306,-0.0262,18.3,-38.85,-2.77,273.65,-80.46,15.23,48.84388,2.353328,91.4,NaN,,11.998,,0 / 29,,857,2022-01-12 10:13:07:968
-0.2758,9.6963,1.4333,-0.4269,9.6711,1.5678,0.0727,0.0207,-0.4505,0.0256,0.0306,-0.0262,18.3,-38.85,-2.77,273.65,-80.46,15.23,48.84388,2.353328,91.4,NaN,,11.998,,0 / 29,,861,2022-01-12 10:13:07:972
-0.912,9.7023,1.3232,-0.4629,9.6709,1.5589,0.0896,0.1134,-0.1552,0.0256,0.0306,-0.0262,18.3,-38.85,-2.77,273.65,-80.46,15.23,48.84388,2.353328,91.4,NaN,,11.998,,0 / 29,,867,2022-01-12 10:13:07:978
-0.912,9.7023,1.3232,-0.4629,9.6709,1.5589,0.0896,0.1134,-0.1552,0.0256,0.0306,-0.0262,18.3,-38.85,-2.77,273.65,-80.46,15.23,48.84388,2.353328,91.4,NaN,,11.998,,0 / 29,,871,2022-01-12 10:13:07:982
-0.912,9.7023,1.3232,-0.4629,9.6709,1.5589,0.0896,0.1134,-0.1552,0.0256,0.0306,-0.0262,18.3,-38.85,-2.77,273.65,-80.46,15.23,48.84388,2.353328,91.4,NaN,,11.998,,0 / 29,,882,2022-01-12 10:13:07:993
-0.912,9.7023,1.3232,-0.4629,9.6709,1.5589,0.0896,0.1134,-0.1552,0.0256,0.0306,-0.0262,18.3,-38.85,-2.77,273.65,-80.46,15.23,48.84388,2.353328,91.4,NaN,,11.998,,0 / 29,,884,2022-01-12 10:13:07:995
-0.912,9.7023,1.3232,-0.4629,9.6709,1.5589,0.0896,0.1134,-0.1552,0.0256,0.0306,-0.0262,18.3,-38.85,-2.77,273.65,-80.46,15.23,48.84388,2.353328,91.4,NaN,,11.998,,0 / 29,,888,2022-01-12 10:13:07:999
-0.912,9.7023,1.3232,-0.4629,9.6709,1.5589,0.0896,0.1134,-0.1552,0.0256,0.0306,-0.0262,18.3,-38.85,-2.77,273.65,-80.46,15.23,48.84388,2.353328,91.4,NaN,,11.998,,0 / 29,,891,2022-01-12 10:13:08:002
-0.912,9.7023,1.3232,-0.4629,9.6709,1.5589,0.0896,0.1134,-0.1552,0.0256,0.0306,-0.0262,18.3,-38.85,-2.77,273.65,-80.46,15.23,48.84388,2.353328,91.4,NaN,,11.998,,0 / 29,,897,2022-01-12 10:13:08:008
-0.912,9.7023,1.3232,-0.4629,9.6709,1.5589,0.0896,0.1134,-0.1552,0.0256,0.0306,-0.0262,18.3,-38.85,-2.77,273.65,-80.46,15.23,48.84388,2.353328,91.4,NaN,,11.998,,0 / 29,,901,2022-01-12 10:13:08:012
-0.912,9.7023,1.3232,-0.4629,9.6709,1.5589,0.0896,0.1134,-0.1552,0.0256,0.0306,-0.0262,18.3,-38.85,-2.77,273.65,-80.46,15.23,48.84388,2.353328,91.4,NaN,,11.998,,0 / 29,,907,2022-01-12 10:13:08:018
-0.912,9.7023,1.3232,-0.4629,9.6709,1.5589,0.0896,0.1134,-0.1552,0.0256,0.0306,-0.0262,18.3,-38.85,-2.77,273.65,-80.46,15.23,48.84388,2.353328,91.4,NaN,,11.998,,0 / 29,,912,2022-01-12 10:13:08:023
-0.912,9.7023,1.3232,-0.4629,9.6709,1.5589,0.0896,0.1134,-0.1552,0.0256,0.0306,-0.0262,18.3,-38.85,-2.77,273.65,-80.46,15.23,48.84388,2.353328,91.4,NaN,,11.998,,0 / 29,,916,2022-01-12 10:13:08:027
-0.912,9.7023,1.3232,-0.4629,9.6709,1.5589,0.0896,0.1134,-0.1552,0.0256,0.0306,-0.0262,18.3,-38.85,-2.77,273.65,-80.46,15.23,48.84388,2.353328,91.4,NaN,,11.998,,0 / 29,,922,2022-01-12 10:13:08:033
-0.4172,9.6688,1.3699,-0.4709,9.6701,1.5614,-0.3246,0.056,-0.258,0.0256,0.0306,-0.0262,18.3,-38.85,-2.77,273.65,-80.46,15.23,48.84388,2.353328,91.4,NaN,,11.998,,0 / 29,,926,2022-01-12 10:13:08:037
-0.4172,9.6688,1.3699,-0.4709,9.6701,1.5614,-0.3246,0.056,-0.258,0.0256,0.0306,-0.0262,17.93,-38.93,-2.1,271.82,-80.43,16.78,48.84388,2.353328,91.4,NaN,,11.998,,0 / 29,,932,2022-01-12 10:13:08:043
-0.4172,9.6688,1.3699,-0.4709,9.6701,1.5614,-0.3246,0.056,-0.258,0.0256,0.0306,-0.0262,17.93,-38.93,-2.1,271.82,-80.43,16.78,48.84388,2.353328,91.4,NaN,,11.998,,0 / 29,,937,2022-01-12 10:13:08:048
-0.4172,9.6688,1.3699,-0.4709,9.6701,1.5614,-0.3246,0.056,-0.258,0.0256,0.0306,-0.0262,17.93,-38.93,-2.1,271.82,-80.43,16.78,48.84388,2.353328,91.4,NaN,,11.998,,0 / 29,,941,2022-01-12 10:13:08:052
-0.4172,9.6688,1.3699,-0.4709,9.6701,1.5614,-0.3246,0.056,-0.258,0.0256,0.0306,-0.0262,17.93,-38.93,-2.1,271.82,-80.43,16.78,48.84388,2.353328,91.4,NaN,,11.998,,0 / 29,,947,2022-01-12 10:13:08:058
-0.4172,9.6688,1.3699,-0.4709,9.6701,1.5614,-0.3246,0.056,-0.258,0.0256,0.0306,-0.0262,17.93,-38.93,-2.1,271.82,-80.43,16.78,48.84388,2.353328,91.4,NaN,,11.998,,0 / 29,,951,2022-01-12 10:13:08:062
-0.4172,9.6688,1.3699,-0.4709,9.6701,1.5614,-0.3246,0.056,-0.258,-0.0706,0.0252,0.0332,17.93,-38.93,-2.1,271.82,-80.43,16.78,48.84388,2.353328,91.4,NaN,,11.998,,0 / 29,,957,2022-01-12 10:13:08:068
-0.4172,9.6688,1.3699,-0.4709,9.6701,1.5614,-0.3246,0.056,-0.258,-0.0706,0.0252,0.0332,17.93,-38.93,-2.1,271.82,-80.43,16.78,48.84388,2.353328,91.4,NaN,,11.998,,0 / 29,,962,2022-01-12 10:13:08:073
-0.4172,9.6688,1.3699,-0.4709,9.6701,1.5614,-0.3246,0.056,-0.258,-0.0706,0.0252,0.0332,17.93,-38.93,-2.1,271.82,-80.43,16.78,48.84388,2.353328,91.4,NaN,,11.998,,0 / 29,,966,2022-01-12 10:13:08:077
-0.4172,9.6688,1.3699,-0.4709,9.6701,1.5614,-0.3246,0.056,-0.258,-0.0706,0.0252,0.0332,17.93,-38.93,-2.1,271.82,-80.43,16.78,48.84388,2.353328,91.4,NaN,,11.998,,0 / 29,,972,2022-01-12 10:13:08:083
-0.4172,9.6688,1.3699,-0.4709,9.6701,1.5614,-0.3246,0.056,-0.258,-0.0706,0.0252,0.0332,17.93,-38.93,-2.1,271.82,-80.43,16.78,48.84388,2.353328,91.4,NaN,,11.998,,0 / 29,,977,2022-01-12 10:13:08:088
-0.4172,9.6688,1.3699,-0.4709,9.6701,1.5614,-0.3246,0.056,-0.258,-0.0706,0.0252,0.0332,17.93,-38.93,-2.1,271.82,-80.43,16.78,48.84388,2.353328,91.4,NaN,,11.998,,0 / 29,,981,2022-01-12 10:13:08:092
-0.4172,9.6688,1.3699,-0.4709,9.6701,1.5614,-0.3246,0.056,-0.258,-0.0706,0.0252,0.0332,17.93,-38.93,-2.1,271.82,-80.43,16.78,48.84388,2.353328,91.4,NaN,,11.998,,0 / 29,,987,2022-01-12 10:13:08:098
-0.4172,9.6688,1.3699,-0.4709,9.6701,1.5614,-0.3246,0.056,-0.258,-0.0706,0.0252,0.0332,17.93,-38.93,-2.1,271.82,-80.43,16.78,48.84388,2.353328,91.4,NaN,,11.998,,0 / 29,,991,2022-01-12 10:13:08:102
-0.4172,9.6688,1.3699,-0.4709,9.6701,1.5614,-0.3246,0.056,-0.258,-0.0706,0.0252,0.0332,17.93,-38.93,-2.1,271.82,-80.43,16.78,48.84388,2.353328,91.4,NaN,,11.998,,0 / 29,,996,2022-01-12 10:13:08:107
-0.5034,9.7286,1.879,-0.4567,9.6707,1.5617,-0.0052,0.0675,-0.1442,-0.0706,0.0252,0.0332,17.93,-38.93,-2.1,271.82,-80.43,16.78,48.84388,2.353328,91.4,NaN,,11.998,,0 / 29,,1002,2022-01-12 10:13:08:113
-0.5034,9.7286,1.879,-0.4567,9.6707,1.5617,-0.0052,0.0675,-0.1442,-0.0706,0.0252,0.0332,17.93,-38.93,-2.1,271.82,-80.43,16.78,48.84388,2.353328,91.4,NaN,,11.998,,0 / 29,,1006,2022-01-12 10:13:08:117
-0.5034,9.7286,1.879,-0.4567,9.6707,1.5617,-0.0052,0.0675,-0.1442,-0.0706,0.0252,0.0332,17.93,-38.93,-2.1,271.82,-80.43,16.78,48.84388,2.353328,91.4,NaN,,11.998,,0 / 29,,1012,2022-01-12 10:13:08:123
-0.5034,9.7286,1.879,-0.4567,9.6707,1.5617,-0.0052,0.0675,-0.1442,-0.0706,0.0252,0.0332,17.93,-38.93,-2.1,271.82,-80.43,16.78,48.84388,2.353328,91.4,NaN,,11.998,,0 / 29,,1016,2022-01-12 10:13:08:127
-0.5034,9.7286,1.879,-0.4567,9.6707,1.5617,-0.0052,0.0675,-0.1442,-0.0706,0.0252,0.0332,17.93,-38.93,-2.1,271.82,-80.43,16.78,48.84388,2.353328,91.4,NaN,,11.998,,0 / 29,,1022,2022-01-12 10:13:08:133
-0.5034,9.7286,1.879,-0.4567,9.6707,1.5617,-0.0052,0.0675,-0.1442,-0.0706,0.0252,0.0332,17.93,-38.93,-2.1,271.82,-80.43,16.78,48.84388,2.353328,91.4,NaN,,11.998,,0 / 29,,1027,2022-01-12 10:13:08:138
-0.5034,9.7286,1.879,-0.4567,9.6707,1.5617,-0.0052,0.0675,-0.1442,-0.0706,0.0252,0.0332,17.93,-38.93,-2.1,271.82,-80.43,16.78,48.84388,2.353328,91.4,NaN,,11.998,,0 / 29,,1032,2022-01-12 10:13:08:143
-0.5034,9.7286,1.879,-0.4567,9.6707,1.5617,-0.0052,0.0675,-0.1442,-0.0706,0.0252,0.0332,17.93,-39.0,-2.03,271.39,-80.45,16.3,48.84388,2.353328,91.4,NaN,,11.998,,0 / 29,,1036,2022-01-12 10:13:08:147
-0.5034,9.7286,1.879,-0.4567,9.6707,1.5617,-0.0052,0.0675,-0.1442,-0.0706,0.0252,0.0332,17.93,-39.0,-2.03,271.39,-80.45,16.3,48.84388,2.353328,91.4,NaN,,11.998,,0 / 29,,1042,2022-01-12 10:13:08:153
-0.5034,9.7286,1.879,-0.4567,9.6707,1.5617,-0.0052,0.0675,-0.1442,-0.0706,0.0252,0.0332,17.93,-39.0,-2.03,271.39,-80.45,16.3,48.84388,2.353328,91.4,NaN,,11.998,,0 / 29,,1046,2022-01-12 10:13:08:157
-0.5034,9.7286,1.879,-0.4567,9.6707,1.5617,-0.0052,0.0675,-0.1442,-0.0706,0.0252,0.0332,17.93,-39.0,-2.03,271.39,-80.45,16.3,48.84388,2.353328,91.4,NaN,,11.998,,0 / 29,,1052,2022-01-12 10:13:08:163
-0.5034,9.7286,1.879,-0.4567,9.6707,1.5617,-0.0052,0.0675,-0.1442,-0.0706,0.0252,0.0332,17.93,-39.0,-2.03,271.39,-80.45,16.3,48.84388,2.353328,91.4,NaN,,11.998,,0 / 29,,1056,2022-01-12 10:13:08:167
-0.3646,9.7358,1.3352,-0.4549,9.67,1.5668,0.0127,0.0595,0.1836,-0.0706,0.0252,0.0332,17.93,-39.0,-2.03,271.39,-80.45,16.3,48.84388,2.353328,91.4,NaN,,11.998,,0 / 29,,1061,2022-01-12 10:13:08:172
-0.3646,9.7358,1.3352,-0.4549,9.67,1.5668,0.0127,0.0595,0.1836,-0.0706,0.0252,0.0332,17.93,-39.0,-2.03,271.39,-80.45,16.3,48.84388,2.353328,91.4,NaN,,11.998,,0 / 29,,1066,2022-01-12 10:13:08:177
-0.3646,9.7358,1.3352,-0.4549,9.67,1.5668,0.0127,0.0595,0.1836,-0.0706,0.0252,0.0332,17.93,-39.0,-2.03,271.39,-80.45,16.3,48.84388,2.353328,91.4,NaN,,11.998,,0 / 29,,1072,2022-01-12 10:13:08:183
-0.3646,9.7358,1.3352,-0.4549,9.67,1.5668,0.0127,0.0595,0.1836,-0.0706,0.0252,0.0332,17.93,-39.0,-2.03,271.39,-80.45,16.3,48.84388,2.353328,91.4,NaN,,11.998,,0 / 29,,1077,2022-01-12 10:13:08:188
-0.3646,9.7358,1.3352,-0.4549,9.67,1.5668,0.0127,0.0595,0.1836,-0.0706,0.0252,0.0332,17.93,-39.0,-2.03,271.39,-80.45,16.3,48.84388,2.353328,91.4,NaN,,11.998,,0 / 29,,1082,2022-01-12 10:13:08:193
-0.3646,9.7358,1.3352,-0.4549,9.67,1.5668,0.0127,0.0595,0.1836,0.0068,-0.0059,0.0186,17.93,-39.0,-2.03,271.39,-80.45,16.3,48.84388,2.353328,91.4,NaN,,11.998,,0 / 29,,1086,2022-01-12 10:13:08:197
-0.3646,9.7358,1.3352,-0.4549,9.67,1.5668,0.0127,0.0595,0.1836,0.0068,-0.0059,0.0186,17.93,-39.0,-2.03,271.39,-80.45,16.3,48.84388,2.353328,91.4,NaN,,11.998,,0 / 29,,1094,2022-01-12 10:13:08:205
-0.3646,9.7358,1.3352,-0.4549,9.67,1.5668,0.0127,0.0595,0.1836,0.0068,-0.0059,0.0186,17.93,-39.0,-2.03,271.39,-80.45,16.3,48.84388,2.353328,91.4,NaN,,11.998,,0 / 29,,1096,2022-01-12 10:13:08:207
-0.3646,9.7358,1.3352,-0.4549,9.67,1.5668,0.0127,0.0595,0.1836,0.0068,-0.0059,0.0186,17.93,-39.0,-2.03,271.39,-80.45,16.3,48.84388,2.353328,91.4,NaN,,11.998,,0 / 29,,1101,2022-01-12 10:13:08:212
-0.3646,9.7358,1.3352,-0.4549,9.67,1.5668,0.0127,0.0595,0.1836,0.0068,-0.0059,0.0186,17.93,-39.0,-2.03,271.39,-80.45,16.3,48.84388,2.353328,91.4,NaN,,11.998,,0 / 29,,1107,2022-01-12 10:13:08:218
-0.3646,9.7358,1.3352,-0.4549,9.67,1.5668,0.0127,0.0595,0.1836,0.0068,-0.0059,0.0186,17.93,-39.0,-2.03,271.39,-80.45,16.3,48.84388,2.353328,91.4,NaN,,11.998,,0 / 29,,1112,2022-01-12 10:13:08:223
-0.3646,9.7358,1.3352,-0.4549,9.67,1.5668,0.0127,0.0595,0.1836,0.0068,-0.0059,0.0186,17.93,-39.0,-2.03,271.39,-80.45,16.3,48.84388,2.353328,91.4,NaN,,11.998,,0 / 29,,1116,2022-01-12 10:13:08:227
-0.3646,9.7358,1.3352,-0.4549,9.67,1.5668,0.0127,0.0595,0.1836,0.0068,-0.0059,0.0186,17.93,-39.0,-2.03,271.39,-80.45,16.3,48.84388,2.353328,91.4,NaN,,11.998,,0 / 29,,1121,2022-01-12 10:13:08:232
-0.3646,9.7358,1.3352,-0.4549,9.67,1.5668,0.0127,0.0595,0.1836,0.0068,-0.0059,0.0186,17.93,-39.0,-2.03,271.39,-80.45,16.3,48.84388,2.353328,91.4,NaN,,11.998,,0 / 29,,1127,2022-01-12 10:13:08:238
-0.4555,9.7875,1.456,-0.4549,9.67,1.5668,0.0127,0.0595,0.1836,0.0068,-0.0059,0.0186,17.93,-38.85,-1.65,271.22,-80.42,16.19,48.84388,2.353328,91.4,NaN,,11.998,,0 / 29,,1132,2022-01-12 10:13:08:243
-0.4555,9.7875,1.456,-0.4549,9.67,1.5668,0.0127,0.0595,0.1836,0.0068,-0.0059,0.0186,17.93,-38.85,-1.65,271.22,-80.42,16.19,48.84388,2.353328,91.4,NaN,,11.998,,0 / 29,,1136,2022-01-12 10:13:08:247
-0.4555,9.7875,1.456,-0.4549,9.67,1.5668,0.0127,0.0595,0.1836,0.0068,-0.0059,0.0186,17.93,-38.85,-1.65,271.22,-80.42,16.19,48.84388,2.353328,91.4,NaN,,11.998,,0 / 29,,1142,2022-01-12 10:13:08:253
-0.4555,9.7875,1.456,-0.4549,9.67,1.5668,0.0127,0.0595,0.1836,0.0068,-0.0059,0.0186,17.93,-38.85,-1.65,271.22,-80.42,16.19,48.84388,2.353328,91.4,NaN,,11.998,,0 / 29,,1146,2022-01-12 10:13:08:257
-0.4555,9.7875,1.456,-0.4549,9.67,1.5668,0.0127,0.0595,0.1836,0.0068,-0.0059,0.0186,17.93,-38.85,-1.65,271.22,-80.42,16.19,48.84388,2.353328,91.4,NaN,,11.998,,0 / 29,,1151,2022-01-12 10:13:08:262
-0.4555,9.7875,1.456,-0.4549,9.67,1.5668,0.0127,0.0595,0.1836,0.0068,-0.0059,0.0186,17.93,-38.85,-1.65,271.22,-80.42,16.19,48.84388,2.353328,91.4,NaN,,11.998,,0 / 29,,1157,2022-01-12 10:13:08:268
-0.4555,9.7875,1.456,-0.4549,9.67,1.5668,0.0127,0.0595,0.1836,0.0466,-0.0109,0.013,17.93,-38.85,-1.65,271.22,-80.42,16.19,48.84388,2.353328,91.4,NaN,,11.998,,0 / 29,,1162,2022-01-12 10:13:08:273
-0.4555,9.7875,1.456,-0.4549,9.67,1.5668,0.0127,0.0595,0.1836,0.0466,-0.0109,0.013,17.93,-38.85,-1.65,271.22,-80.42,16.19,48.84388,2.353328,91.4,NaN,,11.998,,0 / 29,,1167,2022-01-12 10:13:08:278
-0.4555,9.7875,1.456,-0.4549,9.67,1.5668,0.0127,0.0595,0.1836,0.0466,-0.0109,0.013,17.93,-38.85,-1.65,271.22,-80.42,16.19,48.84388,2.353328,91.4,NaN,,11.998,,0 / 29,,1172,2022-01-12 10:13:08:283
-0.4555,9.7875,1.456,-0.4146,9.6795,1.5184,0.0967,0.1427,0.0489,0.0466,-0.0109,0.013,17.93,-38.85,-1.65,271.22,-80.42,16.19,48.84388,2.353328,91.4,NaN,,11.998,,0 / 29,,1176,2022-01-12 10:13:08:287
-0.4555,9.7875,1.456,-0.4146,9.6795,1.5184,0.0967,0.1427,0.0489,0.0466,-0.0109,0.013,17.93,-38.85,-1.65,271.22,-80.42,16.19,48.84388,2.353328,91.4,NaN,,11.998,,0 / 29,,1181,2022-01-12 10:13:08:292
-0.4555,9.7875,1.456,-0.4146,9.6795,1.5184,0.0967,0.1427,0.0489,0.0466,-0.0109,0.013,17.93,-38.85,-1.65,271.22,-80.42,16.19,48.84388,2.353328,91.4,NaN,,11.998,,0 / 29,,1188,2022-01-12 10:13:08:299
-0.4555,9.7875,1.456,-0.4146,9.6795,1.5184,0.0967,0.1427,0.0489,0.0466,-0.0109,0.013,17.93,-38.85,-1.65,271.22,-80.42,16.19,48.84388,2.353328,91.4,NaN,,11.998,,0 / 29,,1191,2022-01-12 10:13:08:302
-0.4555,9.7875,1.456,-0.4146,9.6795,1.5184,0.0967,0.1427,0.0489,0.0466,-0.0109,0.013,17.93,-38.85,-1.65,271.22,-80.42,16.19,48.84388,2.353328,91.4,NaN,,11.998,,0 / 29,,1198,2022-01-12 10:13:08:309
-0.2399,9.6676,1.6478,-0.4146,9.6795,1.5184,0.0967,0.1427,0.0489,0.0466,-0.0109,0.013,17.93,-38.85,-1.65,271.22,-80.42,16.19,48.84388,2.353328,91.4,NaN,,11.998,,0 / 29,,1201,2022-01-12 10:13:08:312
-0.2399,9.6676,1.6478,-0.4146,9.6795,1.5184,0.0967,0.1427,0.0489,0.0466,-0.0109,0.013,17.93,-38.85,-1.65,271.22,-80.42,16.19,48.84388,2.353328,91.4,NaN,,11.998,,0 / 29,,1206,2022-01-12 10:13:08:317
-0.2399,9.6676,1.6478,-0.4146,9.6795,1.5184,0.0967,0.1427,0.0489,0.0466,-0.0109,0.013,17.93,-38.85,-1.65,271.22,-80.42,16.19,48.84388,2.353328,91.4,NaN,,11.998,,0 / 29,,1212,2022-01-12 10:13:08:323
-0.2399,9.6676,1.6478,-0.4146,9.6795,1.5184,0.0967,0.1427,0.0489,0.0466,-0.0109,0.013,17.93,-38.85,-1.65,271.22,-80.42,16.19,48.84388,2.353328,91.4,NaN,,11.998,,0 / 29,,1217,2022-01-12 10:13:08:328
-0.2399,9.6676,1.6478,-0.4146,9.6795,1.5184,0.0967,0.1427,0.0489,0.0466,-0.0109,0.013,17.93,-38.85,-1.65,271.22,-80.42,16.19,48.84388,2.353328,91.4,NaN,,11.998,,0 / 29,,1222,2022-01-12 10:13:08:333
-0.2399,9.6676,1.6478,-0.4146,9.6795,1.5184,0.0967,0.1427,0.0489,0.0466,-0.0109,0.013,17.93,-38.85,-1.65,271.22,-80.42,16.19,48.84388,2.353328,91.4,NaN,,11.998,,0 / 29,,1227,2022-01-12 10:13:08:338
-0.2399,9.6676,1.6478,-0.4146,9.6795,1.5184,0.0967,0.1427,0.0489,0.0466,-0.0109,0.013,17.93,-38.85,-1.65,271.22,-80.42,16.19,48.84388,2.353328,91.4,NaN,,11.998,,0 / 29,,1232,2022-01-12 10:13:08:343
-0.2399,9.6676,1.6478,-0.4146,9.6795,1.5184,0.0967,0.1427,0.0489,0.0466,-0.0109,0.013,18.0,-38.93,-1.72,271.1,-80.76,15.27,48.84388,2.353328,91.4,NaN,,11.998,,0 / 29,,1236,2022-01-12 10:13:08:347
-0.2399,9.6676,1.6478,-0.3909,9.6808,1.5166,-0.1394,0.0979,-0.1958,0.0466,-0.0109,0.013,18.0,-38.93,-1.72,271.1,-80.76,15.27,48.84388,2.353328,91.4,NaN,,11.998,,0 / 29,,1242,2022-01-12 10:13:08:353
-0.2399,9.6676,1.6478,-0.3909,9.6808,1.5166,-0.1394,0.0979,-0.1958,0.0466,-0.0109,0.013,18.0,-38.93,-1.72,271.1,-80.76,15.27,48.84388,2.353328,91.4,NaN,,11.998,,0 / 29,,1247,2022-01-12 10:13:08:358
-0.2399,9.6676,1.6478,-0.3909,9.6808,1.5166,-0.1394,0.0979,-0.1958,0.0466,-0.0109,0.013,18.0,-38.93,-1.72,271.1,-80.76,15.27,48.84388,2.353328,91.4,NaN,,11.998,,0 / 29,,1251,2022-01-12 10:13:08:362
-0.2399,9.6676,1.6478,-0.3909,9.6808,1.5166,-0.1394,0.0979,-0.1958,0.0466,-0.0109,0.013,18.0,-38.93,-1.72,271.1,-80.76,15.27,48.84388,2.353328,91.4,NaN,,11.998,,0 / 29,,1257,2022-01-12 10:13:08:368
-0.2399,9.6676,1.6478,-0.3909,9.6808,1.5166,-0.1394,0.0979,-0.1958,0.0466,-0.0109,0.013,18.0,-38.93,-1.72,271.1,-80.76,15.27,48.84388,2.353328,91.4,NaN,,11.998,,0 / 29,,1262,2022-01-12 10:13:08:373
-0.2399,9.6676,1.6478,-0.3909,9.6808,1.5166,-0.1394,0.0979,-0.1958,0.0466,-0.0109,0.013,18.0,-38.93,-1.72,271.1,-80.76,15.27,48.84388,2.353328,91.4,NaN,,11.998,,0 / 29,,1266,2022-01-12 10:13:08:377
-0.4161,9.6102,1.2428,-0.3909,9.6808,1.5166,-0.1394,0.0979,-0.1958,0.0466,-0.0109,0.013,18.0,-38.93,-1.72,271.1,-80.76,15.27,48.84388,2.353328,91.4,NaN,,11.998,,0 / 29,,1272,2022-01-12 10:13:08:383
-0.4161,9.6102,1.2428,-0.3909,9.6808,1.5166,-0.1394,0.0979,-0.1958,0.0466,-0.0109,0.013,18.0,-38.93,-1.72,271.1,-80.76,15.27,48.84388,2.353328,91.4,NaN,,11.998,,0 / 29,,1277,2022-01-12 10:13:08:388
-0.4161,9.6102,1.2428,-0.3909,9.6808,1.5166,-0.1394,0.0979,-0.1958,0.0466,-0.0109,0.013,18.0,-38.93,-1.72,271.1,-80.76,15.27,48.84388,2.353328,91.4,NaN,,11.998,,0 / 29,,1282,2022-01-12 10:13:08:393
-0.4161,9.6102,1.2428,-0.3909,9.6808,1.5166,-0.1394,0.0979,-0.1958,0.0466,-0.0109,0.013,18.0,-38.93,-1.72,271.1,-80.76,15.27,48.84388,2.353328,91.4,NaN,,11.998,,0 / 29,,1287,2022-01-12 10:13:08:398
-0.4161,9.6102,1.2428,-0.3909,9.6808,1.5166,-0.1394,0.0979,-0.1958,0.0563,0.0105,4.0E-4,18.0,-38.93,-1.72,271.1,-80.76,15.27,48.84388,2.353328,91.4,NaN,,11.998,,0 / 29,,1292,2022-01-12 10:13:08:403
-0.4161,9.6102,1.2428,-0.3909,9.6808,1.5166,-0.1394,0.0979,-0.1958,0.0563,0.0105,4.0E-4,18.0,-38.93,-1.72,271.1,-80.76,15.27,48.84388,2.353328,91.4,NaN,,11.998,,0 / 29,,1297,2022-01-12 10:13:08:408
-0.4161,9.6102,1.2428,-0.3909,9.6808,1.5166,-0.1394,0.0979,-0.1958,0.0563,0.0105,4.0E-4,18.0,-38.93,-1.72,271.1,-80.76,15.27,48.84388,2.353328,91.4,NaN,,11.998,,0 / 29,,1302,2022-01-12 10:13:08:413
-0.4161,9.6102,1.2428,-0.3909,9.6808,1.5166,-0.1394,0.0979,-0.1958,0.0563,0.0105,4.0E-4,18.0,-38.93,-1.72,271.1,-80.76,15.27,48.84388,2.353328,91.4,NaN,,11.998,,0 / 29,,1306,2022-01-12 10:13:08:417
-0.4161,9.6102,1.2428,-0.3909,9.6808,1.5166,-0.1394,0.0979,-0.1958,0.0563,0.0105,4.0E-4,18.0,-38.93,-1.72,271.1,-80.76,15.27,48.84388,2.353328,91.4,NaN,,11.998,,0 / 29,,1311,2022-01-12 10:13:08:422
-0.4161,9.6102,1.2428,-0.3909,9.6808,1.5166,-0.1394,0.0979,-0.1958,0.0563,0.0105,4.0E-4,18.0,-38.93,-1.72,271.1,-80.76,15.27,48.84388,2.353328,91.4,NaN,,11.998,,0 / 29,,1317,2022-01-12 10:13:08:428
-0.4161,9.6102,1.2428,-0.3909,9.6808,1.5166,-0.1394,0.0979,-0.1958,0.0563,0.0105,4.0E-4,18.0,-38.93,-1.72,271.1,-80.76,15.27,48.84388,2.353328,91.4,NaN,,11.998,,0 / 29,,1322,2022-01-12 10:13:08:433
-0.4161,9.6102,1.2428,-0.3909,9.6808,1.5166,-0.1394,0.0979,-0.1958,0.0563,0.0105,4.0E-4,18.0,-38.93,-1.72,271.1,-80.76,15.27,48.84388,2.353328,91.4,NaN,,11.998,,0 / 29,,1326,2022-01-12 10:13:08:437
-0.4005,9.5922,1.4501,-0.3909,9.6808,1.5166,-0.1394,0.0979,-0.1958,0.0563,0.0105,4.0E-4,18.08,-38.93,-1.65,270.4,-80.81,14.45,48.84388,2.353328,91.4,NaN,,11.998,,0 / 29,,1332,2022-01-12 10:13:08:443
-0.4005,9.5922,1.4501,-0.3909,9.6808,1.5166,-0.1394,0.0979,-0.1958,0.0563,0.0105,4.0E-4,18.08,-38.93,-1.65,270.4,-80.81,14.45,48.84388,2.353328,91.4,NaN,,11.998,,0 / 29,,1336,2022-01-12 10:13:08:447
-0.4005,9.5922,1.4501,-0.3909,9.6808,1.5166,-0.1394,0.0979,-0.1958,0.0563,0.0105,4.0E-4,18.08,-38.93,-1.65,270.4,-80.81,14.45,48.84388,2.353328,91.4,NaN,,11.998,,0 / 29,,1342,2022-01-12 10:13:08:453
-0.4005,9.5922,1.4501,-0.3909,9.6808,1.5166,-0.1394,0.0979,-0.1958,0.0563,0.0105,4.0E-4,18.08,-38.93,-1.65,270.4,-80.81,14.45,48.84388,2.353328,91.4,NaN,,11.998,,0 / 29,,1347,2022-01-12 10:13:08:458
-0.4005,9.5922,1.4501,-0.3909,9.6808,1.5166,-0.1394,0.0979,-0.1958,0.0563,0.0105,4.0E-4,18.08,-38.93,-1.65,270.4,-80.81,14.45,48.84388,2.353328,91.4,NaN,,11.998,,0 / 29,,1351,2022-01-12 10:13:08:462
-0.4005,9.5922,1.4501,-0.3909,9.6808,1.5166,-0.1394,0.0979,-0.1958,0.0563,0.0105,4.0E-4,18.08,-38.93,-1.65,270.4,-80.81,14.45,48.84388,2.353328,91.4,NaN,,11.998,,0 / 29,,1356,2022-01-12 10:13:08:467
-0.4005,9.5922,1.4501,-0.3909,9.6808,1.5166,-0.1394,0.0979,-0.1958,0.0563,0.0105,4.0E-4,18.08,-38.93,-1.65,270.4,-80.81,14.45,48.84388,2.353328,91.4,NaN,,11.998,,0 / 29,,1362,2022-01-12 10:13:08:473
-0.4005,9.5922,1.4501,-0.3846,9.6867,1.4803,-0.0283,-0.0595,-0.0737,0.0394,0.0069,-0.0029,18.08,-38.93,-1.65,270.4,-80.81,14.45,48.84388,2.353328,91.4,NaN,,11.998,,0 / 29,,1367,2022-01-12 10:13:08:478
-0.4005,9.5922,1.4501,-0.3846,9.6867,1.4803,-0.0283,-0.0595,-0.0737,0.0394,0.0069,-0.0029,18.08,-38.93,-1.65,270.4,-80.81,14.45,48.84388,2.353328,91.4,NaN,,11.998,,0 / 29,,1371,2022-01-12 10:13:08:482
-0.4005,9.5922,1.4501,-0.3846,9.6867,1.4803,-0.0283,-0.0595,-0.0737,0.0394,0.0069,-0.0029,18.08,-38.93,-1.65,270.4,-80.81,14.45,48.84388,2.353328,91.4,NaN,,11.998,,0 / 29,,1377,2022-01-12 10:13:08:488
-0.4005,9.5922,1.4501,-0.3846,9.6867,1.4803,-0.0283,-0.0595,-0.0737,0.0394,0.0069,-0.0029,18.08,-38.93,-1.65,270.4,-80.81,14.45,48.84388,2.353328,91.4,NaN,,11.998,,0 / 29,,1382,2022-01-12 10:13:08:493
-0.4005,9.5922,1.4501,-0.3846,9.6867,1.4803,-0.0283,-0.0595,-0.0737,0.0394,0.0069,-0.0029,18.08,-38.93,-1.65,270.4,-80.81,14.45,48.84388,2.353328,91.4,NaN,,11.998,,0 / 29,,1387,2022-01-12 10:13:08:498
-0.4005,9.5922,1.4501,-0.3846,9.6867,1.4803,-0.0283,-0.0595,-0.0737,0.0394,0.0069,-0.0029,18.08,-38.93,-1.65,270.4,-80.81,14.45,48.84388,2.353328,91.4,NaN,,11.998,,0 / 29,,1391,2022-01-12 10:13:08:502
-0.4005,9.5922,1.4501,-0.3846,9.6867,1.4803,-0.0283,-0.0595,-0.0737,0.0394,0.0069,-0.0029,18.08,-38.93,-1.65,270.4,-80.81,14.45,48.84388,2.353328,91.4,NaN,,11.998,,0 / 29,,1397,2022-01-12 10:13:08:508
-0.44,9.6975,1.3531,-0.3846,9.6867,1.4803,-0.0283,-0.0595,-0.0737,0.0394,0.0069,-0.0029,18.08,-38.93,-1.65,270.4,-80.81,14.45,48.84388,2.353328,91.4,NaN,,11.998,,0 / 29,,1401,2022-01-12 10:13:08:512
-0.44,9.6975,1.3531,-0.3846,9.6867,1.4803,-0.0283,-0.0595,-0.0737,0.0394,0.0069,-0.0029,18.08,-38.93,-1.65,270.4,-80.81,14.45,48.84388,2.353328,91.4,NaN,,11.998,,0 / 29,,1407,2022-01-12 10:13:08:518
-0.44,9.6975,1.3531,-0.3846,9.6867,1.4803,-0.0283,-0.0595,-0.0737,0.0394,0.0069,-0.0029,18.08,-38.93,-1.65,270.4,-80.81,14.45,48.84388,2.353328,91.4,NaN,,11.998,,0 / 29,,1411,2022-01-12 10:13:08:522
-0.44,9.6975,1.3531,-0.3846,9.6867,1.4803,-0.0283,-0.0595,-0.0737,0.0394,0.0069,-0.0029,18.08,-38.93,-1.65,270.4,-80.81,14.45,48.84388,2.353328,91.4,NaN,,11.998,,0 / 29,,1417,2022-01-12 10:13:08:528
-0.44,9.6975,1.3531,-0.3846,9.6867,1.4803,-0.0283,-0.0595,-0.0737,0.0394,0.0069,-0.0029,18.08,-38.93,-1.65,270.4,-80.81,14.45,48.84388,2.353328,91.4,NaN,,11.998,,0 / 29,,1421,2022-01-12 10:13:08:532
-0.44,9.6975,1.3531,-0.3744,9.6872,1.4795,-0.0283,-0.0595,-0.0737,0.0394,0.0069,-0.0029,18.08,-38.93,-1.65,270.4,-80.81,14.45,48.84388,2.353328,91.4,NaN,,11.998,,0 / 29,,1427,2022-01-12 10:13:08:538
-0.44,9.6975,1.3531,-0.3744,9.6872,1.4795,-0.0283,-0.0595,-0.0737,0.0394,0.0069,-0.0029,18.3,-38.93,-1.8,270.7,-81.05,14.2,48.84388,2.353328,91.4,NaN,,11.998,,0 / 29,,1432,2022-01-12 10:13:08:543
-0.44,9.6975,1.3531,-0.3744,9.6872,1.4795,-0.0283,-0.0595,-0.0737,0.0394,0.0069,-0.0029,18.3,-38.93,-1.8,270.7,-81.05,14.2,48.84388,2.353328,91.4,NaN,,11.998,,0 / 29,,1438,2022-01-12 10:13:08:549
-0.44,9.6975,1.3531,-0.3744,9.6872,1.4795,-0.0283,-0.0595,-0.0737,0.0394,0.0069,-0.0029,18.3,-38.93,-1.8,270.7,-81.05,14.2,48.84388,2.353328,91.4,NaN,,11.998,,0 / 29,,1441,2022-01-12 10:13:08:552
-0.44,9.6975,1.3531,-0.3744,9.6872,1.4795,-0.0283,-0.0595,-0.0737,0.0394,0.0069,-0.0029,18.3,-38.93,-1.8,270.7,-81.05,14.2,48.84388,2.353328,91.4,NaN,,11.998,,0 / 29,,1448,2022-01-12 10:13:08:559
-0.44,9.6975,1.3531,-0.3744,9.6872,1.4795,-0.0283,-0.0595,-0.0737,0.0394,0.0069,-0.0029,18.3,-38.93,-1.8,270.7,-81.05,14.2,48.84388,2.353328,91.4,NaN,,11.998,,0 / 29,,1453,2022-01-12 10:13:08:564
-0.44,9.6975,1.3531,-0.3744,9.6872,1.4795,-0.0283,-0.0595,-0.0737,0.0394,0.0069,-0.0029,18.3,-38.93,-1.8,270.7,-81.05,14.2,48.84388,2.353328,91.4,NaN,,11.998,,0 / 29,,1456,2022-01-12 10:13:08:567
-0.44,9.6975,1.3531,-0.3744,9.6872,1.4795,-0.0283,-0.0595,-0.0737,0.0394,0.0069,-0.0029,18.3,-38.93,-1.8,270.7,-81.05,14.2,48.84388,2.353328,91.4,NaN,,11.998,,0 / 29,,1462,2022-01-12 10:13:08:573
-0.2578,9.524,1.4237,-0.3744,9.6872,1.4795,-0.0283,-0.0595,-0.0737,0.0394,0.0069,-0.0029,18.3,-38.93,-1.8,270.7,-81.05,14.2,48.84388,2.353328,91.4,NaN,,11.998,,0 / 29,,1467,2022-01-12 10:13:08:578
-0.2578,9.524,1.4237,-0.3744,9.6872,1.4795,-0.0283,-0.0595,-0.0737,0.0394,0.0069,-0.0029,18.3,-38.93,-1.8,270.7,-81.05,14.2,48.84388,2.353328,91.4,NaN,,11.998,,0 / 29,,1472,2022-01-12 10:13:08:583
-0.2578,9.524,1.4237,-0.3744,9.6872,1.4795,-0.0283,-0.0595,-0.0737,0.0394,0.0069,-0.0029,18.3,-38.93,-1.8,270.7,-81.05,14.2,48.84388,2.353328,91.4,NaN,,11.998,,0 / 29,,1477,2022-01-12 10:13:08:588
-0.2578,9.524,1.4237,-0.3749,9.6877,1.4759,0.0493,-0.0459,-0.0686,-0.0119,0.0158,-0.0117,18.3,-38.93,-1.8,270.7,-81.05,14.2,48.84388,2.353328,91.4,NaN,,11.998,,0 / 29,,1482,2022-01-12 10:13:08:593
-0.2578,9.524,1.4237,-0.3749,9.6877,1.4759,0.0493,-0.0459,-0.0686,-0.0119,0.0158,-0.0117,18.3,-38.93,-1.8,270.7,-81.05,14.2,48.84388,2.353328,91.4,NaN,,11.998,,0 / 29,,1487,2022-01-12 10:13:08:598
-0.2578,9.524,1.4237,-0.3749,9.6877,1.4759,0.0493,-0.0459,-0.0686,-0.0119,0.0158,-0.0117,18.3,-38.93,-1.8,270.7,-81.05,14.2,48.84388,2.353328,91.4,NaN,,11.998,,0 / 29,,1493,2022-01-12 10:13:08:604
-0.2578,9.524,1.4237,-0.3749,9.6877,1.4759,0.0493,-0.0459,-0.0686,-0.0119,0.0158,-0.0117,18.3,-38.93,-1.8,270.7,-81.05,14.2,48.84388,2.353328,91.4,NaN,,11.998,,0 / 29,,1500,2022-01-12 10:13:08:611
-0.2578,9.524,1.4237,-0.3749,9.6877,1.4759,0.0493,-0.0459,-0.0686,-0.0119,0.0158,-0.0117,18.3,-38.93,-1.8,270.7,-81.05,14.2,48.84388,2.353328,91.4,NaN,,11.998,,0 / 29,,1502,2022-01-12 10:13:08:613
-0.2578,9.524,1.4237,-0.3749,9.6877,1.4759,0.0493,-0.0459,-0.0686,-0.0119,0.0158,-0.0117,18.3,-38.93,-1.8,270.7,-81.05,14.2,48.84388,2.353328,91.4,NaN,,11.998,,0 / 29,,1507,2022-01-12 10:13:08:618
-0.2578,9.524,1.4237,-0.3749,9.6877,1.4759,0.0493,-0.0459,-0.0686,-0.0119,0.0158,-0.0117,18.3,-38.93,-1.8,270.7,-81.05,14.2,48.84388,2.353328,91.4,NaN,,11.998,,0 / 29,,1512,2022-01-12 10:13:08:623
-0.2578,9.524,1.4237,-0.3749,9.6877,1.4759,0.0493,-0.0459,-0.0686,-0.0119,0.0158,-0.0117,18.3,-38.93,-1.8,270.7,-81.05,14.2,48.84388,2.353328,91.4,NaN,,11.998,,0 / 29,,1516,2022-01-12 10:13:08:627
-0.2578,9.524,1.4237,-0.3749,9.6877,1.4759,0.0493,-0.0459,-0.0686,-0.0119,0.0158,-0.0117,18.3,-38.93,-1.8,270.7,-81.05,14.2,48.84388,2.353328,91.4,NaN,,11.998,,0 / 29,,1522,2022-01-12 10:13:08:633
-0.2578,9.524,1.4237,-0.3749,9.6877,1.4759,0.0493,-0.0459,-0.0686,-0.0119,0.0158,-0.0117,18.3,-38.93,-1.8,270.7,-81.05,14.2,48.84388,2.353328,91.4,NaN,,11.998,,0 / 29,,1527,2022-01-12 10:13:08:638
-0.2291,9.5994,1.3089,-0.3749,9.6877,1.4759,0.0493,-0.0459,-0.0686,-0.0119,0.0158,-0.0117,18.45,-39.07,-1.72,270.8,-81.07,14.25,48.84388,2.353328,91.4,NaN,,11.998,,0 / 29,,1532,2022-01-12 10:13:08:643
-0.2291,9.5994,1.3089,-0.3749,9.6877,1.4759,0.0493,-0.0459,-0.0686,-0.0119,0.0158,-0.0117,18.45,-39.07,-1.72,270.8,-81.07,14.25,48.84388,2.353328,91.4,NaN,,11.998,,0 / 29,,1537,2022-01-12 10:13:08:648
-0.2291,9.5994,1.3089,-0.3749,9.6877,1.4759,0.0493,-0.0459,-0.0686,-0.0119,0.0158,-0.0117,18.45,-39.07,-1.72,270.8,-81.07,14.25,48.84388,2.353328,91.4,NaN,,11.998,,0 / 29,,1542,2022-01-12 10:13:08:653
-0.2291,9.5994,1.3089,-0.3749,9.6877,1.4759,0.0493,-0.0459,-0.0686,-0.0119,0.0158,-0.0117,18.45,-39.07,-1.72,270.8,-81.07,14.25,48.84388,2.353328,91.4,NaN,,11.998,,0 / 29,,1547,2022-01-12 10:13:08:658
-0.2291,9.5994,1.3089,-0.3749,9.6877,1.4759,0.0493,-0.0459,-0.0686,-0.0119,0.0158,-0.0117,18.45,-39.07,-1.72,270.8,-81.07,14.25,48.84388,2.353328,91.4,NaN,,11.998,,0 / 29,,1552,2022-01-12 10:13:08:663
-0.2291,9.5994,1.3089,-0.3749,9.6877,1.4759,0.0493,-0.0459,-0.0686,-0.0881,0.0337,-0.0345,18.45,-39.07,-1.72,270.8,-81.07,14.25,48.84388,2.353328,91.4,NaN,,11.998,,0 / 29,,1557,2022-01-12 10:13:08:668
-0.2291,9.5994,1.3089,-0.3749,9.6877,1.4759,0.0493,-0.0459,-0.0686,-0.0881,0.0337,-0.0345,18.45,-39.07,-1.72,270.8,-81.07,14.25,48.84388,2.353328,91.4,NaN,,11.998,,0 / 29,,1561,2022-01-12 10:13:08:672
-0.2291,9.5994,1.3089,-0.3749,9.6877,1.4759,0.0493,-0.0459,-0.0686,-0.0881,0.0337,-0.0345,18.45,-39.07,-1.72,270.8,-81.07,14.25,48.84388,2.353328,91.4,NaN,,11.998,,0 / 29,,1567,2022-01-12 10:13:08:678
-0.2291,9.5994,1.3089,-0.3749,9.6877,1.4759,0.0493,-0.0459,-0.0686,-0.0881,0.0337,-0.0345,18.45,-39.07,-1.72,270.8,-81.07,14.25,48.84388,2.353328,91.4,NaN,,11.998,,0 / 29,,1571,2022-01-12 10:13:08:682
-0.2291,9.5994,1.3089,-0.3749,9.6877,1.4759,0.0493,-0.0459,-0.0686,-0.0881,0.0337,-0.0345,18.45,-39.07,-1.72,270.8,-81.07,14.25,48.84388,2.353328,91.4,NaN,,11.998,,0 / 29,,1577,2022-01-12 10:13:08:688
-0.2291,9.5994,1.3089,-0.3749,9.6877,1.4759,0.0493,-0.0459,-0.0686,-0.0881,0.0337,-0.0345,18.45,-39.07,-1.72,270.8,-81.07,14.25,48.84388,2.353328,91.4,NaN,,11.998,,0 / 29,,1582,2022-01-12 10:13:08:693
-0.2291,9.5994,1.3089,-0.3749,9.6877,1.4759,0.0493,-0.0459,-0.0686,-0.0881,0.0337,-0.0345,18.45,-39.07,-1.72,270.8,-81.07,14.25,48.84388,2.353328,91.4,NaN,,11.998,,0 / 29,,1586,2022-01-12 10:13:08:697
-0.4232,9.4017,1.3388,-0.3749,9.6877,1.4759,0.0493,-0.0459,-0.0686,-0.0881,0.0337,-0.0345,18.45,-39.07,-1.72,270.8,-81.07,14.25,48.84388,2.353328,91.4,NaN,,11.998,,0 / 29,,1592,2022-01-12 10:13:08:703
-0.4232,9.4017,1.3388,-0.3749,9.6877,1.4759,0.0493,-0.0459,-0.0686,-0.0881,0.0337,-0.0345,18.45,-39.07,-1.72,270.8,-81.07,14.25,48.84388,2.353328,91.4,NaN,,11.998,,0 / 29,,1596,2022-01-12 10:13:08:707
-0.4232,9.4017,1.3388,-0.3749,9.6877,1.4759,0.0493,-0.0459,-0.0686,-0.0881,0.0337,-0.0345,18.45,-39.07,-1.72,270.8,-81.07,14.25,48.84388,2.353328,91.4,NaN,,11.998,,0 / 29,,1602,2022-01-12 10:13:08:713
-0.4232,9.4017,1.3388,-0.3923,9.6757,1.5486,0.1032,-0.0866,-0.1399,-0.0881,0.0337,-0.0345,18.45,-39.07,-1.72,270.8,-81.07,14.25,48.84388,2.353328,91.4,NaN,,11.998,,0 / 29,,1606,2022-01-12 10:13:08:717
-0.4232,9.4017,1.3388,-0.3923,9.6757,1.5486,0.1032,-0.0866,-0.1399,-0.0881,0.0337,-0.0345,18.45,-39.07,-1.72,270.8,-81.07,14.25,48.84388,2.353328,91.4,NaN,,11.998,,0 / 29,,1612,2022-01-12 10:13:08:723
-0.4232,9.4017,1.3388,-0.3923,9.6757,1.5486,0.1032,-0.0866,-0.1399,-0.0881,0.0337,-0.0345,18.45,-39.07,-1.72,270.8,-81.07,14.25,48.84388,2.353328,91.4,NaN,,11.998,,0 / 29,,1616,2022-01-12 10:13:08:727
-0.4232,9.4017,1.3388,-0.3923,9.6757,1.5486,0.1032,-0.0866,-0.1399,-0.0881,0.0337,-0.0345,18.45,-39.07,-1.72,270.8,-81.07,14.25,48.84388,2.353328,91.4,NaN,,11.998,,0 / 29,,1622,2022-01-12 10:13:08:733
-0.4232,9.4017,1.3388,-0.3923,9.6757,1.5486,0.1032,-0.0866,-0.1399,-0.0881,0.0337,-0.0345,18.45,-39.07,-1.72,270.8,-81.07,14.25,48.84388,2.353328,91.4,NaN,,11.998,,0 / 29,,1627,2022-01-12 10:13:08:738
-0.4232,9.4017,1.3388,-0.3923,9.6757,1.5486,0.1032,-0.0866,-0.1399,-0.0881,0.0337,-0.0345,18.45,-39.07,-1.72,270.8,-81.07,14.25,48.84388,2.353328,91.4,NaN,,11.998,,0 / 29,,1631,2022-01-12 10:13:08:742
-0.4232,9.4017,1.3388,-0.3923,9.6757,1.5486,0.1032,-0.0866,-0.1399,-0.0881,0.0337,-0.0345,18.38,-38.85,-2.1,269.73,-80.62,14.22,48.84388,2.353328,91.4,NaN,,11.998,,0 / 29,,1636,2022-01-12 10:13:08:747
-0.4232,9.4017,1.3388,-0.3923,9.6757,1.5486,0.1032,-0.0866,-0.1399,-0.0881,0.0337,-0.0345,18.38,-38.85,-2.1,269.73,-80.62,14.22,48.84388,2.353328,91.4,NaN,,11.998,,0 / 29,,1642,2022-01-12 10:13:08:753
-0.4232,9.4017,1.3388,-0.3923,9.6757,1.5486,0.1032,-0.0866,-0.1399,-0.0881,0.0337,-0.0345,18.38,-38.85,-2.1,269.73,-80.62,14.22,48.84388,2.353328,91.4,NaN,,11.998,,0 / 29,,1647,2022-01-12 10:13:08:758
-0.4232,9.4017,1.3388,-0.3923,9.6757,1.5486,0.1032,-0.0866,-0.1399,-0.0881,0.0337,-0.0345,18.38,-38.85,-2.1,269.73,-80.62,14.22,48.84388,2.353328,91.4,NaN,,11.998,,0 / 29,,1652,2022-01-12 10:13:08:763
-0.4232,9.4017,1.3388,-0.3923,9.6757,1.5486,0.1032,-0.0866,-0.1399,-0.0881,0.0337,-0.0345,18.38,-38.85,-2.1,269.73,-80.62,14.22,48.84388,2.353328,91.4,NaN,,11.998,,0 / 29,,1656,2022-01-12 10:13:08:767
-0.4232,9.4017,1.3388,-0.3923,9.6757,1.5486,0.1032,-0.0866,-0.1399,-0.0881,0.0337,-0.0345,18.38,-38.85,-2.1,269.73,-80.62,14.22,48.84388,2.353328,91.4,NaN,,11.998,,0 / 29,,1662,2022-01-12 10:13:08:773
-0.44,9.4627,1.8849,-0.4147,9.6595,1.6407,0.2119,-0.2196,-0.2487,-0.0881,0.0337,-0.0345,18.38,-38.85,-2.1,269.73,-80.62,14.22,48.84388,2.353328,91.4,NaN,,11.998,,0 / 29,,1669,2022-01-12 10:13:08:780
-0.44,9.4627,1.8849,-0.4147,9.6595,1.6407,0.2119,-0.2196,-0.2487,-0.0881,0.0337,-0.0345,18.38,-38.85,-2.1,269.73,-80.62,14.22,48.84388,2.353328,91.4,NaN,,11.998,,0 / 29,,1671,2022-01-12 10:13:08:782
-0.44,9.4627,1.8849,-0.4147,9.6595,1.6407,0.2119,-0.2196,-0.2487,-0.0881,0.0337,-0.0345,18.38,-38.85,-2.1,269.73,-80.62,14.22,48.84388,2.353328,91.4,NaN,,11.998,,0 / 29,,1677,2022-01-12 10:13:08:788
-0.44,9.4627,1.8849,-0.4147,9.6595,1.6407,0.2119,-0.2196,-0.2487,-0.1714,0.0169,-0.084,18.38,-38.85,-2.1,269.73,-80.62,14.22,48.84388,2.353328,91.4,NaN,,11.998,,0 / 29,,1682,2022-01-12 10:13:08:793
-0.44,9.4627,1.8849,-0.4147,9.6595,1.6407,0.2119,-0.2196,-0.2487,-0.1714,0.0169,-0.084,18.38,-38.85,-2.1,269.73,-80.62,14.22,48.84388,2.353328,91.4,NaN,,11.998,,0 / 29,,1687,2022-01-12 10:13:08:798
-0.44,9.4627,1.8849,-0.4147,9.6595,1.6407,0.2119,-0.2196,-0.2487,-0.1714,0.0169,-0.084,18.38,-38.85,-2.1,269.73,-80.62,14.22,48.84388,2.353328,91.4,NaN,,11.998,,0 / 29,,1691,2022-01-12 10:13:08:802
-0.44,9.4627,1.8849,-0.4147,9.6595,1.6407,0.2119,-0.2196,-0.2487,-0.1714,0.0169,-0.084,18.38,-38.85,-2.1,269.73,-80.62,14.22,48.84388,2.353328,91.4,NaN,,11.998,,0 / 29,,1697,2022-01-12 10:13:08:808
-0.44,9.4627,1.8849,-0.4147,9.6595,1.6407,0.2119,-0.2196,-0.2487,-0.1714,0.0169,-0.084,18.38,-38.85,-2.1,269.73,-80.62,14.22,48.84388,2.353328,91.4,NaN,,11.998,,0 / 29,,1701,2022-01-12 10:13:08:812
-0.44,9.4627,1.8849,-0.4147,9.6595,1.6407,0.2119,-0.2196,-0.2487,-0.1714,0.0169,-0.084,18.38,-38.85,-2.1,269.73,-80.62,14.22,48.84388,2.353328,91.4,NaN,,11.998,,0 / 29,,1707,2022-01-12 10:13:08:818
-0.44,9.4627,1.8849,-0.4147,9.6595,1.6407,0.2119,-0.2196,-0.2487,-0.1714,0.0169,-0.084,18.38,-38.85,-2.1,269.73,-80.62,14.22,48.84388,2.353328,91.4,NaN,,11.998,,0 / 29,,1711,2022-01-12 10:13:08:822
-0.44,9.4627,1.8849,-0.4147,9.6595,1.6407,0.2119,-0.2196,-0.2487,-0.1714,0.0169,-0.084,18.38,-38.85,-2.1,269.73,-80.62,14.22,48.84388,2.353328,91.4,NaN,,11.998,,0 / 29,,1717,2022-01-12 10:13:08:828
-0.44,9.4627,1.8849,-0.4147,9.6595,1.6407,0.2119,-0.2196,-0.2487,-0.1714,0.0169,-0.084,18.38,-38.85,-2.1,269.73,-80.62,14.22,48.84388,2.353328,91.4,NaN,,11.998,,0 / 29,,1721,2022-01-12 10:13:08:832
-0.3957,9.7071,1.9747,-0.4583,9.6415,1.7326,0.1157,-0.1174,0.1816,-0.1714,0.0169,-0.084,18.38,-38.85,-2.1,269.73,-80.62,14.22,48.84388,2.353328,91.4,NaN,,11.998,,0 / 29,,1727,2022-01-12 10:13:08:838
-0.3957,9.7071,1.9747,-0.4583,9.6415,1.7326,0.1157,-0.1174,0.1816,-0.1714,0.0169,-0.084,18.45,-38.7,-2.4,267.62,-79.47,14.82,48.84388,2.353328,91.4,NaN,,11.998,,0 / 29,,1731,2022-01-12 10:13:08:842
-0.3957,9.7071,1.9747,-0.4583,9.6415,1.7326,0.1157,-0.1174,0.1816,-0.1714,0.0169,-0.084,18.45,-38.7,-2.4,267.62,-79.47,14.82,48.84388,2.353328,91.4,NaN,,11.998,,0 / 29,,1737,2022-01-12 10:13:08:848
-0.3957,9.7071,1.9747,-0.4583,9.6415,1.7326,0.1157,-0.1174,0.1816,-0.1714,0.0169,-0.084,18.45,-38.7,-2.4,267.62,-79.47,14.82,48.84388,2.353328,91.4,NaN,,11.998,,0 / 29,,1741,2022-01-12 10:13:08:852
-0.3957,9.7071,1.9747,-0.4583,9.6415,1.7326,0.1157,-0.1174,0.1816,-0.1714,0.0169,-0.084,18.45,-38.7,-2.4,267.62,-79.47,14.82,48.84388,2.353328,91.4,NaN,,11.998,,0 / 29,,1747,2022-01-12 10:13:08:858
-0.3957,9.7071,1.9747,-0.4583,9.6415,1.7326,0.1157,-0.1174,0.1816,-0.1714,0.0169,-0.084,18.45,-38.7,-2.4,267.62,-79.47,14.82,48.84388,2.353328,91.4,NaN,,11.998,,0 / 29,,1751,2022-01-12 10:13:08:862
-0.3957,9.7071,1.9747,-0.4583,9.6415,1.7326,0.1157,-0.1174,0.1816,-0.1714,0.0169,-0.084,18.45,-38.7,-2.4,267.62,-79.47,14.82,48.84388,2.353328,91.4,NaN,,11.998,,0 / 29,,1757,2022-01-12 10:13:08:868
-0.3957,9.7071,1.9747,-0.4583,9.6415,1.7326,0.1157,-0.1174,0.1816,-0.049,0.1,-0.123,18.45,-38.7,-2.4,267.62,-79.47,14.82,48.84388,2.353328,91.4,NaN,,11.998,,0 / 29,,1761,2022-01-12 10:13:08:872
-0.3957,9.7071,1.9747,-0.4583,9.6415,1.7326,0.1157,-0.1174,0.1816,-0.049,0.1,-0.123,18.45,-38.7,-2.4,267.62,-79.47,14.82,48.84388,2.353328,91.4,NaN,,11.998,,0 / 29,,1767,2022-01-12 10:13:08:878
-0.3957,9.7071,1.9747,-0.4583,9.6415,1.7326,0.1157,-0.1174,0.1816,-0.049,0.1,-0.123,18.45,-38.7,-2.4,267.62,-79.47,14.82,48.84388,2.353328,91.4,NaN,,11.998,,0 / 29,,1772,2022-01-12 10:13:08:883
-0.3957,9.7071,1.9747,-0.4583,9.6415,1.7326,0.1157,-0.1174,0.1816,-0.049,0.1,-0.123,18.45,-38.7,-2.4,267.62,-79.47,14.82,48.84388,2.353328,91.4,NaN,,11.998,,0 / 29,,1776,2022-01-12 10:13:08:887
-0.3957,9.7071,1.9747,-0.4583,9.6415,1.7326,0.1157,-0.1174,0.1816,-0.049,0.1,-0.123,18.45,-38.7,-2.4,267.62,-79.47,14.82,48.84388,2.353328,91.4,NaN,,11.998,,0 / 29,,1782,2022-01-12 10:13:08:893
-0.3957,9.7071,1.9747,-0.4583,9.6415,1.7326,0.1157,-0.1174,0.1816,-0.049,0.1,-0.123,18.45,-38.7,-2.4,267.62,-79.47,14.82,48.84388,2.353328,91.4,NaN,,11.998,,0 / 29,,1786,2022-01-12 10:13:08:897
-0.3957,9.7071,1.9747,-0.4583,9.6415,1.7326,0.1157,-0.1174,0.1816,-0.049,0.1,-0.123,18.45,-38.7,-2.4,267.62,-79.47,14.82,48.84388,2.353328,91.4,NaN,,11.998,,0 / 29,,1792,2022-01-12 10:13:08:903
-0.3957,9.7071,1.9747,-0.4583,9.6415,1.7326,0.1157,-0.1174,0.1816,-0.049,0.1,-0.123,18.45,-38.7,-2.4,267.62,-79.47,14.82,48.84388,2.353328,91.4,NaN,,11.998,,0 / 29,,1798,2022-01-12 10:13:08:909
-0.5824,9.652,1.8455,-0.4583,9.6415,1.7326,0.1157,-0.1174,0.1816,-0.049,0.1,-0.123,18.45,-38.7,-2.4,267.62,-79.47,14.82,48.84388,2.353328,91.4,NaN,,11.998,,0 / 29,,1801,2022-01-12 10:13:08:912
-0.5824,9.652,1.8455,-0.4583,9.6415,1.7326,0.1157,-0.1174,0.1816,-0.049,0.1,-0.123,18.45,-38.7,-2.4,267.62,-79.47,14.82,48.84388,2.353328,91.4,NaN,,11.998,,0 / 29,,1807,2022-01-12 10:13:08:918
-0.5824,9.652,1.8455,-0.4583,9.6415,1.7326,0.1157,-0.1174,0.1816,-0.049,0.1,-0.123,18.45,-38.7,-2.4,267.62,-79.47,14.82,48.84388,2.353328,91.4,NaN,,11.998,,0 / 29,,1811,2022-01-12 10:13:08:922
-0.5824,9.652,1.8455,-0.4583,9.6415,1.7326,0.1157,-0.1174,0.1816,-0.049,0.1,-0.123,18.45,-38.7,-2.4,267.62,-79.47,14.82,48.84388,2.353328,91.4,NaN,,11.998,,0 / 29,,1817,2022-01-12 10:13:08:928
-0.5824,9.652,1.8455,-0.4583,9.6415,1.7326,0.1157,-0.1174,0.1816,-0.049,0.1,-0.123,18.45,-38.7,-2.4,267.62,-79.47,14.82,48.84388,2.353328,91.4,NaN,,11.998,,0 / 29,,1821,2022-01-12 10:13:08:932
-0.5824,9.652,1.8455,-0.4583,9.6415,1.7326,0.1157,-0.1174,0.1816,-0.049,0.1,-0.123,18.45,-38.7,-2.4,267.62,-79.47,14.82,48.84388,2.353328,91.4,NaN,,11.998,,0 / 29,,1827,2022-01-12 10:13:08:938
-0.5824,9.652,1.8455,-0.4583,9.6415,1.7326,0.1157,-0.1174,0.1816,-0.049,0.1,-0.123,18.53,-38.62,-2.7,271.63,-79.47,14.82,48.84388,2.353328,91.4,NaN,,11.998,,0 / 29,,1831,2022-01-12 10:13:08:942
-0.5824,9.652,1.8455,-0.621,9.6242,1.7773,-0.0972,0.1677,-0.152,-0.049,0.1,-0.123,18.53,-38.62,-2.7,271.63,-79.47,14.82,48.84388,2.353328,91.4,NaN,,11.998,,0 / 29,,1837,2022-01-12 10:13:08:948
-0.5824,9.652,1.8455,-0.621,9.6242,1.7773,-0.0972,0.1677,-0.152,-0.049,0.1,-0.123,18.53,-38.62,-2.7,271.63,-79.47,14.82,48.84388,2.353328,91.4,NaN,,11.998,,0 / 29,,1841,2022-01-12 10:13:08:952
-0.5824,9.652,1.8455,-0.621,9.6242,1.7773,-0.0972,0.1677,-0.152,-0.049,0.1,-0.123,18.53,-38.62,-2.7,271.63,-79.47,14.82,48.84388,2.353328,91.4,NaN,,11.998,,0 / 29,,1847,2022-01-12 10:13:08:958
-0.5824,9.652,1.8455,-0.621,9.6242,1.7773,-0.0972,0.1677,-0.152,-0.049,0.1,-0.123,18.53,-38.62,-2.7,271.63,-79.47,14.82,48.84388,2.353328,91.4,NaN,,11.998,,0 / 29,,1851,2022-01-12 10:13:08:962
-0.5824,9.652,1.8455,-0.621,9.6242,1.7773,-0.0972,0.1677,-0.152,-0.049,0.1,-0.123,18.53,-38.62,-2.7,271.63,-79.47,14.82,48.84388,2.353328,91.4,NaN,,11.998,,0 / 29,,1857,2022-01-12 10:13:08:968
-0.5824,9.652,1.8455,-0.621,9.6242,1.7773,-0.0972,0.1677,-0.152,-0.049,0.1,-0.123,18.53,-38.62,-2.7,271.63,-79.47,14.82,48.84388,2.353328,91.4,NaN,,11.998,,0 / 29,,1861,2022-01-12 10:13:08:972
-0.5824,9.652,1.8455,-0.621,9.6242,1.7773,-0.0972,0.1677,-0.152,-0.049,0.1,-0.123,18.53,-38.62,-2.7,271.63,-79.47,14.82,48.84388,2.353328,91.4,NaN,,11.998,,0 / 29,,1866,2022-01-12 10:13:08:977
-1.0962,9.8845,1.9962,-0.621,9.6242,1.7773,-0.0972,0.1677,-0.152,-0.049,0.1,-0.123,18.53,-38.62,-2.7,271.63,-79.47,14.82,48.84388,2.353328,91.4,NaN,,11.998,,0 / 29,,1872,2022-01-12 10:13:08:983
-1.0962,9.8845,1.9962,-0.621,9.6242,1.7773,-0.0972,0.1677,-0.152,-0.049,0.1,-0.123,18.53,-38.62,-2.7,271.63,-79.47,14.82,48.84388,2.353328,91.4,NaN,,11.998,,0 / 29,,1877,2022-01-12 10:13:08:988
-1.0962,9.8845,1.9962,-0.621,9.6242,1.7773,-0.0972,0.1677,-0.152,-0.049,0.1,-0.123,18.53,-38.62,-2.7,271.63,-79.47,14.82,48.84388,2.353328,91.4,NaN,,11.998,,0 / 29,,1881,2022-01-12 10:13:08:992
-1.0962,9.8845,1.9962,-0.621,9.6242,1.7773,-0.0972,0.1677,-0.152,-0.049,0.1,-0.123,18.53,-38.62,-2.7,271.63,-79.47,14.82,48.84388,2.353328,91.4,NaN,,11.998,,0 / 29,,1886,2022-01-12 10:13:08:997
-1.0962,9.8845,1.9962,-0.621,9.6242,1.7773,-0.0972,0.1677,-0.152,-0.0535,0.164,-0.1298,18.53,-38.62,-2.7,271.63,-79.47,14.82,48.84388,2.353328,91.4,NaN,,11.998,,0 / 29,,1891,2022-01-12 10:13:09:002
-1.0962,9.8845,1.9962,-0.621,9.6242,1.7773,-0.0972,0.1677,-0.152,-0.0535,0.164,-0.1298,18.53,-38.62,-2.7,271.63,-79.47,14.82,48.84388,2.353328,91.4,NaN,,11.998,,0 / 29,,1897,2022-01-12 10:13:09:008
-1.0962,9.8845,1.9962,-0.621,9.6242,1.7773,-0.0972,0.1677,-0.152,-0.0535,0.164,-0.1298,18.53,-38.62,-2.7,271.63,-79.47,14.82,48.84388,2.353328,91.4,NaN,,11.998,,0 / 29,,1901,2022-01-12 10:13:09:012
-1.0962,9.8845,1.9962,-0.621,9.6242,1.7773,-0.0972,0.1677,-0.152,-0.0535,0.164,-0.1298,18.53,-38.62,-2.7,271.63,-79.47,14.82,48.84388,2.353328,91.4,NaN,,11.998,,0 / 29,,1907,2022-01-12 10:13:09:018
-1.0962,9.8845,1.9962,-0.621,9.6242,1.7773,-0.0972,0.1677,-0.152,-0.0535,0.164,-0.1298,18.53,-38.62,-2.7,271.63,-79.47,14.82,48.84388,2.353328,91.4,NaN,,11.998,,0 / 29,,1911,2022-01-12 10:13:09:022
-1.0962,9.8845,1.9962,-0.6976,9.6134,1.8075,0.1332,0.1068,0.0758,-0.0535,0.164,-0.1298,18.53,-38.62,-2.7,271.63,-79.47,14.82,48.84388,2.353328,91.4,NaN,,11.998,,0 / 29,,1917,2022-01-12 10:13:09:028
-1.0962,9.8845,1.9962,-0.6976,9.6134,1.8075,0.1332,0.1068,0.0758,-0.0535,0.164,-0.1298,18.53,-38.62,-2.7,271.63,-79.47,14.82,48.84388,2.353328,91.4,NaN,,11.998,,0 / 29,,1921,2022-01-12 10:13:09:032
-1.0962,9.8845,1.9962,-0.6976,9.6134,1.8075,0.1332,0.1068,0.0758,-0.0535,0.164,-0.1298,18.53,-38.62,-2.7,271.63,-79.47,14.82,48.84388,2.353328,91.4,NaN,,11.998,,0 / 29,,1927,2022-01-12 10:13:09:038
-1.0962,9.8845,1.9962,-0.6976,9.6134,1.8075,0.1332,0.1068,0.0758,-0.0535,0.164,-0.1298,18.53,-38.62,-2.7,271.63,-79.47,14.82,48.84388,2.353328,91.4,NaN,,11.998,,0 / 29,,1932,2022-01-12 10:13:09:043
-1.0208,9.7095,2.1078,-0.6976,9.6134,1.8075,0.1332,0.1068,0.0758,-0.0535,0.164,-0.1298,18.68,-38.4,-3.15,276.66,-78.61,21.1,48.84388,2.353328,91.4,NaN,,11.998,,0 / 29,,1937,2022-01-12 10:13:09:048
-1.0208,9.7095,2.1078,-0.6976,9.6134,1.8075,0.1332,0.1068,0.0758,-0.0535,0.164,-0.1298,18.68,-38.4,-3.15,276.66,-78.61,21.1,48.84388,2.353328,91.4,NaN,,11.998,,0 / 29,,1942,2022-01-12 10:13:09:053
-1.0208,9.7095,2.1078,-0.6976,9.6134,1.8075,0.1332,0.1068,0.0758,-0.0535,0.164,-0.1298,18.68,-38.4,-3.15,276.66,-78.61,21.1,48.84388,2.353328,91.4,NaN,,11.998,,0 / 29,,1947,2022-01-12 10:13:09:058
-1.0208,9.7095,2.1078,-0.6976,9.6134,1.8075,0.1332,0.1068,0.0758,-0.0535,0.164,-0.1298,18.68,-38.4,-3.15,276.66,-78.61,21.1,48.84388,2.353328,91.4,NaN,,11.998,,0 / 29,,1954,2022-01-12 10:13:09:065
-1.0208,9.7095,2.1078,-0.6976,9.6134,1.8075,0.1332,0.1068,0.0758,-0.0535,0.164,-0.1298,18.68,-38.4,-3.15,276.66,-78.61,21.1,48.84388,2.353328,91.4,NaN,,11.998,,0 / 29,,1957,2022-01-12 10:13:09:068
-1.0208,9.7095,2.1078,-0.6976,9.6134,1.8075,0.1332,0.1068,0.0758,-0.0535,0.164,-0.1298,18.68,-38.4,-3.15,276.66,-78.61,21.1,48.84388,2.353328,91.4,NaN,,11.998,,0 / 29,,1962,2022-01-12 10:13:09:073
-1.0208,9.7095,2.1078,-0.6976,9.6134,1.8075,0.1332,0.1068,0.0758,-0.0535,0.164,-0.1298,18.68,-38.4,-3.15,276.66,-78.61,21.1,48.84388,2.353328,91.4,NaN,,11.998,,0 / 29,,1967,2022-01-12 10:13:09:078
-1.0208,9.7095,2.1078,-0.6976,9.6134,1.8075,0.1332,0.1068,0.0758,-0.0535,0.164,-0.1298,18.68,-38.4,-3.15,276.66,-78.61,21.1,48.84388,2.353328,91.4,NaN,,11.998,,0 / 29,,1972,2022-01-12 10:13:09:083
-1.0208,9.7095,2.1078,-0.7715,9.6014,1.8406,0.1332,0.1068,0.0758,-0.0535,0.164,-0.1298,18.68,-38.4,-3.15,276.66,-78.61,21.1,48.84388,2.353328,91.4,NaN,,11.998,,0 / 29,,1977,2022-01-12 10:13:09:088
-1.0208,9.7095,2.1078,-0.7715,9.6014,1.8406,0.1332,0.1068,0.0758,-0.0535,0.164,-0.1298,18.68,-38.4,-3.15,276.66,-78.61,21.1,48.84388,2.353328,91.4,NaN,,11.998,,0 / 29,,1982,2022-01-12 10:13:09:093
-1.0208,9.7095,2.1078,-0.7715,9.6014,1.8406,0.1332,0.1068,0.0758,-0.0535,0.164,-0.1298,18.68,-38.4,-3.15,276.66,-78.61,21.1,48.84388,2.353328,91.4,NaN,,11.998,,0 / 29,,1987,2022-01-12 10:13:09:098
-1.0208,9.7095,2.1078,-0.7715,9.6014,1.8406,0.1332,0.1068,0.0758,-0.0535,0.164,-0.1298,18.68,-38.4,-3.15,276.66,-78.61,21.1,48.84388,2.353328,91.4,NaN,,11.998,,0 / 29,,1992,2022-01-12 10:13:09:103
-1.0208,9.7095,2.1078,-0.7715,9.6014,1.8406,0.1332,0.1068,0.0758,-0.0535,0.164,-0.1298,18.68,-38.4,-3.15,276.66,-78.61,21.1,48.84388,2.353328,91.4,NaN,,11.998,,0 / 29,,1998,2022-01-12 10:13:09:109
-1.0208,9.7095,2.1078,-0.7715,9.6014,1.8406,0.1332,0.1068,0.0758,-0.0535,0.164,-0.1298,18.68,-38.4,-3.15,276.66,-78.61,21.1,48.84388,2.353328,91.4,NaN,,11.998,,0 / 29,,2002,2022-01-12 10:13:09:113
-0.8435,9.6676,1.6202,-0.7715,9.6014,1.8406,0.1332,0.1068,0.0758,-0.0535,0.164,-0.1298,18.68,-38.4,-3.15,276.66,-78.61,21.1,48.84388,2.353328,91.4,NaN,,11.998,,0 / 29,,2007,2022-01-12 10:13:09:118
-0.8435,9.6676,1.6202,-0.7715,9.6014,1.8406,0.1332,0.1068,0.0758,-0.0535,0.164,-0.1298,18.68,-38.4,-3.15,276.66,-78.61,21.1,48.84388,2.353328,91.4,NaN,,11.998,,0 / 29,,2012,2022-01-12 10:13:09:123
-0.8435,9.6676,1.6202,-0.7715,9.6014,1.8406,0.1332,0.1068,0.0758,-0.0535,0.164,-0.1298,18.68,-38.4,-3.15,276.66,-78.61,21.1,48.84388,2.353328,91.4,NaN,,11.998,,0 / 29,,2017,2022-01-12 10:13:09:128
-0.8435,9.6676,1.6202,-0.7715,9.6014,1.8406,0.1332,0.1068,0.0758,-0.0535,0.164,-0.1298,18.68,-38.4,-3.15,276.66,-78.61,21.1,48.84388,2.353328,91.4,NaN,,11.998,,0 / 29,,2022,2022-01-12 10:13:09:133
-0.8435,9.6676,1.6202,-0.7715,9.6014,1.8406,-0.1312,0.1174,0.0589,-0.0067,0.0461,-0.0561,18.68,-38.4,-3.15,276.66,-78.61,21.1,48.84388,2.353328,91.4,NaN,,11.998,,0 / 29,,2027,2022-01-12 10:13:09:138
-0.8435,9.6676,1.6202,-0.7715,9.6014,1.8406,-0.1312,0.1174,0.0589,-0.0067,0.0461,-0.0561,18.68,-38.4,-3.15,276.66,-78.61,21.1,48.84388,2.353328,91.4,NaN,,11.998,,0 / 29,,2032,2022-01-12 10:13:09:143
-0.8435,9.6676,1.6202,-0.7715,9.6014,1.8406,-0.1312,0.1174,0.0589,-0.0067,0.0461,-0.0561,18.75,-38.32,-3.3,277.54,-78.26,22.74,48.84388,2.353328,91.4,NaN,,11.998,,0 / 29,,2037,2022-01-12 10:13:09:148
-0.8435,9.6676,1.6202,-0.7715,9.6014,1.8406,-0.1312,0.1174,0.0589,-0.0067,0.0461,-0.0561,18.75,-38.32,-3.3,277.54,-78.26,22.74,48.84388,2.353328,91.4,NaN,,11.998,,0 / 29,,2043,2022-01-12 10:13:09:154
-0.8435,9.6676,1.6202,-0.7715,9.6014,1.8406,-0.1312,0.1174,0.0589,-0.0067,0.0461,-0.0561,18.75,-38.32,-3.3,277.54,-78.26,22.74,48.84388,2.353328,91.4,NaN,,11.998,,0 / 29,,2050,2022-01-12 10:13:09:161
-0.8435,9.6676,1.6202,-0.7715,9.6014,1.8406,-0.1312,0.1174,0.0589,-0.0067,0.0461,-0.0561,18.75,-38.32,-3.3,277.54,-78.26,22.74,48.84388,2.353328,91.4,NaN,,11.998,,0 / 29,,2052,2022-01-12 10:13:09:163
-0.8435,9.6676,1.6202,-0.7715,9.6014,1.8406,-0.1312,0.1174,0.0589,-0.0067,0.0461,-0.0561,18.75,-38.32,-3.3,277.54,-78.26,22.74,48.84388,2.353328,91.4,NaN,,11.998,,0 / 29,,2056,2022-01-12 10:13:09:167
-0.8435,9.6676,1.6202,-0.7715,9.6014,1.8406,-0.1312,0.1174,0.0589,-0.0067,0.0461,-0.0561,18.75,-38.32,-3.3,277.54,-78.26,22.74,48.84388,2.353328,91.4,NaN,,11.998,,0 / 29,,2062,2022-01-12 10:13:09:173
-0.8435,9.6676,1.6202,-0.7715,9.6014,1.8406,-0.1312,0.1174,0.0589,-0.0067,0.0461,-0.0561,18.75,-38.32,-3.3,277.54,-78.26,22.74,48.84388,2.353328,91.4,NaN,,11.998,,0 / 29,,2067,2022-01-12 10:13:09:178
-0.7226,9.6772,1.9531,-0.7715,9.6014,1.8406,-0.1312,0.1174,0.0589,-0.0067,0.0461,-0.0561,18.75,-38.32,-3.3,277.54,-78.26,22.74,48.84388,2.353328,91.4,NaN,,11.998,,0 / 29,,2072,2022-01-12 10:13:09:183
-0.7226,9.6772,1.9531,-0.7715,9.6014,1.8406,-0.1312,0.1174,0.0589,-0.0067,0.0461,-0.0561,18.75,-38.32,-3.3,277.54,-78.26,22.74,48.84388,2.353328,91.4,NaN,,11.998,,0 / 29,,2077,2022-01-12 10:13:09:188
-0.7226,9.6772,1.9531,-0.8512,9.5969,1.8289,-0.1312,0.1174,0.0589,-0.0067,0.0461,-0.0561,18.75,-38.32,-3.3,277.54,-78.26,22.74,48.84388,2.353328,91.4,NaN,,11.998,,0 / 29,,2082,2022-01-12 10:13:09:193
-0.7226,9.6772,1.9531,-0.8512,9.5969,1.8289,-0.1312,0.1174,0.0589,-0.0067,0.0461,-0.0561,18.75,-38.32,-3.3,277.54,-78.26,22.74,48.84388,2.353328,91.4,NaN,,11.998,,0 / 29,,2087,2022-01-12 10:13:09:198
-0.7226,9.6772,1.9531,-0.8512,9.5969,1.8289,-0.1312,0.1174,0.0589,-0.0067,0.0461,-0.0561,18.75,-38.32,-3.3,277.54,-78.26,22.74,48.84388,2.353328,91.4,NaN,,11.998,,0 / 29,,2093,2022-01-12 10:13:09:204
-0.7226,9.6772,1.9531,-0.8512,9.5969,1.8289,-0.1312,0.1174,0.0589,-0.0067,0.0461,-0.0561,18.75,-38.32,-3.3,277.54,-78.26,22.74,48.84388,2.353328,91.4,NaN,,11.998,,0 / 29,,2098,2022-01-12 10:13:09:209
-0.7226,9.6772,1.9531,-0.8512,9.5969,1.8289,-0.1312,0.1174,0.0589,-0.0067,0.0461,-0.0561,18.75,-38.32,-3.3,277.54,-78.26,22.74,48.84388,2.353328,91.4,NaN,,11.998,,0 / 29,,2102,2022-01-12 10:13:09:213
-0.7226,9.6772,1.9531,-0.8512,9.5969,1.8289,-0.1312,0.1174,0.0589,-0.0067,0.0461,-0.0561,18.75,-38.32,-3.3,277.54,-78.26,22.74,48.84388,2.353328,91.4,NaN,,11.998,,0 / 29,,2107,2022-01-12 10:13:09:218
-0.7226,9.6772,1.9531,-0.8512,9.5969,1.8289,-0.1312,0.1174,0.0589,-0.0067,0.0461,-0.0561,18.75,-38.32,-3.3,277.54,-78.26,22.74,48.84388,2.353328,91.4,NaN,,11.998,,0 / 29,,2112,2022-01-12 10:13:09:223
-0.7226,9.6772,1.9531,-0.8512,9.5969,1.8289,-0.1312,0.1174,0.0589,-0.0067,0.0461,-0.0561,18.75,-38.32,-3.3,277.54,-78.26,22.74,48.84388,2.353328,91.4,NaN,,11.998,,0 / 29,,2117,2022-01-12 10:13:09:228
-0.7226,9.6772,1.9531,-0.8512,9.5969,1.8289,-0.1312,0.1174,0.0589,-0.0067,0.0461,-0.0561,18.75,-38.32,-3.3,277.54,-78.26,22.74,48.84388,2.353328,91.4,NaN,,11.998,,0 / 29,,2123,2022-01-12 10:13:09:234
-0.7226,9.6772,1.9531,-0.8512,9.5969,1.8289,-0.1312,0.1174,0.0589,-0.0067,0.0461,-0.0561,18.75,-38.32,-3.3,277.54,-78.26,22.74,48.84388,2.353328,91.4,NaN,,11.998,,0 / 29,,2127,2022-01-12 10:13:09:238
-0.9251,9.67,1.9663,-0.8512,9.5969,1.8289,-0.1312,0.1174,0.0589,-0.0067,0.0461,-0.0561,18.9,-37.95,-3.15,279.57,-78.13,24.96,48.84388,2.353328,91.4,NaN,,11.998,,0 / 29,,2132,2022-01-12 10:13:09:243
-0.9251,9.67,1.9663,-0.8512,9.5969,1.8289,-0.1312,0.1174,0.0589,-0.0067,0.0461,-0.0561,18.9,-37.95,-3.15,279.57,-78.13,24.96,48.84388,2.353328,91.4,NaN,,11.998,,0 / 29,,2139,2022-01-12 10:13:09:250
-0.9251,9.67,1.9663,-0.8512,9.5969,1.8289,-0.1312,0.1174,0.0589,-0.0067,0.0461,-0.0561,18.9,-37.95,-3.15,279.57,-78.13,24.96,48.84388,2.353328,91.4,NaN,,11.998,,0 / 29,,2141,2022-01-12 10:13:09:252
-0.9251,9.67,1.9663,-0.8512,9.5969,1.8289,-0.1312,0.1174,0.0589,-0.0067,0.0461,-0.0561,18.9,-37.95,-3.15,279.57,-78.13,24.96,48.84388,2.353328,91.4,NaN,,11.998,,0 / 29,,2147,2022-01-12 10:13:09:258
-0.9251,9.67,1.9663,-0.8512,9.5969,1.8289,-0.1312,0.1174,0.0589,-0.0067,0.0461,-0.0561,18.9,-37.95,-3.15,279.57,-78.13,24.96,48.84388,2.353328,91.4,NaN,,11.998,,0 / 29,,2152,2022-01-12 10:13:09:263
-0.9251,9.67,1.9663,-0.8512,9.5969,1.8289,-0.1312,0.1174,0.0589,-0.0067,0.0461,-0.0561,18.9,-37.95,-3.15,279.57,-78.13,24.96,48.84388,2.353328,91.4,NaN,,11.998,,0 / 29,,2157,2022-01-12 10:13:09:268
-0.9251,9.67,1.9663,-0.8587,9.6004,1.8072,0.1547,0.0735,0.0865,0.0517,0.0104,-0.0241,18.9,-37.95,-3.15,279.57,-78.13,24.96,48.84388,2.353328,91.4,NaN,,11.998,,0 / 29,,2161,2022-01-12 10:13:09:272
-0.9251,9.67,1.9663,-0.8587,9.6004,1.8072,0.1547,0.0735,0.0865,0.0517,0.0104,-0.0241,18.9,-37.95,-3.15,279.57,-78.13,24.96,48.84388,2.353328,91.4,NaN,,11.998,,0 / 29,,2167,2022-01-12 10:13:09:278
-0.9251,9.67,1.9663,-0.8587,9.6004,1.8072,0.1547,0.0735,0.0865,0.0517,0.0104,-0.0241,18.9,-37.95,-3.15,279.57,-78.13,24.96,48.84388,2.353328,91.4,NaN,,11.998,,0 / 29,,2171,2022-01-12 10:13:09:282
-0.9251,9.67,1.9663,-0.8587,9.6004,1.8072,0.1547,0.0735,0.0865,0.0517,0.0104,-0.0241,18.9,-37.95,-3.15,279.57,-78.13,24.96,48.84388,2.353328,91.4,NaN,,11.998,,0 / 29,,2177,2022-01-12 10:13:09:288
-0.9251,9.67,1.9663,-0.8587,9.6004,1.8072,0.1547,0.0735,0.0865,0.0517,0.0104,-0.0241,18.9,-37.95,-3.15,279.57,-78.13,24.96,48.84388,2.353328,91.4,NaN,,11.998,,0 / 29,,2181,2022-01-12 10:13:09:292
-0.9251,9.67,1.9663,-0.8587,9.6004,1.8072,0.1547,0.0735,0.0865,0.0517,0.0104,-0.0241,18.9,-37.95,-3.15,279.57,-78.13,24.96,48.84388,2.353328,91.4,NaN,,11.998,,0 / 29,,2187,2022-01-12 10:13:09:298
-0.9251,9.67,1.9663,-0.8587,9.6004,1.8072,0.1547,0.0735,0.0865,0.0517,0.0104,-0.0241,18.9,-37.95,-3.15,279.57,-78.13,24.96,48.84388,2.353328,91.4,NaN,,11.998,,0 / 29,,2191,2022-01-12 10:13:09:302
-0.9251,9.67,1.9663,-0.8587,9.6004,1.8072,0.1547,0.0735,0.0865,0.0517,0.0104,-0.0241,18.9,-37.95,-3.15,279.57,-78.13,24.96,48.84388,2.353328,91.4,NaN,,11.998,,0 / 29,,2197,2022-01-12 10:13:09:308
-0.9251,9.67,1.9663,-0.8587,9.6004,1.8072,0.1547,0.0735,0.0865,0.0517,0.0104,-0.0241,18.9,-37.95,-3.15,279.57,-78.13,24.96,48.84388,2.353328,91.4,NaN,,11.998,,0 / 29,,2202,2022-01-12 10:13:09:313
-0.7298,9.6808,1.8248,-0.8587,9.6004,1.8072,0.1547,0.0735,0.0865,0.0517,0.0104,-0.0241,18.9,-37.95,-3.15,279.57,-78.13,24.96,48.84388,2.353328,91.4,NaN,,11.998,,0 / 29,,2207,2022-01-12 10:13:09:318
-0.7298,9.6808,1.8248,-0.8587,9.6004,1.8072,0.1547,0.0735,0.0865,0.0517,0.0104,-0.0241,18.9,-37.95,-3.15,279.57,-78.13,24.96,48.84388,2.353328,91.4,NaN,,11.998,,0 / 29,,2212,2022-01-12 10:13:09:323
-0.7298,9.6808,1.8248,-0.8587,9.6004,1.8072,0.1547,0.0735,0.0865,0.0517,0.0104,-0.0241,18.9,-37.95,-3.15,279.57,-78.13,24.96,48.84388,2.353328,91.4,NaN,,11.998,,0 / 29,,2216,2022-01-12 10:13:09:327
-0.7298,9.6808,1.8248,-0.8587,9.6004,1.8072,0.1547,0.0735,0.0865,0.0517,0.0104,-0.0241,18.9,-37.95,-3.15,279.57,-78.13,24.96,48.84388,2.353328,91.4,NaN,,11.998,,0 / 29,,2222,2022-01-12 10:13:09:333
-0.7298,9.6808,1.8248,-0.8587,9.6004,1.8072,0.1547,0.0735,0.0865,0.0517,0.0104,-0.0241,18.9,-37.95,-3.15,279.57,-78.13,24.96,48.84388,2.353328,91.4,NaN,,11.998,,0 / 29,,2226,2022-01-12 10:13:09:337
-0.7298,9.6808,1.8248,-0.8587,9.6004,1.8072,0.1547,0.0735,0.0865,0.0517,0.0104,-0.0241,19.05,-38.03,-3.22,280.29,-78.23,25.41,48.84388,2.353328,91.4,NaN,,11.998,,0 / 29,,2232,2022-01-12 10:13:09:343
-0.7298,9.6808,1.8248,-0.8587,9.6004,1.8072,0.1547,0.0735,0.0865,0.0517,0.0104,-0.0241,19.05,-38.03,-3.22,280.29,-78.23,25.41,48.84388,2.353328,91.4,NaN,,11.998,,0 / 29,,2236,2022-01-12 10:13:09:347
-0.7298,9.6808,1.8248,-0.8587,9.6004,1.8072,0.1547,0.0735,0.0865,0.0517,0.0104,-0.0241,19.05,-38.03,-3.22,280.29,-78.23,25.41,48.84388,2.353328,91.4,NaN,,11.998,,0 / 29,,2242,2022-01-12 10:13:09:353
-0.7298,9.6808,1.8248,-0.8587,9.6004,1.8072,0.1547,0.0735,0.0865,0.0517,0.0104,-0.0241,19.05,-38.03,-3.22,280.29,-78.23,25.41,48.84388,2.353328,91.4,NaN,,11.998,,0 / 29,,2246,2022-01-12 10:13:09:357
-0.7298,9.6808,1.8248,-0.8587,9.6004,1.8072,0.1547,0.0735,0.0865,0.0517,0.0104,-0.0241,19.05,-38.03,-3.22,280.29,-78.23,25.41,48.84388,2.353328,91.4,NaN,,11.998,,0 / 29,,2252,2022-01-12 10:13:09:363
-0.7298,9.6808,1.8248,-0.8587,9.6004,1.8072,0.1547,0.0735,0.0865,0.0517,0.0104,-0.0241,19.05,-38.03,-3.22,280.29,-78.23,25.41,48.84388,2.353328,91.4,NaN,,11.998,,0 / 29,,2256,2022-01-12 10:13:09:367
-0.7298,9.6808,1.8248,-0.8587,9.6004,1.8072,0.1547,0.0735,0.0865,0.0517,0.0104,-0.0241,19.05,-38.03,-3.22,280.29,-78.23,25.41,48.84388,2.353328,91.4,NaN,,11.998,,0 / 29,,2262,2022-01-12 10:13:09:373
-0.9873,9.658,1.759,-0.8635,9.6138,1.732,0.078,0.0116,0.0642,0.0517,0.0104,-0.0241,19.05,-38.03,-3.22,280.29,-78.23,25.41,48.84388,2.353328,91.4,NaN,,11.998,,0 / 29,,2267,2022-01-12 10:13:09:378
-0.9873,9.658,1.759,-0.8635,9.6138,1.732,0.078,0.0116,0.0642,0.0517,0.0104,-0.0241,19.05,-38.03,-3.22,280.29,-78.23,25.41,48.84388,2.353328,91.4,NaN,,11.998,,0 / 29,,2271,2022-01-12 10:13:09:382
-0.9873,9.658,1.759,-0.8635,9.6138,1.732,0.078,0.0116,0.0642,0.0517,0.0104,-0.0241,19.05,-38.03,-3.22,280.29,-78.23,25.41,48.84388,2.353328,91.4,NaN,,11.998,,0 / 29,,2277,2022-01-12 10:13:09:388
-0.9873,9.658,1.759,-0.8635,9.6138,1.732,0.078,0.0116,0.0642,0.0517,0.0104,-0.0241,19.05,-38.03,-3.22,280.29,-78.23,25.41,48.84388,2.353328,91.4,NaN,,11.998,,0 / 29,,2282,2022-01-12 10:13:09:393
-0.9873,9.658,1.759,-0.8635,9.6138,1.732,0.078,0.0116,0.0642,0.1012,0.0142,0.0138,19.05,-38.03,-3.22,280.29,-78.23,25.41,48.84388,2.353328,91.4,NaN,,11.998,,0 / 29,,2286,2022-01-12 10:13:09:397
-0.9873,9.658,1.759,-0.8635,9.6138,1.732,0.078,0.0116,0.0642,0.1012,0.0142,0.0138,19.05,-38.03,-3.22,280.29,-78.23,25.41,48.84388,2.353328,91.4,NaN,,11.998,,0 / 29,,2291,2022-01-12 10:13:09:402
-0.9873,9.658,1.759,-0.8635,9.6138,1.732,0.078,0.0116,0.0642,0.1012,0.0142,0.0138,19.05,-38.03,-3.22,280.29,-78.23,25.41,48.84388,2.353328,91.4,NaN,,11.998,,0 / 29,,2297,2022-01-12 10:13:09:408
-0.9873,9.658,1.759,-0.8635,9.6138,1.732,0.078,0.0116,0.0642,0.1012,0.0142,0.0138,19.05,-38.03,-3.22,280.29,-78.23,25.41,48.84388,2.353328,91.4,NaN,,11.998,,0 / 29,,2301,2022-01-12 10:13:09:412
-0.9873,9.658,1.759,-0.8635,9.6138,1.732,0.078,0.0116,0.0642,0.1012,0.0142,0.0138,19.05,-38.03,-3.22,280.29,-78.23,25.41,48.84388,2.353328,91.4,NaN,,11.998,,0 / 29,,2307,2022-01-12 10:13:09:418
-0.9873,9.658,1.759,-0.8635,9.6138,1.732,0.078,0.0116,0.0642,0.1012,0.0142,0.0138,19.05,-38.03,-3.22,280.29,-78.23,25.41,48.84388,2.353328,91.4,NaN,,11.998,,0 / 29,,2312,2022-01-12 10:13:09:423
-0.9873,9.658,1.759,-0.8635,9.6138,1.732,0.078,0.0116,0.0642,0.1012,0.0142,0.0138,19.05,-38.03,-3.22,280.29,-78.23,25.41,48.84388,2.353328,91.4,NaN,,11.998,,0 / 29,,2316,2022-01-12 10:13:09:427
-0.9873,9.658,1.759,-0.8635,9.6138,1.732,0.078,0.0116,0.0642,0.1012,0.0142,0.0138,19.05,-38.03,-3.22,280.29,-78.23,25.41,48.84388,2.353328,91.4,NaN,,11.998,,0 / 29,,2322,2022-01-12 10:13:09:433
-0.9311,9.6485,1.3759,-0.8718,9.6199,1.6937,-0.1421,0.0134,0.0078,0.1012,0.0142,0.0138,19.05,-38.03,-3.22,280.29,-78.23,25.41,48.84388,2.353328,91.4,NaN,,11.998,,0 / 29,,2327,2022-01-12 10:13:09:438
-0.9311,9.6485,1.3759,-0.8718,9.6199,1.6937,-0.1421,0.0134,0.0078,0.1012,0.0142,0.0138,19.28,-37.87,-3.15,283.64,-78.8,27.24,48.84388,2.353328,91.4,NaN,,11.998,,0 / 29,,2331,2022-01-12 10:13:09:442
-0.9311,9.6485,1.3759,-0.8718,9.6199,1.6937,-0.1421,0.0134,0.0078,0.1012,0.0142,0.0138,19.28,-37.87,-3.15,283.64,-78.8,27.24,48.84388,2.353328,91.4,NaN,,11.998,,0 / 29,,2337,2022-01-12 10:13:09:448
-0.9311,9.6485,1.3759,-0.8718,9.6199,1.6937,-0.1421,0.0134,0.0078,0.1012,0.0142,0.0138,19.28,-37.87,-3.15,283.64,-78.8,27.24,48.84388,2.353328,91.4,NaN,,11.998,,0 / 29,,2342,2022-01-12 10:13:09:453
-0.9311,9.6485,1.3759,-0.8718,9.6199,1.6937,-0.1421,0.0134,0.0078,0.1012,0.0142,0.0138,19.28,-37.87,-3.15,283.64,-78.8,27.24,48.84388,2.353328,91.4,NaN,,11.998,,0 / 29,,2350,2022-01-12 10:13:09:461
-0.9311,9.6485,1.3759,-0.8718,9.6199,1.6937,-0.1421,0.0134,0.0078,0.1012,0.0142,0.0138,19.28,-37.87,-3.15,283.64,-78.8,27.24,48.84388,2.353328,91.4,NaN,,11.998,,0 / 29,,2352,2022-01-12 10:13:09:463
-0.9311,9.6485,1.3759,-0.8718,9.6199,1.6937,-0.1421,0.0134,0.0078,0.1012,0.0142,0.0138,19.28,-37.87,-3.15,283.64,-78.8,27.24,48.84388,2.353328,91.4,NaN,,11.998,,0 / 29,,2356,2022-01-12 10:13:09:467
-0.9311,9.6485,1.3759,-0.8718,9.6199,1.6937,-0.1421,0.0134,0.0078,0.0039,-0.0027,0.0258,19.28,-37.87,-3.15,283.64,-78.8,27.24,48.84388,2.353328,91.4,NaN,,11.998,,0 / 29,,2362,2022-01-12 10:13:09:473
-0.9311,9.6485,1.3759,-0.8718,9.6199,1.6937,-0.1421,0.0134,0.0078,0.0039,-0.0027,0.0258,19.28,-37.87,-3.15,283.64,-78.8,27.24,48.84388,2.353328,91.4,NaN,,11.998,,0 / 29,,2367,2022-01-12 10:13:09:478
-0.9311,9.6485,1.3759,-0.8718,9.6199,1.6937,-0.1421,0.0134,0.0078,0.0039,-0.0027,0.0258,19.28,-37.87,-3.15,283.64,-78.8,27.24,48.84388,2.353328,91.4,NaN,,11.998,,0 / 29,,2371,2022-01-12 10:13:09:482
-0.9311,9.6485,1.3759,-0.8718,9.6199,1.6937,-0.1421,0.0134,0.0078,0.0039,-0.0027,0.0258,19.28,-37.87,-3.15,283.64,-78.8,27.24,48.84388,2.353328,91.4,NaN,,11.998,,0 / 29,,2377,2022-01-12 10:13:09:488
-0.9311,9.6485,1.3759,-0.8718,9.6199,1.6937,-0.1421,0.0134,0.0078,0.0039,-0.0027,0.0258,19.28,-37.87,-3.15,283.64,-78.8,27.24,48.84388,2.353328,91.4,NaN,,11.998,,0 / 29,,2382,2022-01-12 10:13:09:493
-0.9311,9.6485,1.3759,-0.8718,9.6199,1.6937,-0.1421,0.0134,0.0078,0.0039,-0.0027,0.0258,19.28,-37.87,-3.15,283.64,-78.8,27.24,48.84388,2.353328,91.4,NaN,,11.998,,0 / 29,,2386,2022-01-12 10:13:09:497
-0.9311,9.6485,1.3759,-0.8718,9.6199,1.6937,-0.1421,0.0134,0.0078,0.0039,-0.0027,0.0258,19.28,-37.87,-3.15,283.64,-78.8,27.24,48.84388,2.353328,91.4,NaN,,11.998,,0 / 29,,2392,2022-01-12 10:13:09:503
-1.1118,9.5862,1.5879,-0.8664,9.6234,1.6765,-0.1636,-0.0192,-0.2223,0.0039,-0.0027,0.0258,19.28,-37.87,-3.15,283.64,-78.8,27.24,48.84388,2.353328,91.4,NaN,,11.998,,0 / 29,,2397,2022-01-12 10:13:09:508
-1.1118,9.5862,1.5879,-0.8664,9.6234,1.6765,-0.1636,-0.0192,-0.2223,0.0039,-0.0027,0.0258,19.28,-37.87,-3.15,283.64,-78.8,27.24,48.84388,2.353328,91.4,NaN,,11.998,,0 / 29,,2402,2022-01-12 10:13:09:513
-1.1118,9.5862,1.5879,-0.8664,9.6234,1.6765,-0.1636,-0.0192,-0.2223,0.0039,-0.0027,0.0258,19.28,-37.87,-3.15,283.64,-78.8,27.24,48.84388,2.353328,91.4,NaN,,11.998,,0 / 29,,2406,2022-01-12 10:13:09:517
-1.1118,9.5862,1.5879,-0.8664,9.6234,1.6765,-0.1636,-0.0192,-0.2223,0.0039,-0.0027,0.0258,19.28,-37.87,-3.15,283.64,-78.8,27.24,48.84388,2.353328,91.4,NaN,,11.998,,0 / 29,,2412,2022-01-12 10:13:09:523
-1.1118,9.5862,1.5879,-0.8664,9.6234,1.6765,-0.1636,-0.0192,-0.2223,0.0039,-0.0027,0.0258,19.28,-37.87,-3.15,283.64,-78.8,27.24,48.84388,2.353328,91.4,NaN,,11.998,,0 / 29,,2416,2022-01-12 10:13:09:527
-1.1118,9.5862,1.5879,-0.8664,9.6234,1.6765,-0.1636,-0.0192,-0.2223,0.0039,-0.0027,0.0258,19.28,-37.87,-3.15,283.64,-78.8,27.24,48.84388,2.353328,91.4,NaN,,11.998,,0 / 29,,2422,2022-01-12 10:13:09:533
-1.1118,9.5862,1.5879,-0.8664,9.6234,1.6765,-0.1636,-0.0192,-0.2223,0.0039,-0.0027,0.0258,19.28,-37.87,-3.15,283.64,-78.8,27.24,48.84388,2.353328,91.4,NaN,,11.998,,0 / 29,,2426,2022-01-12 10:13:09:537
-1.1118,9.5862,1.5879,-0.8664,9.6234,1.6765,-0.1636,-0.0192,-0.2223,0.0039,-0.0027,0.0258,19.28,-37.87,-2.93,283.99,-78.9,27.33,48.84388,2.353328,91.4,NaN,,11.998,,0 / 29,,2432,2022-01-12 10:13:09:543
-1.1118,9.5862,1.5879,-0.8664,9.6234,1.6765,-0.1636,-0.0192,-0.2223,0.0039,-0.0027,0.0258,19.28,-37.87,-2.93,283.99,-78.9,27.33,48.84388,2.353328,91.4,NaN,,11.998,,0 / 29,,2437,2022-01-12 10:13:09:548
-1.1118,9.5862,1.5879,-0.8664,9.6234,1.6765,-0.1636,-0.0192,-0.2223,0.0039,-0.0027,0.0258,19.28,-37.87,-2.93,283.99,-78.9,27.33,48.84388,2.353328,91.4,NaN,,11.998,,0 / 29,,2441,2022-01-12 10:13:09:552
-1.1118,9.5862,1.5879,-0.8664,9.6234,1.6765,-0.1636,-0.0192,-0.2223,0.0039,-0.0027,0.0258,19.28,-37.87,-2.93,283.99,-78.9,27.33,48.84388,2.353328,91.4,NaN,,11.998,,0 / 29,,2447,2022-01-12 10:13:09:558
-1.1118,9.5862,1.5879,-0.8664,9.6234,1.6765,-0.1636,-0.0192,-0.2223,0.0039,-0.0027,0.0258,19.28,-37.87,-2.93,283.99,-78.9,27.33,48.84388,2.353328,91.4,NaN,,11.998,,0 / 29,,2451,2022-01-12 10:13:09:562
-1.1118,9.5862,1.5879,-0.8664,9.6234,1.6765,-0.1636,-0.0192,-0.2223,0.0039,-0.0027,0.0258,19.28,-37.87,-2.93,283.99,-78.9,27.33,48.84388,2.353328,91.4,NaN,,11.998,,0 / 29,,2457,2022-01-12 10:13:09:568
-1.0172,9.6138,1.8491,-0.8702,9.624,1.6707,-0.0208,-0.0715,-0.1658,0.0039,-0.0027,0.0258,19.28,-37.87,-2.93,283.99,-78.9,27.33,48.84388,2.353328,91.4,NaN,,11.998,,0 / 29,,2462,2022-01-12 10:13:09:573
-1.0172,9.6138,1.8491,-0.8702,9.624,1.6707,-0.0208,-0.0715,-0.1658,0.0039,-0.0027,0.0258,19.28,-37.87,-2.93,283.99,-78.9,27.33,48.84388,2.353328,91.4,NaN,,11.998,,0 / 29,,2466,2022-01-12 10:13:09:577
-1.0172,9.6138,1.8491,-0.8702,9.624,1.6707,-0.0208,-0.0715,-0.1658,0.0039,-0.0027,0.0258,19.28,-37.87,-2.93,283.99,-78.9,27.33,48.84388,2.353328,91.4,NaN,,11.998,,0 / 29,,2472,2022-01-12 10:13:09:583
-1.0172,9.6138,1.8491,-0.8702,9.624,1.6707,-0.0208,-0.0715,-0.1658,0.0039,-0.0027,0.0258,19.28,-37.87,-2.93,283.99,-78.9,27.33,48.84388,2.353328,91.4,NaN,,11.998,,0 / 29,,2476,2022-01-12 10:13:09:587
-1.0172,9.6138,1.8491,-0.8702,9.624,1.6707,-0.0208,-0.0715,-0.1658,0.0039,-0.0027,0.0258,19.28,-37.87,-2.93,283.99,-78.9,27.33,48.84388,2.353328,91.4,NaN,,11.998,,0 / 29,,2482,2022-01-12 10:13:09:593
-1.0172,9.6138,1.8491,-0.8702,9.624,1.6707,-0.0208,-0.0715,-0.1658,0.0039,-0.0027,0.0258,19.28,-37.87,-2.93,283.99,-78.9,27.33,48.84388,2.353328,91.4,NaN,,11.998,,0 / 29,,2487,2022-01-12 10:13:09:598
-1.0172,9.6138,1.8491,-0.8702,9.624,1.6707,-0.0208,-0.0715,-0.1658,0.0016,0.0434,0.0182,19.28,-37.87,-2.93,283.99,-78.9,27.33,48.84388,2.353328,91.4,NaN,,11.998,,0 / 29,,2491,2022-01-12 10:13:09:602
-1.0172,9.6138,1.8491,-0.8702,9.624,1.6707,-0.0208,-0.0715,-0.1658,0.0016,0.0434,0.0182,19.28,-37.87,-2.93,283.99,-78.9,27.33,48.84388,2.353328,91.4,NaN,,11.998,,0 / 29,,2496,2022-01-12 10:13:09:607
-1.0172,9.6138,1.8491,-0.8702,9.624,1.6707,-0.0208,-0.0715,-0.1658,0.0016,0.0434,0.0182,19.28,-37.87,-2.93,283.99,-78.9,27.33,48.84388,2.353328,91.4,NaN,,11.998,,0 / 29,,2502,2022-01-12 10:13:09:613
-1.0172,9.6138,1.8491,-0.8702,9.624,1.6707,-0.0208,-0.0715,-0.1658,0.0016,0.0434,0.0182,19.28,-37.87,-2.93,283.99,-78.9,27.33,48.84388,2.353328,91.4,NaN,,11.998,,0 / 29,,2506,2022-01-12 10:13:09:617
-1.0172,9.6138,1.8491,-0.8702,9.624,1.6707,-0.0208,-0.0715,-0.1658,0.0016,0.0434,0.0182,19.28,-37.87,-2.93,283.99,-78.9,27.33,48.84388,2.353328,91.4,NaN,,11.998,,0 / 29,,2512,2022-01-12 10:13:09:623
-1.0172,9.6138,1.8491,-0.8702,9.624,1.6707,-0.0208,-0.0715,-0.1658,0.0016,0.0434,0.0182,19.28,-37.87,-2.93,283.99,-78.9,27.33,48.84388,2.353328,91.4,NaN,,11.998,,0 / 29,,2517,2022-01-12 10:13:09:628
-1.0172,9.6138,1.8491,-0.8702,9.624,1.6707,-0.0208,-0.0715,-0.1658,0.0016,0.0434,0.0182,19.28,-37.87,-2.93,283.99,-78.9,27.33,48.84388,2.353328,91.4,NaN,,11.998,,0 / 29,,2522,2022-01-12 10:13:09:633
-1.0172,9.6138,1.8491,-0.8702,9.624,1.6707,-0.0208,-0.0715,-0.1658,0.0016,0.0434,0.0182,19.28,-37.87,-2.93,283.99,-78.9,27.33,48.84388,2.353328,91.4,NaN,,11.998,,0 / 29,,2526,2022-01-12 10:13:09:637
-0.8459,9.6257,1.9723,-0.8702,9.624,1.6707,-0.0208,-0.0715,-0.1658,0.0016,0.0434,0.0182,19.58,-37.87,-2.32,281.78,-78.93,27.51,48.84388,2.353328,91.4,NaN,,11.998,,0 / 29,,2532,2022-01-12 10:13:09:643
-0.8459,9.6257,1.9723,-0.8702,9.624,1.6707,-0.0208,-0.0715,-0.1658,0.0016,0.0434,0.0182,19.58,-37.87,-2.32,281.78,-78.93,27.51,48.84388,2.353328,91.4,NaN,,11.998,,0 / 29,,2536,2022-01-12 10:13:09:647
-0.8459,9.6257,1.9723,-0.8702,9.624,1.6707,-0.0208,-0.0715,-0.1658,0.0016,0.0434,0.0182,19.58,-37.87,-2.32,281.78,-78.93,27.51,48.84388,2.353328,91.4,NaN,,11.998,,0 / 29,,2541,2022-01-12 10:13:09:652
-0.8459,9.6257,1.9723,-0.8702,9.624,1.6707,-0.0208,-0.0715,-0.1658,0.0016,0.0434,0.0182,19.58,-37.87,-2.32,281.78,-78.93,27.51,48.84388,2.353328,91.4,NaN,,11.998,,0 / 29,,2547,2022-01-12 10:13:09:658
-0.8459,9.6257,1.9723,-0.8702,9.624,1.6707,-0.0208,-0.0715,-0.1658,0.0016,0.0434,0.0182,19.58,-37.87,-2.32,281.78,-78.93,27.51,48.84388,2.353328,91.4,NaN,,11.998,,0 / 29,,2551,2022-01-12 10:13:09:662
-0.8459,9.6257,1.9723,-0.8702,9.624,1.6707,-0.0208,-0.0715,-0.1658,0.0016,0.0434,0.0182,19.58,-37.87,-2.32,281.78,-78.93,27.51,48.84388,2.353328,91.4,NaN,,11.998,,0 / 29,,2557,2022-01-12 10:13:09:668
-0.8459,9.6257,1.9723,-0.8702,9.624,1.6707,-0.0208,-0.0715,-0.1658,0.0016,0.0434,0.0182,19.58,-37.87,-2.32,281.78,-78.93,27.51,48.84388,2.353328,91.4,NaN,,11.998,,0 / 29,,2562,2022-01-12 10:13:09:673
-0.8459,9.6257,1.9723,-0.8702,9.624,1.6707,-0.0208,-0.0715,-0.1658,0.0016,0.0434,0.0182,19.58,-37.87,-2.32,281.78,-78.93,27.51,48.84388,2.353328,91.4,NaN,,11.998,,0 / 29,,2566,2022-01-12 10:13:09:677
-0.8459,9.6257,1.9723,-0.8702,9.624,1.6707,-0.0208,-0.0715,-0.1658,0.0016,0.0434,0.0182,19.58,-37.87,-2.32,281.78,-78.93,27.51,48.84388,2.353328,91.4,NaN,,11.998,,0 / 29,,2572,2022-01-12 10:13:09:683
-0.8459,9.6257,1.9723,-0.8637,9.6236,1.6767,0.065,0.0108,0.1057,0.0016,0.0434,0.0182,19.58,-37.87,-2.32,281.78,-78.93,27.51,48.84388,2.353328,91.4,NaN,,11.998,,0 / 29,,2578,2022-01-12 10:13:09:689
-0.8459,9.6257,1.9723,-0.8637,9.6236,1.6767,0.065,0.0108,0.1057,0.0016,0.0434,0.0182,19.58,-37.87,-2.32,281.78,-78.93,27.51,48.84388,2.353328,91.4,NaN,,11.998,,0 / 29,,2581,2022-01-12 10:13:09:692
-0.8459,9.6257,1.9723,-0.8637,9.6236,1.6767,0.065,0.0108,0.1057,0.0016,0.0434,0.0182,19.58,-37.87,-2.32,281.78,-78.93,27.51,48.84388,2.353328,91.4,NaN,,11.998,,0 / 29,,2586,2022-01-12 10:13:09:697
-0.7884,9.7741,1.5553,-0.8637,9.6236,1.6767,0.065,0.0108,0.1057,0.0016,0.0434,0.0182,19.58,-37.87,-2.32,281.78,-78.93,27.51,48.84388,2.353328,91.4,NaN,,11.998,,0 / 29,,2592,2022-01-12 10:13:09:703
-0.7884,9.7741,1.5553,-0.8637,9.6236,1.6767,0.065,0.0108,0.1057,0.0016,0.0434,0.0182,19.58,-37.87,-2.32,281.78,-78.93,27.51,48.84388,2.353328,91.4,NaN,,11.998,,0 / 29,,2596,2022-01-12 10:13:09:707
-0.7884,9.7741,1.5553,-0.8637,9.6236,1.6767,0.065,0.0108,0.1057,0.0016,0.0434,0.0182,19.58,-37.87,-2.32,281.78,-78.93,27.51,48.84388,2.353328,91.4,NaN,,11.998,,0 / 29,,2602,2022-01-12 10:13:09:713
-0.7884,9.7741,1.5553,-0.8637,9.6236,1.6767,0.065,0.0108,0.1057,0.0016,0.0434,0.0182,19.58,-37.87,-2.32,281.78,-78.93,27.51,48.84388,2.353328,91.4,NaN,,11.998,,0 / 29,,2606,2022-01-12 10:13:09:717
-0.7884,9.7741,1.5553,-0.8637,9.6236,1.6767,0.065,0.0108,0.1057,0.0016,0.0434,0.0182,19.58,-37.87,-2.32,281.78,-78.93,27.51,48.84388,2.353328,91.4,NaN,,11.998,,0 / 29,,2612,2022-01-12 10:13:09:723
-0.7884,9.7741,1.5553,-0.8637,9.6236,1.6767,0.065,0.0108,0.1057,0.0016,0.0434,0.0182,19.58,-37.87,-2.32,281.78,-78.93,27.51,48.84388,2.353328,91.4,NaN,,11.998,,0 / 29,,2617,2022-01-12 10:13:09:728
-0.7884,9.7741,1.5553,-0.8637,9.6236,1.6767,0.065,0.0108,0.1057,0.0016,0.0434,0.0182,19.58,-37.87,-2.32,281.78,-78.93,27.51,48.84388,2.353328,91.4,NaN,,11.998,,0 / 29,,2622,2022-01-12 10:13:09:733
-0.7884,9.7741,1.5553,-0.8637,9.6236,1.6767,0.065,0.0108,0.1057,0.0688,0.0041,0.0052,19.58,-37.87,-2.32,281.78,-78.93,27.51,48.84388,2.353328,91.4,NaN,,11.998,,0 / 29,,2627,2022-01-12 10:13:09:738
-0.7884,9.7741,1.5553,-0.8637,9.6236,1.6767,0.065,0.0108,0.1057,0.0688,0.0041,0.0052,19.58,-37.87,-2.32,281.78,-78.93,27.51,48.84388,2.353328,91.4,NaN,,11.998,,0 / 29,,2631,2022-01-12 10:13:09:742
-0.7884,9.7741,1.5553,-0.8637,9.6236,1.6767,0.065,0.0108,0.1057,0.0688,0.0041,0.0052,19.58,-38.1,-2.18,281.48,-78.91,27.25,48.84388,2.353328,91.4,NaN,,11.998,,0 / 29,,2636,2022-01-12 10:13:09:747
-0.7884,9.7741,1.5553,-0.8637,9.6236,1.6767,0.065,0.0108,0.1057,0.0688,0.0041,0.0052,19.58,-38.1,-2.18,281.48,-78.91,27.25,48.84388,2.353328,91.4,NaN,,11.998,,0 / 29,,2642,2022-01-12 10:13:09:753
-1.1671,9.8151,1.6083,-0.8598,9.6268,1.6603,0.0057,0.0046,0.1976,0.0688,0.0041,0.0052,19.58,-38.1,-2.18,281.48,-78.91,27.25,48.84388,2.353328,91.4,NaN,,11.998,,0 / 29,,2651,2022-01-12 10:13:09:762
-1.1671,9.8151,1.6083,-0.8598,9.6268,1.6603,0.0057,0.0046,0.1976,0.0688,0.0041,0.0052,19.58,-38.1,-2.18,281.48,-78.91,27.25,48.84388,2.353328,91.4,NaN,,11.998,,0 / 29,,2651,2022-01-12 10:13:09:762
-1.1671,9.8151,1.6083,-0.8598,9.6268,1.6603,0.0057,0.0046,0.1976,0.0688,0.0041,0.0052,19.58,-38.1,-2.18,281.48,-78.91,27.25,48.84388,2.353328,91.4,NaN,,11.998,,0 / 29,,2657,2022-01-12 10:13:09:768
-1.1671,9.8151,1.6083,-0.8598,9.6268,1.6603,0.0057,0.0046,0.1976,0.0688,0.0041,0.0052,19.58,-38.1,-2.18,281.48,-78.91,27.25,48.84388,2.353328,91.4,NaN,,11.998,,0 / 29,,2661,2022-01-12 10:13:09:772
-1.1671,9.8151,1.6083,-0.8598,9.6268,1.6603,0.0057,0.0046,0.1976,0.0688,0.0041,0.0052,19.58,-38.1,-2.18,281.48,-78.91,27.25,48.84388,2.353328,91.4,NaN,,11.998,,0 / 29,,2667,2022-01-12 10:13:09:778
-1.1671,9.8151,1.6083,-0.8598,9.6268,1.6603,0.0057,0.0046,0.1976,0.0688,0.0041,0.0052,19.58,-38.1,-2.18,281.48,-78.91,27.25,48.84388,2.353328,91.4,NaN,,11.998,,0 / 29,,2671,2022-01-12 10:13:09:782
-1.1671,9.8151,1.6083,-0.8598,9.6268,1.6603,0.0057,0.0046,0.1976,0.0688,0.0041,0.0052,19.58,-38.1,-2.18,281.48,-78.91,27.25,48.84388,2.353328,91.4,NaN,,11.998,,0 / 29,,2677,2022-01-12 10:13:09:788
-1.1671,9.8151,1.6083,-0.8598,9.6268,1.6603,0.0057,0.0046,0.1976,0.0688,0.0041,0.0052,19.58,-38.1,-2.18,281.48,-78.91,27.25,48.84388,2.353328,91.4,NaN,,11.998,,0 / 29,,2681,2022-01-12 10:13:09:792
-1.1671,9.8151,1.6083,-0.8598,9.6268,1.6603,0.0057,0.0046,0.1976,0.0688,0.0041,0.0052,19.58,-38.1,-2.18,281.48,-78.91,27.25,48.84388,2.353328,91.4,NaN,,11.998,,0 / 29,,2687,2022-01-12 10:13:09:798
-1.1671,9.8151,1.6083,-0.8598,9.6268,1.6603,0.0057,0.0046,0.1976,0.0688,0.0041,0.0052,19.58,-38.1,-2.18,281.48,-78.91,27.25,48.84388,2.353328,91.4,NaN,,11.998,,0 / 29,,2692,2022-01-12 10:13:09:803
-1.1671,9.8151,1.6083,-0.8598,9.6268,1.6603,0.0057,0.0046,0.1976,0.0688,0.0041,0.0052,19.58,-38.1,-2.18,281.48,-78.91,27.25,48.84388,2.353328,91.4,NaN,,11.998,,0 / 29,,2696,2022-01-12 10:13:09:807
-1.1671,9.8151,1.6083,-0.8598,9.6268,1.6603,0.0057,0.0046,0.1976,0.0688,0.0041,0.0052,19.58,-38.1,-2.18,281.48,-78.91,27.25,48.84388,2.353328,91.4,NaN,,11.998,,0 / 29,,2701,2022-01-12 10:13:09:812
-0.8315,9.7777,1.4776,-0.8418,9.6361,1.615,-0.1282,0.1186,-0.0803,0.0688,0.0041,0.0052,19.58,-38.1,-2.18,281.48,-78.91,27.25,48.84388,2.353328,91.4,NaN,,11.998,,0 / 29,,2707,2022-01-12 10:13:09:818
-0.8315,9.7777,1.4776,-0.8418,9.6361,1.615,-0.1282,0.1186,-0.0803,0.0688,0.0041,0.0052,19.58,-38.1,-2.18,281.48,-78.91,27.25,48.84388,2.353328,91.4,NaN,,11.998,,0 / 29,,2711,2022-01-12 10:13:09:822
-0.8315,9.7777,1.4776,-0.8418,9.6361,1.615,-0.1282,0.1186,-0.0803,0.0688,0.0041,0.0052,19.58,-38.1,-2.18,281.48,-78.91,27.25,48.84388,2.353328,91.4,NaN,,11.998,,0 / 29,,2717,2022-01-12 10:13:09:828
-0.8315,9.7777,1.4776,-0.8418,9.6361,1.615,-0.1282,0.1186,-0.0803,0.0688,0.0041,0.0052,19.58,-38.1,-2.18,281.48,-78.91,27.25,48.84388,2.353328,91.4,NaN,,11.998,,0 / 29,,2722,2022-01-12 10:13:09:833
-0.8315,9.7777,1.4776,-0.8418,9.6361,1.615,-0.1282,0.1186,-0.0803,0.0688,0.0041,0.0052,19.58,-38.1,-2.18,281.48,-78.91,27.25,48.84388,2.353328,91.4,NaN,,11.998,,0 / 29,,2727,2022-01-12 10:13:09:838
-0.8315,9.7777,1.4776,-0.8418,9.6361,1.615,-0.1282,0.1186,-0.0803,0.0688,0.0041,0.0052,19.58,-38.1,-2.18,281.48,-78.91,27.25,48.84388,2.353328,91.4,NaN,,11.998,,0 / 29,,2732,2022-01-12 10:13:09:843
-0.8315,9.7777,1.4776,-0.8418,9.6361,1.615,-0.1282,0.1186,-0.0803,0.0688,0.0041,0.0052,19.5,-37.87,-1.8,282.64,-79.3,27.53,48.84388,2.353328,91.4,NaN,,11.998,,0 / 29,,2736,2022-01-12 10:13:09:847
-0.8315,9.7777,1.4776,-0.8418,9.6361,1.615,-0.1282,0.1186,-0.0803,0.0688,0.0041,0.0052,19.5,-37.87,-1.8,282.64,-79.3,27.53,48.84388,2.353328,91.4,NaN,,11.998,,0 / 29,,2742,2022-01-12 10:13:09:853
-0.8315,9.7777,1.4776,-0.8418,9.6361,1.615,-0.1282,0.1186,-0.0803,0.0688,0.0041,0.0052,19.5,-37.87,-1.8,282.64,-79.3,27.53,48.84388,2.353328,91.4,NaN,,11.998,,0 / 29,,2748,2022-01-12 10:13:09:859
-0.8315,9.7777,1.4776,-0.8418,9.6361,1.615,-0.1282,0.1186,-0.0803,0.0688,0.0041,0.0052,19.5,-37.87,-1.8,282.64,-79.3,27.53,48.84388,2.353328,91.4,NaN,,11.998,,0 / 29,,2752,2022-01-12 10:13:09:863
-0.8315,9.7777,1.4776,-0.8418,9.6361,1.615,-0.1282,0.1186,-0.0803,0.1317,-0.0172,0.0779,19.5,-37.87,-1.8,282.64,-79.3,27.53,48.84388,2.353328,91.4,NaN,,11.998,,0 / 29,,2757,2022-01-12 10:13:09:868
-0.8315,9.7777,1.4776,-0.8418,9.6361,1.615,-0.1282,0.1186,-0.0803,0.1317,-0.0172,0.0779,19.5,-37.87,-1.8,282.64,-79.3,27.53,48.84388,2.353328,91.4,NaN,,11.998,,0 / 29,,2761,2022-01-12 10:13:09:872
-0.8315,9.7777,1.4776,-0.8418,9.6361,1.615,-0.1282,0.1186,-0.0803,0.1317,-0.0172,0.0779,19.5,-37.87,-1.8,282.64,-79.3,27.53,48.84388,2.353328,91.4,NaN,,11.998,,0 / 29,,2767,2022-01-12 10:13:09:878
-0.8315,9.7777,1.4776,-0.8418,9.6361,1.615,-0.1282,0.1186,-0.0803,0.1317,-0.0172,0.0779,19.5,-37.87,-1.8,282.64,-79.3,27.53,48.84388,2.353328,91.4,NaN,,11.998,,0 / 29,,2771,2022-01-12 10:13:09:882
-0.8315,9.7777,1.4776,-0.8418,9.6361,1.615,-0.1282,0.1186,-0.0803,0.1317,-0.0172,0.0779,19.5,-37.87,-1.8,282.64,-79.3,27.53,48.84388,2.353328,91.4,NaN,,11.998,,0 / 29,,2777,2022-01-12 10:13:09:888
-0.8315,9.7777,1.4776,-0.8418,9.6361,1.615,-0.1282,0.1186,-0.0803,0.1317,-0.0172,0.0779,19.5,-37.87,-1.8,282.64,-79.3,27.53,48.84388,2.353328,91.4,NaN,,11.998,,0 / 29,,2782,2022-01-12 10:13:09:893
-0.8315,9.7777,1.4776,-0.8418,9.6361,1.615,-0.1282,0.1186,-0.0803,0.1317,-0.0172,0.0779,19.5,-37.87,-1.8,282.64,-79.3,27.53,48.84388,2.353328,91.4,NaN,,11.998,,0 / 29,,2787,2022-01-12 10:13:09:898
-0.8315,9.7777,1.4776,-0.8418,9.6361,1.615,-0.1282,0.1186,-0.0803,0.1317,-0.0172,0.0779,19.5,-37.87,-1.8,282.64,-79.3,27.53,48.84388,2.353328,91.4,NaN,,11.998,,0 / 29,,2792,2022-01-12 10:13:09:903
-0.8315,9.7777,1.4776,-0.8418,9.6361,1.615,-0.1282,0.1186,-0.0803,0.1317,-0.0172,0.0779,19.5,-37.87,-1.8,282.64,-79.3,27.53,48.84388,2.353328,91.4,NaN,,11.998,,0 / 29,,2796,2022-01-12 10:13:09:907
-0.8315,9.7777,1.4776,-0.8418,9.6361,1.615,-0.1282,0.1186,-0.0803,0.1317,-0.0172,0.0779,19.5,-37.87,-1.8,282.64,-79.3,27.53,48.84388,2.353328,91.4,NaN,,11.998,,0 / 29,,2802,2022-01-12 10:13:09:913
-0.6556,9.784,1.2523,-0.8418,9.6361,1.615,-0.1282,0.1186,-0.0803,0.1317,-0.0172,0.0779,19.5,-37.87,-1.8,282.64,-79.3,27.53,48.84388,2.353328,91.4,NaN,,11.998,,0 / 29,,2807,2022-01-12 10:13:09:918
-0.6556,9.784,1.2523,-0.8418,9.6361,1.615,-0.1282,0.1186,-0.0803,0.1317,-0.0172,0.0779,19.5,-37.87,-1.8,282.64,-79.3,27.53,48.84388,2.353328,91.4,NaN,,11.998,,0 / 29,,2811,2022-01-12 10:13:09:922
-0.6556,9.784,1.2523,-0.8418,9.6361,1.615,-0.1282,0.1186,-0.0803,0.1317,-0.0172,0.0779,19.5,-37.87,-1.8,282.64,-79.3,27.53,48.84388,2.353328,91.4,NaN,,11.998,,0 / 29,,2817,2022-01-12 10:13:09:928
-0.6556,9.784,1.2523,-0.8418,9.6361,1.615,-0.1282,0.1186,-0.0803,0.1317,-0.0172,0.0779,19.5,-37.87,-1.8,282.64,-79.3,27.53,48.84388,2.353328,91.4,NaN,,11.998,,0 / 29,,2822,2022-01-12 10:13:09:933
-0.6556,9.784,1.2523,-0.7586,9.6621,1.496,-0.2406,-0.0137,0.1811,0.1317,-0.0172,0.0779,19.5,-37.87,-1.8,282.64,-79.3,27.53,48.84388,2.353328,91.4,NaN,,11.998,,0 / 29,,2827,2022-01-12 10:13:09:938
-0.6556,9.784,1.2523,-0.7586,9.6621,1.496,-0.2406,-0.0137,0.1811,0.1317,-0.0172,0.0779,19.43,-37.95,-1.42,279.79,-80.15,26.89,48.84388,2.353328,91.4,NaN,,11.998,,0 / 29,,2832,2022-01-12 10:13:09:943
-0.6556,9.784,1.2523,-0.7586,9.6621,1.496,-0.2406,-0.0137,0.1811,0.1317,-0.0172,0.0779,19.43,-37.95,-1.42,279.79,-80.15,26.89,48.84388,2.353328,91.4,NaN,,11.998,,0 / 29,,2837,2022-01-12 10:13:09:948
-0.6556,9.784,1.2523,-0.7586,9.6621,1.496,-0.2406,-0.0137,0.1811,0.1317,-0.0172,0.0779,19.43,-37.95,-1.42,279.79,-80.15,26.89,48.84388,2.353328,91.4,NaN,,11.998,,0 / 29,,2842,2022-01-12 10:13:09:953
-0.6556,9.784,1.2523,-0.7586,9.6621,1.496,-0.2406,-0.0137,0.1811,0.1317,-0.0172,0.0779,19.43,-37.95,-1.42,279.79,-80.15,26.89,48.84388,2.353328,91.4,NaN,,11.998,,0 / 29,,2847,2022-01-12 10:13:09:958
-0.6556,9.784,1.2523,-0.7586,9.6621,1.496,-0.2406,-0.0137,0.1811,0.1317,-0.0172,0.0779,19.43,-37.95,-1.42,279.79,-80.15,26.89,48.84388,2.353328,91.4,NaN,,11.998,,0 / 29,,2852,2022-01-12 10:13:09:963
-0.6556,9.784,1.2523,-0.7586,9.6621,1.496,-0.2406,-0.0137,0.1811,0.1317,-0.0172,0.0779,19.43,-37.95,-1.42,279.79,-80.15,26.89,48.84388,2.353328,91.4,NaN,,11.998,,0 / 29,,2856,2022-01-12 10:13:09:967
-0.6556,9.784,1.2523,-0.7586,9.6621,1.496,-0.2406,-0.0137,0.1811,0.1317,-0.0172,0.0779,19.43,-37.95,-1.42,279.79,-80.15,26.89,48.84388,2.353328,91.4,NaN,,11.998,,0 / 29,,2862,2022-01-12 10:13:09:973
-0.6556,9.784,1.2523,-0.7586,9.6621,1.496,-0.2406,-0.0137,0.1811,0.1317,-0.0172,0.0779,19.43,-37.95,-1.42,279.79,-80.15,26.89,48.84388,2.353328,91.4,NaN,,11.998,,0 / 29,,2866,2022-01-12 10:13:09:977
-0.3081,9.7502,1.4237,-0.7586,9.6621,1.496,-0.2406,-0.0137,0.1811,0.1317,-0.0172,0.0779,19.43,-37.95,-1.42,279.79,-80.15,26.89,48.84388,2.353328,91.4,NaN,,11.998,,0 / 29,,2872,2022-01-12 10:13:09:983
-0.3081,9.7502,1.4237,-0.7586,9.6621,1.496,-0.2406,-0.0137,0.1811,0.1317,-0.0172,0.0779,19.43,-37.95,-1.42,279.79,-80.15,26.89,48.84388,2.353328,91.4,NaN,,11.998,,0 / 29,,2876,2022-01-12 10:13:09:987
-0.3081,9.7502,1.4237,-0.7586,9.6621,1.496,-0.2406,-0.0137,0.1811,0.1317,-0.0172,0.0779,19.43,-37.95,-1.42,279.79,-80.15,26.89,48.84388,2.353328,91.4,NaN,,11.998,,0 / 29,,2882,2022-01-12 10:13:09:993
-0.3081,9.7502,1.4237,-0.6472,9.6832,1.4096,0.1534,0.0568,-0.1576,0.1244,-0.0852,0.1196,19.43,-37.95,-1.42,279.79,-80.15,26.89,48.84388,2.353328,91.4,NaN,,11.998,,0 / 29,,2890,2022-01-12 10:13:10:001
-0.3081,9.7502,1.4237,-0.6472,9.6832,1.4096,0.1534,0.0568,-0.1576,0.1244,-0.0852,0.1196,19.43,-37.95,-1.42,279.79,-80.15,26.89,48.84388,2.353328,91.4,NaN,,11.998,,0 / 29,,2892,2022-01-12 10:13:10:003
-0.3081,9.7502,1.4237,-0.6472,9.6832,1.4096,0.1534,0.0568,-0.1576,0.1244,-0.0852,0.1196,19.43,-37.95,-1.42,279.79,-80.15,26.89,48.84388,2.353328,91.4,NaN,,11.998,,0 / 29,,2897,2022-01-12 10:13:10:008
-0.3081,9.7502,1.4237,-0.6472,9.6832,1.4096,0.1534,0.0568,-0.1576,0.1244,-0.0852,0.1196,19.43,-37.95,-1.42,279.79,-80.15,26.89,48.84388,2.353328,91.4,NaN,,11.998,,0 / 29,,2901,2022-01-12 10:13:10:012
-0.3081,9.7502,1.4237,-0.6472,9.6832,1.4096,0.1534,0.0568,-0.1576,0.1244,-0.0852,0.1196,19.43,-37.95,-1.42,279.79,-80.15,26.89,48.84388,2.353328,91.4,NaN,,11.998,,0 / 29,,2907,2022-01-12 10:13:10:018
-0.3081,9.7502,1.4237,-0.6472,9.6832,1.4096,0.1534,0.0568,-0.1576,0.1244,-0.0852,0.1196,19.43,-37.95,-1.42,279.79,-80.15,26.89,48.84388,2.353328,91.4,NaN,,11.998,,0 / 29,,2911,2022-01-12 10:13:10:022
-0.3081,9.7502,1.4237,-0.6472,9.6832,1.4096,0.1534,0.0568,-0.1576,0.1244,-0.0852,0.1196,19.43,-37.95,-1.42,279.79,-80.15,26.89,48.84388,2.353328,91.4,NaN,,11.998,,0 / 29,,2917,2022-01-12 10:13:10:028
-0.3081,9.7502,1.4237,-0.6472,9.6832,1.4096,0.1534,0.0568,-0.1576,0.1244,-0.0852,0.1196,19.43,-37.95,-1.42,279.79,-80.15,26.89,48.84388,2.353328,91.4,NaN,,11.998,,0 / 29,,2921,2022-01-12 10:13:10:032
-0.3081,9.7502,1.4237,-0.6472,9.6832,1.4096,0.1534,0.0568,-0.1576,0.1244,-0.0852,0.1196,19.43,-37.95,-1.42,279.79,-80.15,26.89,48.84388,2.353328,91.4,NaN,,11.998,,0 / 29,,2927,2022-01-12 10:13:10:038
-0.5189,9.6162,1.4931,-0.6472,9.6832,1.4096,0.1534,0.0568,-0.1576,0.1244,-0.0852,0.1196,19.13,-37.95,-1.35,279.15,-80.9,24.66,48.84388,2.353328,91.4,NaN,,11.998,,0 / 29,,2932,2022-01-12 10:13:10:043
-0.5189,9.6162,1.4931,-0.6472,9.6832,1.4096,0.1534,0.0568,-0.1576,0.1244,-0.0852,0.1196,19.13,-37.95,-1.35,279.15,-80.9,24.66,48.84388,2.353328,91.4,NaN,,11.998,,0 / 29,,2936,2022-01-12 10:13:10:047
-0.5189,9.6162,1.4931,-0.6472,9.6832,1.4096,0.1534,0.0568,-0.1576,0.1244,-0.0852,0.1196,19.13,-37.95,-1.35,279.15,-80.9,24.66,48.84388,2.353328,91.4,NaN,,11.998,,0 / 29,,2942,2022-01-12 10:13:10:053
-0.5189,9.6162,1.4931,-0.6472,9.6832,1.4096,0.1534,0.0568,-0.1576,0.1244,-0.0852,0.1196,19.13,-37.95,-1.35,279.15,-80.9,24.66,48.84388,2.353328,91.4,NaN,,11.998,,0 / 29,,2946,2022-01-12 10:13:10:057
-0.5189,9.6162,1.4931,-0.6472,9.6832,1.4096,0.1534,0.0568,-0.1576,0.1244,-0.0852,0.1196,19.13,-37.95,-1.35,279.15,-80.9,24.66,48.84388,2.353328,91.4,NaN,,11.998,,0 / 29,,2951,2022-01-12 10:13:10:062
-0.5189,9.6162,1.4931,-0.6472,9.6832,1.4096,0.1534,0.0568,-0.1576,0.1244,-0.0852,0.1196,19.13,-37.95,-1.35,279.15,-80.9,24.66,48.84388,2.353328,91.4,NaN,,11.998,,0 / 29,,2957,2022-01-12 10:13:10:068
-0.5189,9.6162,1.4931,-0.6472,9.6832,1.4096,0.1534,0.0568,-0.1576,0.1244,-0.0852,0.1196,19.13,-37.95,-1.35,279.15,-80.9,24.66,48.84388,2.353328,91.4,NaN,,11.998,,0 / 29,,2961,2022-01-12 10:13:10:072
-0.5189,9.6162,1.4931,-0.6472,9.6832,1.4096,0.1534,0.0568,-0.1576,0.1244,-0.0852,0.1196,19.13,-37.95,-1.35,279.15,-80.9,24.66,48.84388,2.353328,91.4,NaN,,11.998,,0 / 29,,2966,2022-01-12 10:13:10:077
-0.5189,9.6162,1.4931,-0.6472,9.6832,1.4096,0.1534,0.0568,-0.1576,0.1244,-0.0852,0.1196,19.13,-37.95,-1.35,279.15,-80.9,24.66,48.84388,2.353328,91.4,NaN,,11.998,,0 / 29,,2972,2022-01-12 10:13:10:083
-0.5189,9.6162,1.4931,-0.6472,9.6832,1.4096,0.1534,0.0568,-0.1576,0.1244,-0.0852,0.1196,19.13,-37.95,-1.35,279.15,-80.9,24.66,48.84388,2.353328,91.4,NaN,,11.998,,0 / 29,,2977,2022-01-12 10:13:10:088
-0.5189,9.6162,1.4931,-0.6472,9.6832,1.4096,0.1534,0.0568,-0.1576,0.1244,-0.0852,0.1196,19.13,-37.95,-1.35,279.15,-80.9,24.66,48.84388,2.353328,91.4,NaN,,11.998,,0 / 29,,2981,2022-01-12 10:13:10:092
-0.5189,9.6162,1.4931,-0.6472,9.6832,1.4096,0.1534,0.0568,-0.1576,0.1244,-0.0852,0.1196,19.13,-37.95,-1.35,279.15,-80.9,24.66,48.84388,2.353328,91.4,NaN,,11.998,,0 / 29,,2986,2022-01-12 10:13:10:097
-0.5189,9.6162,1.4931,-0.6472,9.6832,1.4096,0.1534,0.0568,-0.1576,0.1244,-0.0852,0.1196,19.13,-37.95,-1.35,279.15,-80.9,24.66,48.84388,2.353328,91.4,NaN,,11.998,,0 / 29,,2993,2022-01-12 10:13:10:104
-0.2734,9.6305,1.3699,-0.4723,9.703,1.341,0.1039,-0.0719,-0.0592,0.1244,-0.0852,0.1196,19.13,-37.95,-1.35,279.15,-80.9,24.66,48.84388,2.353328,91.4,NaN,,11.998,,0 / 29,,2996,2022-01-12 10:13:10:107
-0.2734,9.6305,1.3699,-0.4723,9.703,1.341,0.1039,-0.0719,-0.0592,0.1244,-0.0852,0.1196,19.13,-37.95,-1.35,279.15,-80.9,24.66,48.84388,2.353328,91.4,NaN,,11.998,,0 / 29,,3002,2022-01-12 10:13:10:113
-0.2734,9.6305,1.3699,-0.4723,9.703,1.341,0.1039,-0.0719,-0.0592,0.1244,-0.0852,0.1196,19.13,-37.95,-1.35,279.15,-80.9,24.66,48.84388,2.353328,91.4,NaN,,11.998,,0 / 29,,3007,2022-01-12 10:13:10:118
-0.2734,9.6305,1.3699,-0.4723,9.703,1.341,0.1039,-0.0719,-0.0592,0.1244,-0.0852,0.1196,19.13,-37.95,-1.35,279.15,-80.9,24.66,48.84388,2.353328,91.4,NaN,,11.998,,0 / 29,,3011,2022-01-12 10:13:10:122
-0.2734,9.6305,1.3699,-0.4723,9.703,1.341,0.1039,-0.0719,-0.0592,0.1244,-0.0852,0.1196,19.13,-37.95,-1.35,279.15,-80.9,24.66,48.84388,2.353328,91.4,NaN,,11.998,,0 / 29,,3017,2022-01-12 10:13:10:128
-0.2734,9.6305,1.3699,-0.4723,9.703,1.341,0.1039,-0.0719,-0.0592,0.0051,-0.1085,0.0692,19.13,-37.95,-1.35,279.15,-80.9,24.66,48.84388,2.353328,91.4,NaN,,11.998,,0 / 29,,3029,2022-01-12 10:13:10:140
-0.2734,9.6305,1.3699,-0.4723,9.703,1.341,0.1039,-0.0719,-0.0592,0.0051,-0.1085,0.0692,19.13,-37.95,-1.35,279.15,-80.9,24.66,48.84388,2.353328,91.4,NaN,,11.998,,0 / 29,,3030,2022-01-12 10:13:10:141
-0.2734,9.6305,1.3699,-0.4723,9.703,1.341,0.1039,-0.0719,-0.0592,0.0051,-0.1085,0.0692,19.13,-37.95,-1.35,279.15,-80.9,24.66,48.84388,2.353328,91.4,NaN,,11.998,,0 / 29,,3032,2022-01-12 10:13:10:143
