ACCELEROMETER X (m/s²),ACCELEROMETER Y (m/s²),ACCELEROMETER Z (m/s²),GRAVITY X (m/s²),GRAVITY Y (m/s²),GRAVITY Z (m/s²),LINEAR ACCELERATION X (m/s²),LINEAR ACCELERATION Y (m/s²),LINEAR ACCELERATION Z (m/s²),GYROSCOPE X (rad/s),GYROSCOPE Y (rad/s),GYROSCOPE Z (rad/s),MAGNETIC FIELD X (μT),MAGNETIC FIELD Y (μT),MAGNETIC FIELD Z (μT),ORIENTATION Z (azimuth °),ORIENTATION X (pitch °),ORIENTATION Y (roll °),LOCATION Latitude : ,LOCATION Longitude : ,LOCATION Altitude ( m),LOCATION Altitude-google ( m),LOCATION Speed ( Kmh),LOCATION Accuracy ( m),LOCATION ORIENTATION (°),Satellites in range,GPS NMEA,Time since start in ms ,YYYY-MO-DD HH-MI-SS_SSS
-0.332,9.6604,1.8861,-0.3131,9.6305,1.8235,-0.0576,0.0342,-0.1071,-0.0217,0.0157,-0.0168,22.65,-41.7,-11.17,287.46,-79.24,9.53,48.84391,2.353356,94.3,NaN,,11.892,,0 / 20,,11,2022-01-11 15:48:29:799
-0.332,9.6604,1.8861,-0.3131,9.6305,1.8235,-0.0576,0.0342,-0.1071,-0.0217,0.0157,-0.0168,22.65,-41.7,-11.17,287.46,-79.24,9.53,48.84391,2.353356,94.3,NaN,,11.892,,0 / 20,,15,2022-01-11 15:48:29:803
-0.3272,9.5647,1.9699,-0.3131,9.6305,1.8235,-0.0576,0.0342,-0.1071,-0.0217,0.0157,-0.0168,22.65,-41.7,-11.17,287.46,-79.24,9.53,48.84391,2.353356,94.3,NaN,,11.892,,0 / 20,,20,2022-01-11 15:48:29:808
-0.3272,9.5647,1.9699,-0.3131,9.6305,1.8235,-0.0576,0.0342,-0.1071,-0.0217,0.0157,-0.0168,22.65,-41.7,-11.17,287.46,-79.24,9.53,48.84391,2.353356,94.3,NaN,,11.892,,0 / 20,,25,2022-01-11 15:48:29:813
-0.3272,9.5647,1.9699,-0.3131,9.6305,1.8235,-0.0576,0.0342,-0.1071,-0.0217,0.0157,-0.0168,22.65,-41.7,-11.17,287.46,-79.24,9.53,48.84391,2.353356,94.3,NaN,,11.892,,0 / 20,,30,2022-01-11 15:48:29:818
-0.3272,9.5647,1.9699,-0.3131,9.6305,1.8235,-0.0576,0.0342,-0.1071,-0.0344,-0.0182,-0.0209,22.65,-41.7,-11.17,287.46,-79.24,9.53,48.84391,2.353356,94.3,NaN,,11.892,,0 / 20,,35,2022-01-11 15:48:29:823
-0.3272,9.5647,1.9699,-0.3131,9.6305,1.8235,-0.0576,0.0342,-0.1071,-0.0344,-0.0182,-0.0209,22.65,-41.7,-11.17,287.46,-79.24,9.53,48.84391,2.353356,94.3,NaN,,11.892,,0 / 20,,41,2022-01-11 15:48:29:829
-0.3272,9.5647,1.9699,-0.3131,9.6305,1.8235,-0.0576,0.0342,-0.1071,-0.0344,-0.0182,-0.0209,22.65,-41.7,-11.17,287.46,-79.24,9.53,48.84391,2.353356,94.3,NaN,,11.892,,0 / 20,,46,2022-01-11 15:48:29:834
-0.3272,9.5647,1.9699,-0.3131,9.6305,1.8235,-0.0576,0.0342,-0.1071,-0.0344,-0.0182,-0.0209,22.65,-41.7,-11.17,287.46,-79.24,9.53,48.84391,2.353356,94.3,NaN,,11.892,,0 / 20,,51,2022-01-11 15:48:29:839
-0.3272,9.5647,1.9699,-0.3131,9.6305,1.8235,-0.0576,0.0342,-0.1071,-0.0344,-0.0182,-0.0209,22.65,-41.7,-11.17,287.46,-79.24,9.53,48.84391,2.353356,94.3,NaN,,11.892,,0 / 20,,55,2022-01-11 15:48:29:843
-0.3272,9.5647,1.9699,-0.3131,9.6305,1.8235,-0.0576,0.0342,-0.1071,-0.0344,-0.0182,-0.0209,22.65,-41.7,-11.17,287.46,-79.24,9.53,48.84391,2.353356,94.3,NaN,,11.892,,0 / 20,,60,2022-01-11 15:48:29:848
-0.3272,9.5647,1.9699,-0.3131,9.6305,1.8235,-0.0576,0.0342,-0.1071,-0.0344,-0.0182,-0.0209,22.65,-41.7,-11.17,287.46,-79.24,9.53,48.84391,2.353356,94.3,NaN,,11.892,,0 / 20,,66,2022-01-11 15:48:29:854
-0.3272,9.5647,1.9699,-0.3131,9.6305,1.8235,-0.0576,0.0342,-0.1071,-0.0344,-0.0182,-0.0209,22.8,-41.62,-11.33,287.46,-79.13,9.74,48.84391,2.353356,94.3,NaN,,11.892,,0 / 20,,71,2022-01-11 15:48:29:859
-0.3272,9.5647,1.9699,-0.3131,9.6305,1.8235,-0.0576,0.0342,-0.1071,-0.0344,-0.0182,-0.0209,22.8,-41.62,-11.33,287.46,-79.13,9.74,48.84391,2.353356,94.3,NaN,,11.892,,0 / 20,,75,2022-01-11 15:48:29:863
-0.3272,9.5647,1.9699,-0.3131,9.6305,1.8235,-0.0576,0.0342,-0.1071,-0.0344,-0.0182,-0.0209,22.8,-41.62,-11.33,287.46,-79.13,9.74,48.84391,2.353356,94.3,NaN,,11.892,,0 / 20,,80,2022-01-11 15:48:29:868
-0.3272,9.5647,1.9699,-0.3131,9.6305,1.8235,-0.0576,0.0342,-0.1071,-0.0344,-0.0182,-0.0209,22.8,-41.62,-11.33,287.46,-79.13,9.74,48.84391,2.353356,94.3,NaN,,11.892,,0 / 20,,85,2022-01-11 15:48:29:873
-0.3272,9.5647,1.9699,-0.3131,9.6305,1.8235,-0.0576,0.0342,-0.1071,-0.0344,-0.0182,-0.0209,22.8,-41.62,-11.33,287.46,-79.13,9.74,48.84391,2.353356,94.3,NaN,,11.892,,0 / 20,,90,2022-01-11 15:48:29:878
-0.489,10.0005,2.0297,-0.3756,9.6156,1.8896,0.039,0.0091,0.0625,-0.0344,-0.0182,-0.0209,22.8,-41.62,-11.33,287.46,-79.13,9.74,48.84391,2.353356,94.3,NaN,,11.892,,0 / 20,,96,2022-01-11 15:48:29:884
-0.489,10.0005,2.0297,-0.3756,9.6156,1.8896,0.039,0.0091,0.0625,-0.0344,-0.0182,-0.0209,22.8,-41.62,-11.33,287.46,-79.13,9.74,48.84391,2.353356,94.3,NaN,,11.892,,0 / 20,,101,2022-01-11 15:48:29:889
-0.489,10.0005,2.0297,-0.3756,9.6156,1.8896,0.039,0.0091,0.0625,-0.0344,-0.0182,-0.0209,22.8,-41.62,-11.33,287.46,-79.13,9.74,48.84391,2.353356,94.3,NaN,,11.892,,0 / 20,,106,2022-01-11 15:48:29:894
-0.489,10.0005,2.0297,-0.3756,9.6156,1.8896,0.039,0.0091,0.0625,-0.0344,-0.0182,-0.0209,22.8,-41.62,-11.33,287.46,-79.13,9.74,48.84391,2.353356,94.3,NaN,,11.892,,0 / 20,,111,2022-01-11 15:48:29:899
-0.489,10.0005,2.0297,-0.3756,9.6156,1.8896,0.039,0.0091,0.0625,-0.0344,-0.0182,-0.0209,22.8,-41.62,-11.33,287.46,-79.13,9.74,48.84391,2.353356,94.3,NaN,,11.892,,0 / 20,,117,2022-01-11 15:48:29:905
-0.489,10.0005,2.0297,-0.3756,9.6156,1.8896,0.039,0.0091,0.0625,-0.0344,-0.0182,-0.0209,22.8,-41.62,-11.33,287.46,-79.13,9.74,48.84391,2.353356,94.3,NaN,,11.892,,0 / 20,,121,2022-01-11 15:48:29:909
-0.489,10.0005,2.0297,-0.3756,9.6156,1.8896,0.039,0.0091,0.0625,-0.0344,-0.0182,-0.0209,22.8,-41.62,-11.33,287.46,-79.13,9.74,48.84391,2.353356,94.3,NaN,,11.892,,0 / 20,,126,2022-01-11 15:48:29:914
-0.489,10.0005,2.0297,-0.3756,9.6156,1.8896,0.039,0.0091,0.0625,-0.0344,-0.0182,-0.0209,22.8,-41.62,-11.33,287.46,-79.13,9.74,48.84391,2.353356,94.3,NaN,,11.892,,0 / 20,,131,2022-01-11 15:48:29:919
-0.489,10.0005,2.0297,-0.3756,9.6156,1.8896,0.039,0.0091,0.0625,-0.0344,-0.0182,-0.0209,22.8,-41.62,-11.33,287.46,-79.13,9.74,48.84391,2.353356,94.3,NaN,,11.892,,0 / 20,,136,2022-01-11 15:48:29:924
-0.489,10.0005,2.0297,-0.3756,9.6156,1.8896,0.039,0.0091,0.0625,-0.0344,-0.0182,-0.0209,22.8,-41.62,-11.33,287.46,-79.13,9.74,48.84391,2.353356,94.3,NaN,,11.892,,0 / 20,,141,2022-01-11 15:48:29:929
-0.489,10.0005,2.0297,-0.3756,9.6156,1.8896,0.039,0.0091,0.0625,-0.0344,-0.0182,-0.0209,22.8,-41.62,-11.33,287.46,-79.13,9.74,48.84391,2.353356,94.3,NaN,,11.892,,0 / 20,,146,2022-01-11 15:48:29:934
-0.489,10.0005,2.0297,-0.3756,9.6156,1.8896,0.039,0.0091,0.0625,-0.0344,-0.0182,-0.0209,22.8,-41.62,-11.33,287.46,-79.13,9.74,48.84391,2.353356,94.3,NaN,,11.892,,0 / 20,,151,2022-01-11 15:48:29:939
-0.4496,10.608,2.359,-0.5077,9.5981,1.9466,0.0523,0.2991,-0.0245,-0.1029,-0.1618,-0.2696,22.8,-41.62,-11.33,287.46,-79.13,9.74,48.84391,2.353356,94.3,NaN,,11.892,,0 / 20,,156,2022-01-11 15:48:29:944
-0.4496,10.608,2.359,-0.5077,9.5981,1.9466,0.0523,0.2991,-0.0245,-0.1029,-0.1618,-0.2696,22.8,-41.62,-11.33,287.46,-79.13,9.74,48.84391,2.353356,94.3,NaN,,11.892,,0 / 20,,160,2022-01-11 15:48:29:948
-0.4496,10.608,2.359,-0.5077,9.5981,1.9466,0.0523,0.2991,-0.0245,-0.1029,-0.1618,-0.2696,22.8,-41.62,-11.33,287.46,-79.13,9.74,48.84391,2.353356,94.3,NaN,,11.892,,0 / 20,,166,2022-01-11 15:48:29:954
-0.4496,10.608,2.359,-0.5077,9.5981,1.9466,0.0523,0.2991,-0.0245,-0.1029,-0.1618,-0.2696,22.88,-41.77,-11.4,291.01,-78.16,14.62,48.84391,2.353356,94.3,NaN,,11.892,,0 / 20,,171,2022-01-11 15:48:29:959
-0.4496,10.608,2.359,-0.5077,9.5981,1.9466,0.0523,0.2991,-0.0245,-0.1029,-0.1618,-0.2696,22.88,-41.77,-11.4,291.01,-78.16,14.62,48.84391,2.353356,94.3,NaN,,11.892,,0 / 20,,177,2022-01-11 15:48:29:965
-0.4496,10.608,2.359,-0.5077,9.5981,1.9466,0.0523,0.2991,-0.0245,-0.1029,-0.1618,-0.2696,22.88,-41.77,-11.4,291.01,-78.16,14.62,48.84391,2.353356,94.3,NaN,,11.892,,0 / 20,,180,2022-01-11 15:48:29:968
-0.4496,10.608,2.359,-0.5077,9.5981,1.9466,0.0523,0.2991,-0.0245,-0.1029,-0.1618,-0.2696,22.88,-41.77,-11.4,291.01,-78.16,14.62,48.84391,2.353356,94.3,NaN,,11.892,,0 / 20,,186,2022-01-11 15:48:29:974
-0.4496,10.608,2.359,-0.5077,9.5981,1.9466,0.0523,0.2991,-0.0245,-0.1029,-0.1618,-0.2696,22.88,-41.77,-11.4,291.01,-78.16,14.62,48.84391,2.353356,94.3,NaN,,11.892,,0 / 20,,191,2022-01-11 15:48:29:979
-0.4496,10.608,2.359,-0.5077,9.5981,1.9466,0.0523,0.2991,-0.0245,-0.1029,-0.1618,-0.2696,22.88,-41.77,-11.4,291.01,-78.16,14.62,48.84391,2.353356,94.3,NaN,,11.892,,0 / 20,,196,2022-01-11 15:48:29:984
-0.4496,10.608,2.359,-0.5077,9.5981,1.9466,0.0523,0.2991,-0.0245,-0.1029,-0.1618,-0.2696,22.88,-41.77,-11.4,291.01,-78.16,14.62,48.84391,2.353356,94.3,NaN,,11.892,,0 / 20,,201,2022-01-11 15:48:29:989
-0.4496,10.608,2.359,-0.5077,9.5981,1.9466,0.0523,0.2991,-0.0245,-0.1029,-0.1618,-0.2696,22.88,-41.77,-11.4,291.01,-78.16,14.62,48.84391,2.353356,94.3,NaN,,11.892,,0 / 20,,206,2022-01-11 15:48:29:994
-0.4496,10.608,2.359,-0.5077,9.5981,1.9466,0.0523,0.2991,-0.0245,-0.1029,-0.1618,-0.2696,22.88,-41.77,-11.4,291.01,-78.16,14.62,48.84391,2.353356,94.3,NaN,,11.892,,0 / 20,,211,2022-01-11 15:48:29:999
-0.4496,10.608,2.359,-0.5077,9.5981,1.9466,0.0523,0.2991,-0.0245,-0.1029,-0.1618,-0.2696,22.88,-41.77,-11.4,291.01,-78.16,14.62,48.84391,2.353356,94.3,NaN,,11.892,,0 / 20,,216,2022-01-11 15:48:30:004
-0.7226,10.252,2.5531,-0.5576,9.585,1.9966,0.0523,0.2991,-0.0245,-0.1029,-0.1618,-0.2696,22.88,-41.77,-11.4,291.01,-78.16,14.62,48.84391,2.353356,94.3,NaN,,11.892,,0 / 20,,221,2022-01-11 15:48:30:009
-0.7226,10.252,2.5531,-0.5576,9.585,1.9966,0.0872,0.8184,0.3967,-0.1029,-0.1618,-0.2696,22.88,-41.77,-11.4,291.01,-78.16,14.62,48.84391,2.353356,94.3,NaN,,11.892,,0 / 20,,226,2022-01-11 15:48:30:014
-0.7226,10.252,2.5531,-0.5576,9.585,1.9966,0.0872,0.8184,0.3967,-0.1029,-0.1618,-0.2696,22.88,-41.77,-11.4,291.01,-78.16,14.62,48.84391,2.353356,94.3,NaN,,11.892,,0 / 20,,231,2022-01-11 15:48:30:019
-0.7226,10.252,2.5531,-0.5576,9.585,1.9966,0.0872,0.8184,0.3967,-0.1029,-0.1618,-0.2696,22.88,-41.77,-11.4,291.01,-78.16,14.62,48.84391,2.353356,94.3,NaN,,11.892,,0 / 20,,237,2022-01-11 15:48:30:025
-0.7226,10.252,2.5531,-0.5576,9.585,1.9966,0.0872,0.8184,0.3967,-0.1029,-0.1618,-0.2696,22.88,-41.77,-11.4,291.01,-78.16,14.62,48.84391,2.353356,94.3,NaN,,11.892,,0 / 20,,240,2022-01-11 15:48:30:028
-0.7226,10.252,2.5531,-0.5576,9.585,1.9966,0.0872,0.8184,0.3967,-0.1029,-0.1618,-0.2696,22.88,-41.77,-11.4,291.01,-78.16,14.62,48.84391,2.353356,94.3,NaN,,11.892,,0 / 20,,246,2022-01-11 15:48:30:034
-0.7226,10.252,2.5531,-0.5576,9.585,1.9966,0.0872,0.8184,0.3967,-0.1029,-0.1618,-0.2696,22.88,-41.77,-11.4,291.01,-78.16,14.62,48.84391,2.353356,94.3,NaN,,11.892,,0 / 20,,250,2022-01-11 15:48:30:038
-0.7226,10.252,2.5531,-0.5576,9.585,1.9966,0.0872,0.8184,0.3967,-0.1029,-0.1618,-0.2696,22.88,-41.77,-11.4,291.01,-78.16,14.62,48.84391,2.353356,94.3,NaN,,11.892,,0 / 20,,256,2022-01-11 15:48:30:044
-0.7226,10.252,2.5531,-0.5576,9.585,1.9966,0.0872,0.8184,0.3967,-0.1029,-0.1618,-0.2696,22.88,-41.77,-11.4,291.01,-78.16,14.62,48.84391,2.353356,94.3,NaN,,11.892,,0 / 20,,261,2022-01-11 15:48:30:049
-0.7226,10.252,2.5531,-0.5576,9.585,1.9966,0.0872,0.8184,0.3967,-0.1029,-0.1618,-0.2696,22.88,-41.77,-11.4,291.01,-78.16,14.62,48.84391,2.353356,94.3,NaN,,11.892,,0 / 20,,266,2022-01-11 15:48:30:054
-0.7226,10.252,2.5531,-0.5576,9.585,1.9966,0.0872,0.8184,0.3967,-0.1029,-0.1618,-0.2696,22.88,-41.47,-12.15,294.63,-77.8,15.6,48.84391,2.353356,94.3,NaN,,11.892,,0 / 20,,270,2022-01-11 15:48:30:058
-0.7226,10.252,2.5531,-0.5576,9.585,1.9966,0.0872,0.8184,0.3967,-0.1029,-0.1618,-0.2696,22.88,-41.47,-12.15,294.63,-77.8,15.6,48.84391,2.353356,94.3,NaN,,11.892,,0 / 20,,275,2022-01-11 15:48:30:063
-0.7226,10.252,2.5531,-0.5576,9.585,1.9966,0.0872,0.8184,0.3967,-0.1029,-0.1618,-0.2696,22.88,-41.47,-12.15,294.63,-77.8,15.6,48.84391,2.353356,94.3,NaN,,11.892,,0 / 20,,280,2022-01-11 15:48:30:068
-0.7226,10.252,2.5531,-0.5576,9.585,1.9966,0.0872,0.8184,0.3967,-0.1029,-0.1618,-0.2696,22.88,-41.47,-12.15,294.63,-77.8,15.6,48.84391,2.353356,94.3,NaN,,11.892,,0 / 20,,285,2022-01-11 15:48:30:073
-0.7226,10.252,2.5531,-0.5576,9.585,1.9966,0.0872,0.8184,0.3967,-0.1029,-0.1618,-0.2696,22.88,-41.47,-12.15,294.63,-77.8,15.6,48.84391,2.353356,94.3,NaN,,11.892,,0 / 20,,291,2022-01-11 15:48:30:079
-0.7226,10.252,2.5531,-0.5576,9.585,1.9966,0.0872,0.8184,0.3967,-0.1029,-0.1618,-0.2696,22.88,-41.47,-12.15,294.63,-77.8,15.6,48.84391,2.353356,94.3,NaN,,11.892,,0 / 20,,296,2022-01-11 15:48:30:084
-0.7226,10.252,2.5531,-0.5576,9.585,1.9966,0.0872,0.8184,0.3967,-0.2325,-0.2949,0.0096,22.88,-41.47,-12.15,294.63,-77.8,15.6,48.84391,2.353356,94.3,NaN,,11.892,,0 / 20,,301,2022-01-11 15:48:30:089
-0.7226,10.252,2.5531,-0.5576,9.585,1.9966,0.0872,0.8184,0.3967,-0.2325,-0.2949,0.0096,22.88,-41.47,-12.15,294.63,-77.8,15.6,48.84391,2.353356,94.3,NaN,,11.892,,0 / 20,,306,2022-01-11 15:48:30:094
-0.7226,10.252,2.5531,-0.5576,9.585,1.9966,0.0872,0.8184,0.3967,-0.2325,-0.2949,0.0096,22.88,-41.47,-12.15,294.63,-77.8,15.6,48.84391,2.353356,94.3,NaN,,11.892,,0 / 20,,311,2022-01-11 15:48:30:099
-0.2961,9.0736,2.0536,-0.5576,9.585,1.9966,0.0872,0.8184,0.3967,-0.2325,-0.2949,0.0096,22.88,-41.47,-12.15,294.63,-77.8,15.6,48.84391,2.353356,94.3,NaN,,11.892,,0 / 20,,315,2022-01-11 15:48:30:103
-0.2961,9.0736,2.0536,-0.5576,9.585,1.9966,0.0872,0.8184,0.3967,-0.2325,-0.2949,0.0096,22.88,-41.47,-12.15,294.63,-77.8,15.6,48.84391,2.353356,94.3,NaN,,11.892,,0 / 20,,321,2022-01-11 15:48:30:109
-0.2961,9.0736,2.0536,-0.5576,9.585,1.9966,0.0872,0.8184,0.3967,-0.2325,-0.2949,0.0096,22.88,-41.47,-12.15,294.63,-77.8,15.6,48.84391,2.353356,94.3,NaN,,11.892,,0 / 20,,325,2022-01-11 15:48:30:113
-0.2961,9.0736,2.0536,-0.5576,9.585,1.9966,0.0872,0.8184,0.3967,-0.2325,-0.2949,0.0096,22.88,-41.47,-12.15,294.63,-77.8,15.6,48.84391,2.353356,94.3,NaN,,11.892,,0 / 20,,330,2022-01-11 15:48:30:118
-0.2961,9.0736,2.0536,-0.5576,9.585,1.9966,0.0872,0.8184,0.3967,-0.2325,-0.2949,0.0096,22.88,-41.47,-12.15,294.63,-77.8,15.6,48.84391,2.353356,94.3,NaN,,11.892,,0 / 20,,336,2022-01-11 15:48:30:124
-0.2961,9.0736,2.0536,-0.578,9.4781,2.4498,0.4251,-0.1903,-0.5588,-0.2325,-0.2949,0.0096,22.88,-41.47,-12.15,294.63,-77.8,15.6,48.84391,2.353356,94.3,NaN,,11.892,,0 / 20,,341,2022-01-11 15:48:30:129
-0.2961,9.0736,2.0536,-0.578,9.4781,2.4498,0.4251,-0.1903,-0.5588,-0.2325,-0.2949,0.0096,22.88,-41.47,-12.15,294.63,-77.8,15.6,48.84391,2.353356,94.3,NaN,,11.892,,0 / 20,,346,2022-01-11 15:48:30:134
-0.2961,9.0736,2.0536,-0.578,9.4781,2.4498,0.4251,-0.1903,-0.5588,-0.2325,-0.2949,0.0096,22.88,-41.47,-12.15,294.63,-77.8,15.6,48.84391,2.353356,94.3,NaN,,11.892,,0 / 20,,351,2022-01-11 15:48:30:139
-0.2961,9.0736,2.0536,-0.578,9.4781,2.4498,0.4251,-0.1903,-0.5588,-0.2325,-0.2949,0.0096,22.88,-41.47,-12.15,294.63,-77.8,15.6,48.84391,2.353356,94.3,NaN,,11.892,,0 / 20,,355,2022-01-11 15:48:30:143
-0.2961,9.0736,2.0536,-0.578,9.4781,2.4498,0.4251,-0.1903,-0.5588,-0.2325,-0.2949,0.0096,22.88,-41.47,-12.15,294.63,-77.8,15.6,48.84391,2.353356,94.3,NaN,,11.892,,0 / 20,,361,2022-01-11 15:48:30:149
-0.2961,9.0736,2.0536,-0.578,9.4781,2.4498,0.4251,-0.1903,-0.5588,-0.2325,-0.2949,0.0096,22.88,-41.47,-12.15,294.63,-77.8,15.6,48.84391,2.353356,94.3,NaN,,11.892,,0 / 20,,365,2022-01-11 15:48:30:153
-0.2961,9.0736,2.0536,-0.578,9.4781,2.4498,0.4251,-0.1903,-0.5588,-0.2325,-0.2949,0.0096,22.88,-41.47,-12.15,294.63,-77.8,15.6,48.84391,2.353356,94.3,NaN,,11.892,,0 / 20,,370,2022-01-11 15:48:30:158
-0.7178,9.0329,2.7042,-0.578,9.4781,2.4498,0.4251,-0.1903,-0.5588,-0.2325,-0.2949,0.0096,23.1,-41.18,-12.75,289.34,-75.13,13.28,48.84391,2.353356,94.3,NaN,,11.892,,0 / 20,,375,2022-01-11 15:48:30:163
-0.7178,9.0329,2.7042,-0.578,9.4781,2.4498,0.4251,-0.1903,-0.5588,-0.2325,-0.2949,0.0096,23.1,-41.18,-12.75,289.34,-75.13,13.28,48.84391,2.353356,94.3,NaN,,11.892,,0 / 20,,380,2022-01-11 15:48:30:168
-0.7178,9.0329,2.7042,-0.578,9.4781,2.4498,0.4251,-0.1903,-0.5588,-0.2325,-0.2949,0.0096,23.1,-41.18,-12.75,289.34,-75.13,13.28,48.84391,2.353356,94.3,NaN,,11.892,,0 / 20,,385,2022-01-11 15:48:30:173
-0.7178,9.0329,2.7042,-0.578,9.4781,2.4498,0.4251,-0.1903,-0.5588,-0.2325,-0.2949,0.0096,23.1,-41.18,-12.75,289.34,-75.13,13.28,48.84391,2.353356,94.3,NaN,,11.892,,0 / 20,,390,2022-01-11 15:48:30:178
-0.7178,9.0329,2.7042,-0.578,9.4781,2.4498,0.4251,-0.1903,-0.5588,-0.2325,-0.2949,0.0096,23.1,-41.18,-12.75,289.34,-75.13,13.28,48.84391,2.353356,94.3,NaN,,11.892,,0 / 20,,395,2022-01-11 15:48:30:183
-0.7178,9.0329,2.7042,-0.578,9.4781,2.4498,0.4251,-0.1903,-0.5588,-0.2325,-0.2949,0.0096,23.1,-41.18,-12.75,289.34,-75.13,13.28,48.84391,2.353356,94.3,NaN,,11.892,,0 / 20,,401,2022-01-11 15:48:30:189
-0.7178,9.0329,2.7042,-0.578,9.4781,2.4498,0.4251,-0.1903,-0.5588,-0.2325,-0.2949,0.0096,23.1,-41.18,-12.75,289.34,-75.13,13.28,48.84391,2.353356,94.3,NaN,,11.892,,0 / 20,,406,2022-01-11 15:48:30:194
-0.7178,9.0329,2.7042,-0.6543,9.3928,2.742,0.335,-0.5731,-0.4222,-0.2325,-0.2949,0.0096,23.1,-41.18,-12.75,289.34,-75.13,13.28,48.84391,2.353356,94.3,NaN,,11.892,,0 / 20,,411,2022-01-11 15:48:30:199
-0.7178,9.0329,2.7042,-0.6543,9.3928,2.742,0.335,-0.5731,-0.4222,-0.2325,-0.2949,0.0096,23.1,-41.18,-12.75,289.34,-75.13,13.28,48.84391,2.353356,94.3,NaN,,11.892,,0 / 20,,416,2022-01-11 15:48:30:204
-0.7178,9.0329,2.7042,-0.6543,9.3928,2.742,0.335,-0.5731,-0.4222,-0.2325,-0.2949,0.0096,23.1,-41.18,-12.75,289.34,-75.13,13.28,48.84391,2.353356,94.3,NaN,,11.892,,0 / 20,,421,2022-01-11 15:48:30:209
-0.7178,9.0329,2.7042,-0.6543,9.3928,2.742,0.335,-0.5731,-0.4222,-0.2325,-0.2949,0.0096,23.1,-41.18,-12.75,289.34,-75.13,13.28,48.84391,2.353356,94.3,NaN,,11.892,,0 / 20,,425,2022-01-11 15:48:30:213
-0.7178,9.0329,2.7042,-0.6543,9.3928,2.742,0.335,-0.5731,-0.4222,-0.2923,0.0011,-0.0293,23.1,-41.18,-12.75,289.34,-75.13,13.28,48.84391,2.353356,94.3,NaN,,11.892,,0 / 20,,431,2022-01-11 15:48:30:219
-0.7178,9.0329,2.7042,-0.6543,9.3928,2.742,0.335,-0.5731,-0.4222,-0.2923,0.0011,-0.0293,23.1,-41.18,-12.75,289.34,-75.13,13.28,48.84391,2.353356,94.3,NaN,,11.892,,0 / 20,,436,2022-01-11 15:48:30:224
-0.7178,9.0329,2.7042,-0.6543,9.3928,2.742,0.335,-0.5731,-0.4222,-0.2923,0.0011,-0.0293,23.1,-41.18,-12.75,289.34,-75.13,13.28,48.84391,2.353356,94.3,NaN,,11.892,,0 / 20,,441,2022-01-11 15:48:30:229
-0.7178,9.0329,2.7042,-0.6543,9.3928,2.742,0.335,-0.5731,-0.4222,-0.2923,0.0011,-0.0293,23.1,-41.18,-12.75,289.34,-75.13,13.28,48.84391,2.353356,94.3,NaN,,11.892,,0 / 20,,446,2022-01-11 15:48:30:234
-0.9335,8.6255,1.9388,-0.6543,9.3928,2.742,0.335,-0.5731,-0.4222,-0.2923,0.0011,-0.0293,23.1,-41.18,-12.75,289.34,-75.13,13.28,48.84391,2.353356,94.3,NaN,,11.892,,0 / 20,,450,2022-01-11 15:48:30:238
-0.9335,8.6255,1.9388,-0.6543,9.3928,2.742,0.335,-0.5731,-0.4222,-0.2923,0.0011,-0.0293,23.1,-41.18,-12.75,289.34,-75.13,13.28,48.84391,2.353356,94.3,NaN,,11.892,,0 / 20,,455,2022-01-11 15:48:30:243
-0.9335,8.6255,1.9388,-0.6543,9.3928,2.742,0.335,-0.5731,-0.4222,-0.2923,0.0011,-0.0293,23.1,-41.18,-12.75,289.34,-75.13,13.28,48.84391,2.353356,94.3,NaN,,11.892,,0 / 20,,461,2022-01-11 15:48:30:249
-0.9335,8.6255,1.9388,-0.6543,9.3928,2.742,0.335,-0.5731,-0.4222,-0.2923,0.0011,-0.0293,23.1,-41.18,-12.75,289.34,-75.13,13.28,48.84391,2.353356,94.3,NaN,,11.892,,0 / 20,,466,2022-01-11 15:48:30:254
-0.9335,8.6255,1.9388,-0.6543,9.3928,2.742,0.335,-0.5731,-0.4222,-0.2923,0.0011,-0.0293,29.63,-28.05,-12.0,290.37,-73.29,13.42,48.84391,2.353356,94.3,NaN,,11.892,,0 / 20,,470,2022-01-11 15:48:30:258
-0.9335,8.6255,1.9388,-0.6543,9.3928,2.742,0.335,-0.5731,-0.4222,-0.2923,0.0011,-0.0293,29.63,-28.05,-12.0,290.37,-73.29,13.42,48.84391,2.353356,94.3,NaN,,11.892,,0 / 20,,476,2022-01-11 15:48:30:264
-0.9335,8.6255,1.9388,-0.6543,9.3928,2.742,0.335,-0.5731,-0.4222,-0.2923,0.0011,-0.0293,29.63,-28.05,-12.0,290.37,-73.29,13.42,48.84391,2.353356,94.3,NaN,,11.892,,0 / 20,,480,2022-01-11 15:48:30:268
-0.9335,8.6255,1.9388,-0.6543,9.3928,2.742,0.335,-0.5731,-0.4222,-0.2923,0.0011,-0.0293,29.63,-28.05,-12.0,290.37,-73.29,13.42,48.84391,2.353356,94.3,NaN,,11.892,,0 / 20,,486,2022-01-11 15:48:30:274
-0.9335,8.6255,1.9388,-0.6543,9.3928,2.742,0.335,-0.5731,-0.4222,-0.2923,0.0011,-0.0293,29.63,-28.05,-12.0,290.37,-73.29,13.42,48.84391,2.353356,94.3,NaN,,11.892,,0 / 20,,490,2022-01-11 15:48:30:278
-0.9335,8.6255,1.9388,-0.6543,9.3928,2.742,0.335,-0.5731,-0.4222,-0.2923,0.0011,-0.0293,29.63,-28.05,-12.0,290.37,-73.29,13.42,48.84391,2.353356,94.3,NaN,,11.892,,0 / 20,,496,2022-01-11 15:48:30:284
-0.9335,8.6255,1.9388,-0.6543,9.3928,2.742,0.335,-0.5731,-0.4222,-0.2923,0.0011,-0.0293,29.63,-28.05,-12.0,290.37,-73.29,13.42,48.84391,2.353356,94.3,NaN,,11.892,,0 / 20,,501,2022-01-11 15:48:30:289
-0.9335,8.6255,1.9388,-0.6543,9.3928,2.742,0.335,-0.5731,-0.4222,-0.2923,0.0011,-0.0293,29.63,-28.05,-12.0,290.37,-73.29,13.42,48.84391,2.353356,94.3,NaN,,11.892,,0 / 20,,505,2022-01-11 15:48:30:293
-0.556,9.0939,2.2956,-0.6576,9.3801,2.7841,-0.0453,-0.8582,-0.7109,-0.2923,0.0011,-0.0293,29.63,-28.05,-12.0,290.37,-73.29,13.42,48.84391,2.353356,94.3,NaN,,11.892,,0 / 20,,548,2022-01-11 15:48:30:336
-0.556,9.0939,2.2956,-0.6576,9.3801,2.7841,-0.0453,-0.8582,-0.7109,-0.2923,0.0011,-0.0293,29.63,-28.05,-12.0,290.37,-73.29,13.42,48.84391,2.353356,94.3,NaN,,11.892,,0 / 20,,549,2022-01-11 15:48:30:337
-0.556,9.0939,2.2956,-0.6576,9.3801,2.7841,-0.0453,-0.8582,-0.7109,-0.2923,0.0011,-0.0293,29.63,-28.05,-12.0,290.37,-73.29,13.42,48.84391,2.353356,94.3,NaN,,11.892,,0 / 20,,550,2022-01-11 15:48:30:338
-0.556,9.0939,2.2956,-0.6576,9.3801,2.7841,-0.0453,-0.8582,-0.7109,-0.2923,0.0011,-0.0293,29.63,-28.05,-12.0,290.37,-73.29,13.42,48.84391,2.353356,94.3,NaN,,11.892,,0 / 20,,550,2022-01-11 15:48:30:338
-0.556,9.0939,2.2956,-0.6576,9.3801,2.7841,-0.0453,-0.8582,-0.7109,-0.2923,0.0011,-0.0293,29.63,-28.05,-12.0,290.37,-73.29,13.42,48.84391,2.353356,94.3,NaN,,11.892,,0 / 20,,550,2022-01-11 15:48:30:338
-0.556,9.0939,2.2956,-0.6576,9.3801,2.7841,-0.0453,-0.8582,-0.7109,-0.2923,0.0011,-0.0293,29.63,-28.05,-12.0,290.37,-73.29,13.42,48.84391,2.353356,94.3,NaN,,11.892,,0 / 20,,550,2022-01-11 15:48:30:338
-0.556,9.0939,2.2956,-0.6576,9.3801,2.7841,-0.0453,-0.8582,-0.7109,-0.2923,0.0011,-0.0293,29.63,-28.05,-12.0,290.37,-73.29,13.42,48.84391,2.353356,94.3,NaN,,11.892,,0 / 20,,551,2022-01-11 15:48:30:339
-0.556,9.0939,2.2956,-0.6576,9.3801,2.7841,-0.0453,-0.8582,-0.7109,-0.2923,0.0011,-0.0293,29.63,-28.05,-12.0,290.37,-73.29,13.42,48.84391,2.353356,94.3,NaN,,11.892,,0 / 20,,551,2022-01-11 15:48:30:339
-0.556,9.0939,2.2956,-0.6576,9.3801,2.7841,-0.0453,-0.8582,-0.7109,-0.2923,0.0011,-0.0293,29.63,-28.05,-12.0,290.37,-73.29,13.42,48.84391,2.353356,94.3,NaN,,11.892,,0 / 20,,551,2022-01-11 15:48:30:339
-0.556,9.0939,2.2956,-0.6576,9.3801,2.7841,-0.0453,-0.8582,-0.7109,-0.2923,0.0011,-0.0293,29.63,-28.05,-12.0,290.37,-73.29,13.42,48.84391,2.353356,94.3,NaN,,11.892,,0 / 20,,555,2022-01-11 15:48:30:343
-0.556,9.0939,2.2956,-0.6576,9.3801,2.7841,-0.0453,-0.8582,-0.7109,0.0644,0.0031,-0.0152,29.63,-28.05,-12.0,290.37,-73.29,13.42,48.84391,2.353356,94.3,NaN,,11.892,,0 / 20,,560,2022-01-11 15:48:30:348
-0.556,9.0939,2.2956,-0.6576,9.3801,2.7841,-0.0453,-0.8582,-0.7109,0.0644,0.0031,-0.0152,29.63,-28.05,-12.0,290.37,-73.29,13.42,48.84391,2.353356,94.3,NaN,,11.892,,0 / 20,,565,2022-01-11 15:48:30:353
-0.6075,9.2402,2.3471,-0.6576,9.3801,2.7841,-0.0453,-0.8582,-0.7109,0.0644,0.0031,-0.0152,29.7,-27.75,-12.75,291.89,-73.04,13.29,48.84391,2.353356,94.3,NaN,,11.892,,0 / 20,,570,2022-01-11 15:48:30:358
-0.6075,9.2402,2.3471,-0.6931,9.3759,2.7896,0.1855,-0.3478,-0.4933,0.0644,0.0031,-0.0152,29.7,-27.75,-12.75,291.89,-73.04,13.29,48.84391,2.353356,94.3,NaN,,11.892,,0 / 20,,578,2022-01-11 15:48:30:366
-0.6075,9.2402,2.3471,-0.6931,9.3759,2.7896,0.1855,-0.3478,-0.4933,0.0644,0.0031,-0.0152,29.7,-27.75,-12.75,291.89,-73.04,13.29,48.84391,2.353356,94.3,NaN,,11.892,,0 / 20,,580,2022-01-11 15:48:30:368
-0.6075,9.2402,2.3471,-0.6931,9.3759,2.7896,0.1855,-0.3478,-0.4933,0.0644,0.0031,-0.0152,29.7,-27.75,-12.75,291.89,-73.04,13.29,48.84391,2.353356,94.3,NaN,,11.892,,0 / 20,,586,2022-01-11 15:48:30:374
-0.6075,9.2402,2.3471,-0.6931,9.3759,2.7896,0.1855,-0.3478,-0.4933,0.0644,0.0031,-0.0152,29.7,-27.75,-12.75,291.89,-73.04,13.29,48.84391,2.353356,94.3,NaN,,11.892,,0 / 20,,591,2022-01-11 15:48:30:379
-0.6075,9.2402,2.3471,-0.6931,9.3759,2.7896,0.1855,-0.3478,-0.4933,0.0644,0.0031,-0.0152,29.7,-27.75,-12.75,291.89,-73.04,13.29,48.84391,2.353356,94.3,NaN,,11.892,,0 / 20,,597,2022-01-11 15:48:30:385
-0.6075,9.2402,2.3471,-0.6931,9.3759,2.7896,0.1855,-0.3478,-0.4933,0.0644,0.0031,-0.0152,29.7,-27.75,-12.75,291.89,-73.04,13.29,48.84391,2.353356,94.3,NaN,,11.892,,0 / 20,,601,2022-01-11 15:48:30:389
-0.6075,9.2402,2.3471,-0.6931,9.3759,2.7896,0.1855,-0.3478,-0.4933,0.0644,0.0031,-0.0152,29.7,-27.75,-12.75,291.89,-73.04,13.29,48.84391,2.353356,94.3,NaN,,11.892,,0 / 20,,608,2022-01-11 15:48:30:396
-0.6075,9.2402,2.3471,-0.6931,9.3759,2.7896,0.1855,-0.3478,-0.4933,0.0644,0.0031,-0.0152,29.7,-27.75,-12.75,291.89,-73.04,13.29,48.84391,2.353356,94.3,NaN,,11.892,,0 / 20,,611,2022-01-11 15:48:30:399
-0.6075,9.2402,2.3471,-0.6931,9.3759,2.7896,0.1855,-0.3478,-0.4933,0.0644,0.0031,-0.0152,29.7,-27.75,-12.75,291.89,-73.04,13.29,48.84391,2.353356,94.3,NaN,,11.892,,0 / 20,,616,2022-01-11 15:48:30:404
-0.6075,9.2402,2.3471,-0.6931,9.3759,2.7896,0.1855,-0.3478,-0.4933,0.0644,0.0031,-0.0152,29.7,-27.75,-12.75,291.89,-73.04,13.29,48.84391,2.353356,94.3,NaN,,11.892,,0 / 20,,620,2022-01-11 15:48:30:408
-0.6075,9.2402,2.3471,-0.6931,9.3759,2.7896,0.1855,-0.3478,-0.4933,0.0644,0.0031,-0.0152,29.7,-27.75,-12.75,291.89,-73.04,13.29,48.84391,2.353356,94.3,NaN,,11.892,,0 / 20,,626,2022-01-11 15:48:30:414
-0.6075,9.2402,2.3471,-0.6931,9.3759,2.7896,0.1855,-0.3478,-0.4933,0.0644,0.0031,-0.0152,29.7,-27.75,-12.75,291.89,-73.04,13.29,48.84391,2.353356,94.3,NaN,,11.892,,0 / 20,,630,2022-01-11 15:48:30:418
-0.6075,9.2402,2.3471,-0.6931,9.3759,2.7896,0.1855,-0.3478,-0.4933,0.0644,0.0031,-0.0152,29.7,-27.75,-12.75,291.89,-73.04,13.29,48.84391,2.353356,94.3,NaN,,11.892,,0 / 20,,635,2022-01-11 15:48:30:423
-0.6075,9.2402,2.3471,-0.7013,9.3507,2.8711,-0.0247,-0.2545,-0.4469,0.0644,0.0031,-0.0152,29.7,-27.75,-12.75,291.89,-73.04,13.29,48.84391,2.353356,94.3,NaN,,11.892,,0 / 20,,641,2022-01-11 15:48:30:429
-0.8052,8.8759,3.218,-0.7013,9.3507,2.8711,-0.0247,-0.2545,-0.4469,0.0644,0.0031,-0.0152,29.7,-27.75,-12.75,291.89,-73.04,13.29,48.84391,2.353356,94.3,NaN,,11.892,,0 / 20,,646,2022-01-11 15:48:30:434
-0.8052,8.8759,3.218,-0.7013,9.3507,2.8711,-0.0247,-0.2545,-0.4469,0.0644,0.0031,-0.0152,29.7,-27.75,-12.75,291.89,-73.04,13.29,48.84391,2.353356,94.3,NaN,,11.892,,0 / 20,,651,2022-01-11 15:48:30:439
-0.8052,8.8759,3.218,-0.7013,9.3507,2.8711,-0.0247,-0.2545,-0.4469,0.0644,0.0031,-0.0152,29.7,-27.75,-12.75,291.89,-73.04,13.29,48.84391,2.353356,94.3,NaN,,11.892,,0 / 20,,656,2022-01-11 15:48:30:444
-0.8052,8.8759,3.218,-0.7013,9.3507,2.8711,-0.0247,-0.2545,-0.4469,0.0644,0.0031,-0.0152,29.7,-27.75,-12.75,291.89,-73.04,13.29,48.84391,2.353356,94.3,NaN,,11.892,,0 / 20,,660,2022-01-11 15:48:30:448
-0.8052,8.8759,3.218,-0.7013,9.3507,2.8711,-0.0247,-0.2545,-0.4469,0.0644,0.0031,-0.0152,29.7,-27.75,-12.75,291.89,-73.04,13.29,48.84391,2.353356,94.3,NaN,,11.892,,0 / 20,,667,2022-01-11 15:48:30:455
-0.8052,8.8759,3.218,-0.7013,9.3507,2.8711,-0.0247,-0.2545,-0.4469,0.0644,0.0031,-0.0152,30.15,-26.32,-14.33,294.78,-72.46,13.73,48.84391,2.353356,94.3,NaN,,11.892,,0 / 20,,671,2022-01-11 15:48:30:459
-0.8052,8.8759,3.218,-0.7013,9.3507,2.8711,-0.0247,-0.2545,-0.4469,0.0644,0.0031,-0.0152,30.15,-26.32,-14.33,294.78,-72.46,13.73,48.84391,2.353356,94.3,NaN,,11.892,,0 / 20,,675,2022-01-11 15:48:30:463
-0.8052,8.8759,3.218,-0.7013,9.3507,2.8711,-0.0247,-0.2545,-0.4469,0.0644,0.0031,-0.0152,30.15,-26.32,-14.33,294.78,-72.46,13.73,48.84391,2.353356,94.3,NaN,,11.892,,0 / 30,,680,2022-01-11 15:48:30:468
-0.8052,8.8759,3.218,-0.7013,9.3507,2.8711,-0.0247,-0.2545,-0.4469,0.0644,0.0031,-0.0152,30.15,-26.32,-14.33,294.78,-72.46,13.73,48.84391,2.353356,94.3,NaN,,11.892,,0 / 30,,685,2022-01-11 15:48:30:473
-0.8052,8.8759,3.218,-0.7013,9.3507,2.8711,-0.0247,-0.2545,-0.4469,0.0644,0.0031,-0.0152,30.15,-26.32,-14.33,294.78,-72.46,13.73,48.84391,2.353356,94.3,NaN,,11.892,,0 / 30,,691,2022-01-11 15:48:30:479
-0.8052,8.8759,3.218,-0.7013,9.3507,2.8711,-0.0247,-0.2545,-0.4469,0.0047,0.0411,0.0545,30.15,-26.32,-14.33,294.78,-72.46,13.73,48.84391,2.353356,94.3,NaN,,11.892,,0 / 30,,696,2022-01-11 15:48:30:484
-0.8052,8.8759,3.218,-0.7013,9.3507,2.8711,-0.0247,-0.2545,-0.4469,0.0047,0.0411,0.0545,30.15,-26.32,-14.33,294.78,-72.46,13.73,48.84391,2.353356,94.3,NaN,,11.892,,0 / 30,,701,2022-01-11 15:48:30:489
-0.8052,8.8759,3.218,-0.7013,9.3507,2.8711,-0.0247,-0.2545,-0.4469,0.0047,0.0411,0.0545,30.15,-26.32,-14.33,294.78,-72.46,13.73,48.84391,2.353356,94.3,NaN,,11.892,,0 / 30,,705,2022-01-11 15:48:30:493
-1.1321,8.9513,2.9593,-0.6502,9.3574,2.8611,0.081,-0.3905,0.4072,0.0047,0.0411,0.0545,30.15,-26.32,-14.33,294.78,-72.46,13.73,48.84391,2.353356,94.3,NaN,,11.892,,0 / 30,,710,2022-01-11 15:48:30:498
-1.1321,8.9513,2.9593,-0.6502,9.3574,2.8611,0.081,-0.3905,0.4072,0.0047,0.0411,0.0545,30.15,-26.32,-14.33,294.78,-72.46,13.73,48.84391,2.353356,94.3,NaN,,11.892,,0 / 30,,716,2022-01-11 15:48:30:504
-1.1321,8.9513,2.9593,-0.6502,9.3574,2.8611,0.081,-0.3905,0.4072,0.0047,0.0411,0.0545,30.15,-26.32,-14.33,294.78,-72.46,13.73,48.84391,2.353356,94.3,NaN,,11.892,,0 / 30,,721,2022-01-11 15:48:30:509
-1.1321,8.9513,2.9593,-0.6502,9.3574,2.8611,0.081,-0.3905,0.4072,0.0047,0.0411,0.0545,30.15,-26.32,-14.33,294.78,-72.46,13.73,48.84391,2.353356,94.3,NaN,,11.892,,0 / 30,,726,2022-01-11 15:48:30:514
-1.1321,8.9513,2.9593,-0.6502,9.3574,2.8611,0.081,-0.3905,0.4072,0.0047,0.0411,0.0545,30.15,-26.32,-14.33,294.78,-72.46,13.73,48.84391,2.353356,94.3,NaN,,11.892,,0 / 30,,730,2022-01-11 15:48:30:518
-1.1321,8.9513,2.9593,-0.6502,9.3574,2.8611,0.081,-0.3905,0.4072,0.0047,0.0411,0.0545,30.15,-26.32,-14.33,294.78,-72.46,13.73,48.84391,2.353356,94.3,NaN,,11.892,,0 / 30,,736,2022-01-11 15:48:30:524
-1.1321,8.9513,2.9593,-0.6502,9.3574,2.8611,0.081,-0.3905,0.4072,0.0047,0.0411,0.0545,30.15,-26.32,-14.33,294.78,-72.46,13.73,48.84391,2.353356,94.3,NaN,,11.892,,0 / 30,,740,2022-01-11 15:48:30:528
-1.1321,8.9513,2.9593,-0.6502,9.3574,2.8611,0.081,-0.3905,0.4072,0.0047,0.0411,0.0545,30.15,-26.32,-14.33,294.78,-72.46,13.73,48.84391,2.353356,94.3,NaN,,11.892,,0 / 30,,746,2022-01-11 15:48:30:534
-1.1321,8.9513,2.9593,-0.6502,9.3574,2.8611,0.081,-0.3905,0.4072,0.0047,0.0411,0.0545,30.15,-26.32,-14.33,294.78,-72.46,13.73,48.84391,2.353356,94.3,NaN,,11.892,,0 / 30,,751,2022-01-11 15:48:30:539
-1.1321,8.9513,2.9593,-0.6502,9.3574,2.8611,0.081,-0.3905,0.4072,0.0047,0.0411,0.0545,30.15,-26.32,-14.33,294.78,-72.46,13.73,48.84391,2.353356,94.3,NaN,,11.892,,0 / 30,,756,2022-01-11 15:48:30:544
-1.1321,8.9513,2.9593,-0.6502,9.3574,2.8611,0.081,-0.3905,0.4072,0.0047,0.0411,0.0545,30.15,-26.32,-14.33,294.78,-72.46,13.73,48.84391,2.353356,94.3,NaN,,11.892,,0 / 30,,761,2022-01-11 15:48:30:549
-1.1321,8.9513,2.9593,-0.6502,9.3574,2.8611,0.081,-0.3905,0.4072,0.0047,0.0411,0.0545,30.15,-26.32,-14.33,294.78,-72.46,13.73,48.84391,2.353356,94.3,NaN,,11.892,,0 / 30,,766,2022-01-11 15:48:30:554
-1.1321,8.9513,2.9593,-0.6502,9.3574,2.8611,0.081,-0.3905,0.4072,0.0047,0.0411,0.0545,30.3,-26.25,-14.85,295.78,-72.59,12.8,48.84391,2.353356,94.3,NaN,,11.892,,0 / 30,,771,2022-01-11 15:48:30:559
-1.1321,8.9513,2.9593,-0.6502,9.3574,2.8611,0.081,-0.3905,0.4072,0.0047,0.0411,0.0545,30.3,-26.25,-14.85,295.78,-72.59,12.8,48.84391,2.353356,94.3,NaN,,11.892,,0 / 30,,775,2022-01-11 15:48:30:563
-1.1321,8.9513,2.9593,-0.6502,9.3574,2.8611,0.081,-0.3905,0.4072,0.0047,0.0411,0.0545,30.3,-26.25,-14.85,295.78,-72.59,12.8,48.84391,2.353356,94.3,NaN,,11.892,,0 / 30,,780,2022-01-11 15:48:30:568
-0.7047,9.1442,2.5914,-0.6502,9.3574,2.8611,0.081,-0.3905,0.4072,0.0047,0.0411,0.0545,30.3,-26.25,-14.85,295.78,-72.59,12.8,48.84391,2.353356,94.3,NaN,,11.892,,0 / 30,,787,2022-01-11 15:48:30:575
-0.7047,9.1442,2.5914,-0.6502,9.3574,2.8611,0.081,-0.3905,0.4072,0.0047,0.0411,0.0545,30.3,-26.25,-14.85,295.78,-72.59,12.8,48.84391,2.353356,94.3,NaN,,11.892,,0 / 30,,790,2022-01-11 15:48:30:578
-0.7047,9.1442,2.5914,-0.6502,9.3574,2.8611,0.081,-0.3905,0.4072,0.0047,0.0411,0.0545,30.3,-26.25,-14.85,295.78,-72.59,12.8,48.84391,2.353356,94.3,NaN,,11.892,,0 / 30,,796,2022-01-11 15:48:30:584
-0.7047,9.1442,2.5914,-0.6502,9.3574,2.8611,0.081,-0.3905,0.4072,0.0047,0.0411,0.0545,30.3,-26.25,-14.85,295.78,-72.59,12.8,48.84391,2.353356,94.3,NaN,,11.892,,0 / 30,,802,2022-01-11 15:48:30:590
-0.7047,9.1442,2.5914,-0.6502,9.3574,2.8611,0.081,-0.3905,0.4072,0.0047,0.0411,0.0545,30.3,-26.25,-14.85,295.78,-72.59,12.8,48.84391,2.353356,94.3,NaN,,11.892,,0 / 30,,805,2022-01-11 15:48:30:593
-0.7047,9.1442,2.5914,-0.6502,9.3574,2.8611,0.081,-0.3905,0.4072,0.0047,0.0411,0.0545,30.3,-26.25,-14.85,295.78,-72.59,12.8,48.84391,2.353356,94.3,NaN,,11.892,,0 / 30,,811,2022-01-11 15:48:30:599
-0.7047,9.1442,2.5914,-0.6502,9.3574,2.8611,0.081,-0.3905,0.4072,0.0047,0.0411,0.0545,30.3,-26.25,-14.85,295.78,-72.59,12.8,48.84391,2.353356,94.3,NaN,,11.892,,0 / 30,,816,2022-01-11 15:48:30:604
-0.7047,9.1442,2.5914,-0.5477,9.3974,2.7496,0.099,-0.3587,0.0266,0.0828,-0.11,0.0391,30.3,-26.25,-14.85,295.78,-72.59,12.8,48.84391,2.353356,94.3,NaN,,11.892,,0 / 30,,821,2022-01-11 15:48:30:609
-0.7047,9.1442,2.5914,-0.5477,9.3974,2.7496,0.099,-0.3587,0.0266,0.0828,-0.11,0.0391,30.3,-26.25,-14.85,295.78,-72.59,12.8,48.84391,2.353356,94.3,NaN,,11.892,,0 / 30,,827,2022-01-11 15:48:30:615
-0.7047,9.1442,2.5914,-0.5477,9.3974,2.7496,0.099,-0.3587,0.0266,0.0828,-0.11,0.0391,30.3,-26.25,-14.85,295.78,-72.59,12.8,48.84391,2.353356,94.3,NaN,,11.892,,0 / 30,,830,2022-01-11 15:48:30:618
-0.7047,9.1442,2.5914,-0.5477,9.3974,2.7496,0.099,-0.3587,0.0266,0.0828,-0.11,0.0391,30.3,-26.25,-14.85,295.78,-72.59,12.8,48.84391,2.353356,94.3,NaN,,11.892,,0 / 30,,835,2022-01-11 15:48:30:623
-0.7047,9.1442,2.5914,-0.5477,9.3974,2.7496,0.099,-0.3587,0.0266,0.0828,-0.11,0.0391,30.3,-26.25,-14.85,295.78,-72.59,12.8,48.84391,2.353356,94.3,NaN,,11.892,,0 / 30,,840,2022-01-11 15:48:30:628
-0.7047,9.1442,2.5914,-0.5477,9.3974,2.7496,0.099,-0.3587,0.0266,0.0828,-0.11,0.0391,30.3,-26.25,-14.85,295.78,-72.59,12.8,48.84391,2.353356,94.3,NaN,,11.892,,0 / 30,,845,2022-01-11 15:48:30:633
-0.5189,9.4041,2.8358,-0.5477,9.3974,2.7496,0.099,-0.3587,0.0266,0.0828,-0.11,0.0391,30.3,-26.25,-14.85,295.78,-72.59,12.8,48.84391,2.353356,94.3,NaN,,11.892,,0 / 30,,850,2022-01-11 15:48:30:638
-0.5189,9.4041,2.8358,-0.5477,9.3974,2.7496,0.099,-0.3587,0.0266,0.0828,-0.11,0.0391,30.3,-26.25,-14.85,295.78,-72.59,12.8,48.84391,2.353356,94.3,NaN,,11.892,,0 / 30,,855,2022-01-11 15:48:30:643
-0.5189,9.4041,2.8358,-0.5477,9.3974,2.7496,0.099,-0.3587,0.0266,0.0828,-0.11,0.0391,30.3,-26.25,-14.85,295.78,-72.59,12.8,48.84391,2.353356,94.3,NaN,,11.892,,0 / 30,,861,2022-01-11 15:48:30:649
-0.5189,9.4041,2.8358,-0.5477,9.3974,2.7496,0.099,-0.3587,0.0266,0.0828,-0.11,0.0391,30.3,-26.25,-14.85,295.78,-72.59,12.8,48.84391,2.353356,94.3,NaN,,11.892,,0 / 30,,865,2022-01-11 15:48:30:653
-0.5189,9.4041,2.8358,-0.5477,9.3974,2.7496,0.099,-0.3587,0.0266,0.0828,-0.11,0.0391,30.45,-26.1,-15.3,294.87,-73.39,11.27,48.84391,2.353356,94.3,NaN,,11.892,,0 / 30,,870,2022-01-11 15:48:30:658
-0.5189,9.4041,2.8358,-0.5477,9.3974,2.7496,0.099,-0.3587,0.0266,0.0828,-0.11,0.0391,30.45,-26.1,-15.3,294.87,-73.39,11.27,48.84391,2.353356,94.3,NaN,,11.892,,0 / 30,,876,2022-01-11 15:48:30:664
-0.5189,9.4041,2.8358,-0.5477,9.3974,2.7496,0.099,-0.3587,0.0266,0.0828,-0.11,0.0391,30.45,-26.1,-15.3,294.87,-73.39,11.27,48.84391,2.353356,94.3,NaN,,11.892,,0 / 30,,880,2022-01-11 15:48:30:668
-0.5189,9.4041,2.8358,-0.5477,9.3974,2.7496,0.099,-0.3587,0.0266,0.0828,-0.11,0.0391,30.45,-26.1,-15.3,294.87,-73.39,11.27,48.84391,2.353356,94.3,NaN,,11.892,,0 / 30,,887,2022-01-11 15:48:30:675
-0.5189,9.4041,2.8358,-0.5477,9.3974,2.7496,0.099,-0.3587,0.0266,0.0828,-0.11,0.0391,30.45,-26.1,-15.3,294.87,-73.39,11.27,48.84391,2.353356,94.3,NaN,,11.892,,0 / 30,,890,2022-01-11 15:48:30:678
-0.5189,9.4041,2.8358,-0.4846,9.4105,2.7164,-0.1705,-0.1512,-0.1058,0.0646,-0.1017,0.0891,30.45,-26.1,-15.3,294.87,-73.39,11.27,48.84391,2.353356,94.3,NaN,,11.892,,0 / 30,,897,2022-01-11 15:48:30:685
-0.5189,9.4041,2.8358,-0.4846,9.4105,2.7164,-0.1705,-0.1512,-0.1058,0.0646,-0.1017,0.0891,30.45,-26.1,-15.3,294.87,-73.39,11.27,48.84391,2.353356,94.3,NaN,,11.892,,0 / 30,,901,2022-01-11 15:48:30:689
-0.5189,9.4041,2.8358,-0.4846,9.4105,2.7164,-0.1705,-0.1512,-0.1058,0.0646,-0.1017,0.0891,30.45,-26.1,-15.3,294.87,-73.39,11.27,48.84391,2.353356,94.3,NaN,,11.892,,0 / 30,,906,2022-01-11 15:48:30:694
-0.5189,9.4041,2.8358,-0.4846,9.4105,2.7164,-0.1705,-0.1512,-0.1058,0.0646,-0.1017,0.0891,30.45,-26.1,-15.3,294.87,-73.39,11.27,48.84391,2.353356,94.3,NaN,,11.892,,0 / 30,,910,2022-01-11 15:48:30:698
-0.7908,9.6497,2.4837,-0.4846,9.4105,2.7164,-0.1705,-0.1512,-0.1058,0.0646,-0.1017,0.0891,30.45,-26.1,-15.3,294.87,-73.39,11.27,48.84391,2.353356,94.3,NaN,,11.892,,0 / 30,,916,2022-01-11 15:48:30:704
-0.7908,9.6497,2.4837,-0.4846,9.4105,2.7164,-0.1705,-0.1512,-0.1058,0.0646,-0.1017,0.0891,30.45,-26.1,-15.3,294.87,-73.39,11.27,48.84391,2.353356,94.3,NaN,,11.892,,0 / 30,,921,2022-01-11 15:48:30:709
-0.7908,9.6497,2.4837,-0.4846,9.4105,2.7164,-0.1705,-0.1512,-0.1058,0.0646,-0.1017,0.0891,30.45,-26.1,-15.3,294.87,-73.39,11.27,48.84391,2.353356,94.3,NaN,,11.892,,0 / 30,,926,2022-01-11 15:48:30:714
-0.7908,9.6497,2.4837,-0.4846,9.4105,2.7164,-0.1705,-0.1512,-0.1058,0.0646,-0.1017,0.0891,30.45,-26.1,-15.3,294.87,-73.39,11.27,48.84391,2.353356,94.3,NaN,,11.892,,0 / 30,,931,2022-01-11 15:48:30:719
-0.7908,9.6497,2.4837,-0.4846,9.4105,2.7164,-0.1705,-0.1512,-0.1058,0.0646,-0.1017,0.0891,30.45,-26.1,-15.3,294.87,-73.39,11.27,48.84391,2.353356,94.3,NaN,,11.892,,0 / 30,,937,2022-01-11 15:48:30:725
-0.7908,9.6497,2.4837,-0.4846,9.4105,2.7164,-0.1705,-0.1512,-0.1058,0.0646,-0.1017,0.0891,30.45,-26.1,-15.3,294.87,-73.39,11.27,48.84391,2.353356,94.3,NaN,,11.892,,0 / 30,,941,2022-01-11 15:48:30:729
-0.7908,9.6497,2.4837,-0.4846,9.4105,2.7164,-0.1705,-0.1512,-0.1058,0.0646,-0.1017,0.0891,30.45,-26.1,-15.3,294.87,-73.39,11.27,48.84391,2.353356,94.3,NaN,,11.892,,0 / 30,,946,2022-01-11 15:48:30:734
-0.7908,9.6497,2.4837,-0.4846,9.4105,2.7164,-0.1705,-0.1512,-0.1058,0.0646,-0.1017,0.0891,30.45,-26.1,-15.3,294.87,-73.39,11.27,48.84391,2.353356,94.3,NaN,,11.892,,0 / 30,,951,2022-01-11 15:48:30:739
-0.7908,9.6497,2.4837,-0.3474,9.4234,2.6924,-0.1705,-0.1512,-0.1058,0.0646,-0.1017,0.0891,30.45,-26.1,-15.3,294.87,-73.39,11.27,48.84391,2.353356,94.3,NaN,,11.892,,0 / 30,,955,2022-01-11 15:48:30:743
-0.7908,9.6497,2.4837,-0.3474,9.4234,2.6924,-0.1959,-0.0153,0.2294,0.0646,-0.1017,0.0891,30.45,-26.1,-15.3,294.87,-73.39,11.27,48.84391,2.353356,94.3,NaN,,11.892,,0 / 30,,961,2022-01-11 15:48:30:749
-0.7908,9.6497,2.4837,-0.3474,9.4234,2.6924,-0.1959,-0.0153,0.2294,0.0646,-0.1017,0.0891,30.45,-26.1,-15.3,294.87,-73.39,11.27,48.84391,2.353356,94.3,NaN,,11.892,,0 / 30,,965,2022-01-11 15:48:30:753
-0.7908,9.6497,2.4837,-0.3474,9.4234,2.6924,-0.1959,-0.0153,0.2294,0.0646,-0.1017,0.0891,30.3,-26.32,-15.45,291.18,-73.93,7.35,48.84391,2.353356,94.3,NaN,,11.892,,0 / 30,,971,2022-01-11 15:48:30:759
-0.7908,9.6497,2.4837,-0.3474,9.4234,2.6924,-0.1959,-0.0153,0.2294,0.0646,-0.1017,0.0891,30.3,-26.32,-15.45,291.18,-73.93,7.35,48.84391,2.353356,94.3,NaN,,11.892,,0 / 30,,975,2022-01-11 15:48:30:763
-0.7908,9.6497,2.4837,-0.3474,9.4234,2.6924,-0.1959,-0.0153,0.2294,0.0646,-0.1017,0.0891,30.3,-26.32,-15.45,291.18,-73.93,7.35,48.84391,2.353356,94.3,NaN,,11.892,,0 / 30,,981,2022-01-11 15:48:30:769
-0.3236,10.7097,3.4887,-0.3474,9.4234,2.6924,-0.1959,-0.0153,0.2294,0.0646,-0.1017,0.0891,30.3,-26.32,-15.45,291.18,-73.93,7.35,48.84391,2.353356,94.3,NaN,,11.892,,0 / 30,,986,2022-01-11 15:48:30:774
-0.3236,10.7097,3.4887,-0.3474,9.4234,2.6924,-0.1959,-0.0153,0.2294,0.0646,-0.1017,0.0891,30.3,-26.32,-15.45,291.18,-73.93,7.35,48.84391,2.353356,94.3,NaN,,11.892,,0 / 30,,991,2022-01-11 15:48:30:779
-0.3236,10.7097,3.4887,-0.3474,9.4234,2.6924,-0.1959,-0.0153,0.2294,0.0646,-0.1017,0.0891,30.3,-26.32,-15.45,291.18,-73.93,7.35,48.84391,2.353356,94.3,NaN,,11.892,,0 / 30,,996,2022-01-11 15:48:30:784
-0.3236,10.7097,3.4887,-0.3474,9.4234,2.6924,-0.1959,-0.0153,0.2294,0.0646,-0.1017,0.0891,30.3,-26.32,-15.45,291.18,-73.93,7.35,48.84391,2.353356,94.3,NaN,,11.892,,0 / 30,,1001,2022-01-11 15:48:30:789
-0.3236,10.7097,3.4887,-0.3474,9.4234,2.6924,-0.1959,-0.0153,0.2294,0.0646,-0.1017,0.0891,30.3,-26.32,-15.45,291.18,-73.93,7.35,48.84391,2.353356,94.3,NaN,,11.892,,0 / 30,,1006,2022-01-11 15:48:30:794
-0.3236,10.7097,3.4887,-0.3474,9.4234,2.6924,-0.1959,-0.0153,0.2294,0.0646,-0.1017,0.0891,30.3,-26.32,-15.45,291.18,-73.93,7.35,48.84391,2.353356,94.3,NaN,,11.892,,0 / 30,,1012,2022-01-11 15:48:30:800
-0.3236,10.7097,3.4887,-0.3474,9.4234,2.6924,-0.1959,-0.0153,0.2294,0.0646,-0.1017,0.0891,30.3,-26.32,-15.45,291.18,-73.93,7.35,48.84391,2.353356,94.3,NaN,,11.892,,0 / 30,,1016,2022-01-11 15:48:30:804
-0.3236,10.7097,3.4887,-0.3474,9.4234,2.6924,-0.1959,-0.0153,0.2294,0.0646,-0.1017,0.0891,30.3,-26.32,-15.45,291.18,-73.93,7.35,48.84391,2.353356,94.3,NaN,,11.892,,0 / 30,,1021,2022-01-11 15:48:30:809
-0.3236,10.7097,3.4887,-0.3474,9.4234,2.6924,-0.1959,-0.0153,0.2294,-0.4731,0.1221,0.1391,30.3,-26.32,-15.45,291.18,-73.93,7.35,48.84391,2.353356,94.3,NaN,,11.892,,0 / 30,,1025,2022-01-11 15:48:30:813
-0.3236,10.7097,3.4887,-0.3474,9.4234,2.6924,-0.1959,-0.0153,0.2294,-0.4731,0.1221,0.1391,30.3,-26.32,-15.45,291.18,-73.93,7.35,48.84391,2.353356,94.3,NaN,,11.892,,0 / 30,,1031,2022-01-11 15:48:30:819
-0.3236,10.7097,3.4887,-0.3474,9.4234,2.6924,-0.1959,-0.0153,0.2294,-0.4731,0.1221,0.1391,30.3,-26.32,-15.45,291.18,-73.93,7.35,48.84391,2.353356,94.3,NaN,,11.892,,0 / 30,,1036,2022-01-11 15:48:30:824
-0.3236,10.7097,3.4887,-0.3474,9.4234,2.6924,-0.1959,-0.0153,0.2294,-0.4731,0.1221,0.1391,30.3,-26.32,-15.45,291.18,-73.93,7.35,48.84391,2.353356,94.3,NaN,,11.892,,0 / 30,,1040,2022-01-11 15:48:30:828
-0.3236,10.7097,3.4887,-0.3474,9.4234,2.6924,-0.1959,-0.0153,0.2294,-0.4731,0.1221,0.1391,30.3,-26.32,-15.45,291.18,-73.93,7.35,48.84391,2.353356,94.3,NaN,,11.892,,0 / 30,,1045,2022-01-11 15:48:30:833
-1.5108,10.063,2.8908,-0.3474,9.4234,2.6924,-0.1959,-0.0153,0.2294,-0.4731,0.1221,0.1391,30.3,-26.32,-15.45,291.18,-73.93,7.35,48.84391,2.353356,94.3,NaN,,11.892,,0 / 30,,1050,2022-01-11 15:48:30:838
-1.5108,10.063,2.8908,-0.3474,9.4234,2.6924,-0.1959,-0.0153,0.2294,-0.4731,0.1221,0.1391,30.3,-26.32,-15.45,291.18,-73.93,7.35,48.84391,2.353356,94.3,NaN,,11.892,,0 / 30,,1056,2022-01-11 15:48:30:844
-1.5108,10.063,2.8908,-0.3474,9.4234,2.6924,-0.1959,-0.0153,0.2294,-0.4731,0.1221,0.1391,30.3,-26.32,-15.45,291.18,-73.93,7.35,48.84391,2.353356,94.3,NaN,,11.892,,0 / 30,,1060,2022-01-11 15:48:30:848
-1.5108,10.063,2.8908,0.0066,9.2974,3.119,-0.8311,0.7693,0.2615,-0.4731,0.1221,0.1391,30.3,-26.32,-15.45,291.18,-73.93,7.35,48.84391,2.353356,94.3,NaN,,11.892,,0 / 30,,1065,2022-01-11 15:48:30:853
-1.5108,10.063,2.8908,0.0066,9.2974,3.119,-0.8311,0.7693,0.2615,-0.4731,0.1221,0.1391,29.7,-26.55,-15.97,282.25,-71.45,-0.12,48.84391,2.353356,94.3,NaN,,11.892,,0 / 30,,1071,2022-01-11 15:48:30:859
-1.5108,10.063,2.8908,0.0066,9.2974,3.119,-0.8311,0.7693,0.2615,-0.4731,0.1221,0.1391,29.7,-26.55,-15.97,282.25,-71.45,-0.12,48.84391,2.353356,94.3,NaN,,11.892,,0 / 30,,1076,2022-01-11 15:48:30:864
-1.5108,10.063,2.8908,0.0066,9.2974,3.119,-0.8311,0.7693,0.2615,-0.4731,0.1221,0.1391,29.7,-26.55,-15.97,282.25,-71.45,-0.12,48.84391,2.353356,94.3,NaN,,11.892,,0 / 30,,1081,2022-01-11 15:48:30:869
-1.5108,10.063,2.8908,0.0066,9.2974,3.119,-0.8311,0.7693,0.2615,-0.4731,0.1221,0.1391,29.7,-26.55,-15.97,282.25,-71.45,-0.12,48.84391,2.353356,94.3,NaN,,11.892,,0 / 30,,1086,2022-01-11 15:48:30:874
-1.5108,10.063,2.8908,0.0066,9.2974,3.119,-0.8311,0.7693,0.2615,-0.4731,0.1221,0.1391,29.7,-26.55,-15.97,282.25,-71.45,-0.12,48.84391,2.353356,94.3,NaN,,11.892,,0 / 30,,1090,2022-01-11 15:48:30:878
-1.5108,10.063,2.8908,0.0066,9.2974,3.119,-0.8311,0.7693,0.2615,-8.0E-4,-0.6298,0.5772,29.7,-26.55,-15.97,282.25,-71.45,-0.12,48.84391,2.353356,94.3,NaN,,11.892,,0 / 30,,1096,2022-01-11 15:48:30:884
-1.5108,10.063,2.8908,0.0066,9.2974,3.119,-0.8311,0.7693,0.2615,-8.0E-4,-0.6298,0.5772,29.7,-26.55,-15.97,282.25,-71.45,-0.12,48.84391,2.353356,94.3,NaN,,11.892,,0 / 30,,1100,2022-01-11 15:48:30:888
-1.5108,10.063,2.8908,0.0066,9.2974,3.119,-0.8311,0.7693,0.2615,-8.0E-4,-0.6298,0.5772,29.7,-26.55,-15.97,282.25,-71.45,-0.12,48.84391,2.353356,94.3,NaN,,11.892,,0 / 30,,1105,2022-01-11 15:48:30:893
0.9697,7.4399,2.1688,0.0066,9.2974,3.119,-0.8311,0.7693,0.2615,-8.0E-4,-0.6298,0.5772,29.7,-26.55,-15.97,282.25,-71.45,-0.12,48.84391,2.353356,94.3,NaN,,11.892,,0 / 30,,1111,2022-01-11 15:48:30:899
0.9697,7.4399,2.1688,0.0066,9.2974,3.119,-0.8311,0.7693,0.2615,-8.0E-4,-0.6298,0.5772,29.7,-26.55,-15.97,282.25,-71.45,-0.12,48.84391,2.353356,94.3,NaN,,11.892,,0 / 30,,1115,2022-01-11 15:48:30:903
0.9697,7.4399,2.1688,0.0066,9.2974,3.119,-0.8311,0.7693,0.2615,-8.0E-4,-0.6298,0.5772,29.7,-26.55,-15.97,282.25,-71.45,-0.12,48.84391,2.353356,94.3,NaN,,11.892,,0 / 30,,1120,2022-01-11 15:48:30:908
0.9697,7.4399,2.1688,0.0066,9.2974,3.119,-0.8311,0.7693,0.2615,-8.0E-4,-0.6298,0.5772,29.7,-26.55,-15.97,282.25,-71.45,-0.12,48.84391,2.353356,94.3,NaN,,11.892,,0 / 30,,1126,2022-01-11 15:48:30:914
0.9697,7.4399,2.1688,0.0066,9.2974,3.119,-0.8311,0.7693,0.2615,-8.0E-4,-0.6298,0.5772,29.7,-26.55,-15.97,282.25,-71.45,-0.12,48.84391,2.353356,94.3,NaN,,11.892,,0 / 30,,1130,2022-01-11 15:48:30:918
0.9697,7.4399,2.1688,0.0066,9.2974,3.119,-0.8311,0.7693,0.2615,-8.0E-4,-0.6298,0.5772,29.7,-26.55,-15.97,282.25,-71.45,-0.12,48.84391,2.353356,94.3,NaN,,11.892,,0 / 30,,1136,2022-01-11 15:48:30:924
0.9697,7.4399,2.1688,0.5025,9.4215,2.6744,-1.2079,0.9123,0.3575,-8.0E-4,-0.6298,0.5772,29.7,-26.55,-15.97,282.25,-71.45,-0.12,48.84391,2.353356,94.3,NaN,,11.892,,0 / 30,,1140,2022-01-11 15:48:30:928
0.9697,7.4399,2.1688,0.5025,9.4215,2.6744,-1.2079,0.9123,0.3575,-8.0E-4,-0.6298,0.5772,29.7,-26.55,-15.97,282.25,-71.45,-0.12,48.84391,2.353356,94.3,NaN,,11.892,,0 / 30,,1146,2022-01-11 15:48:30:934
0.9697,7.4399,2.1688,0.5025,9.4215,2.6744,-1.2079,0.9123,0.3575,-8.0E-4,-0.6298,0.5772,29.7,-26.55,-15.97,282.25,-71.45,-0.12,48.84391,2.353356,94.3,NaN,,11.892,,0 / 30,,1151,2022-01-11 15:48:30:939
0.9697,7.4399,2.1688,0.5025,9.4215,2.6744,-1.2079,0.9123,0.3575,-8.0E-4,-0.6298,0.5772,29.7,-26.55,-15.97,282.25,-71.45,-0.12,48.84391,2.353356,94.3,NaN,,11.892,,0 / 30,,1155,2022-01-11 15:48:30:943
0.9697,7.4399,2.1688,0.5025,9.4215,2.6744,-1.2079,0.9123,0.3575,-8.0E-4,-0.6298,0.5772,29.7,-26.55,-15.97,282.25,-71.45,-0.12,48.84391,2.353356,94.3,NaN,,11.892,,0 / 30,,1161,2022-01-11 15:48:30:949
0.9697,7.4399,2.1688,0.5025,9.4215,2.6744,-1.2079,0.9123,0.3575,-8.0E-4,-0.6298,0.5772,29.7,-26.55,-15.97,282.25,-71.45,-0.12,48.84391,2.353356,94.3,NaN,,11.892,,0 / 30,,1165,2022-01-11 15:48:30:953
1.8646,7.4949,1.2464,0.5025,9.4215,2.6744,-1.2079,0.9123,0.3575,-8.0E-4,-0.6298,0.5772,29.18,-27.0,-16.05,274.49,-73.89,-10.64,48.84391,2.353356,94.3,NaN,,11.892,,0 / 30,,1170,2022-01-11 15:48:30:958
1.8646,7.4949,1.2464,0.5025,9.4215,2.6744,-1.2079,0.9123,0.3575,-8.0E-4,-0.6298,0.5772,29.18,-27.0,-16.05,274.49,-73.89,-10.64,48.84391,2.353356,94.3,NaN,,11.892,,0 / 30,,1176,2022-01-11 15:48:30:964
1.8646,7.4949,1.2464,0.5025,9.4215,2.6744,-1.2079,0.9123,0.3575,-8.0E-4,-0.6298,0.5772,29.18,-27.0,-16.05,274.49,-73.89,-10.64,48.84391,2.353356,94.3,NaN,,11.892,,0 / 30,,1180,2022-01-11 15:48:30:968
1.8646,7.4949,1.2464,0.5025,9.4215,2.6744,-1.2079,0.9123,0.3575,-8.0E-4,-0.6298,0.5772,29.18,-27.0,-16.05,274.49,-73.89,-10.64,48.84391,2.353356,94.3,NaN,,11.892,,0 / 30,,1185,2022-01-11 15:48:30:973
1.8646,7.4949,1.2464,0.5025,9.4215,2.6744,-1.2079,0.9123,0.3575,-8.0E-4,-0.6298,0.5772,29.18,-27.0,-16.05,274.49,-73.89,-10.64,48.84391,2.353356,94.3,NaN,,11.892,,0 / 30,,1191,2022-01-11 15:48:30:979
1.8646,7.4949,1.2464,0.5025,9.4215,2.6744,-1.2079,0.9123,0.3575,-8.0E-4,-0.6298,0.5772,29.18,-27.0,-16.05,274.49,-73.89,-10.64,48.84391,2.353356,94.3,NaN,,11.892,,0 / 30,,1195,2022-01-11 15:48:30:983
1.8646,7.4949,1.2464,0.4418,9.3752,2.8428,0.4241,-1.2094,-0.8083,-8.0E-4,-0.6298,0.5772,29.18,-27.0,-16.05,274.49,-73.89,-10.64,48.84391,2.353356,94.3,NaN,,11.892,,0 / 30,,1200,2022-01-11 15:48:30:988
1.8646,7.4949,1.2464,0.4418,9.3752,2.8428,0.4241,-1.2094,-0.8083,-8.0E-4,-0.6298,0.5772,29.18,-27.0,-16.05,274.49,-73.89,-10.64,48.84391,2.353356,94.3,NaN,,11.892,,0 / 30,,1205,2022-01-11 15:48:30:993
1.8646,7.4949,1.2464,0.4418,9.3752,2.8428,0.4241,-1.2094,-0.8083,-8.0E-4,-0.6298,0.5772,29.18,-27.0,-16.05,274.49,-73.89,-10.64,48.84391,2.353356,94.3,NaN,,11.892,,0 / 30,,1210,2022-01-11 15:48:30:998
1.8646,7.4949,1.2464,0.4418,9.3752,2.8428,0.4241,-1.2094,-0.8083,-0.3514,1.5895,0.2406,29.18,-27.0,-16.05,274.49,-73.89,-10.64,48.84391,2.353356,94.3,NaN,,11.892,,0 / 30,,1215,2022-01-11 15:48:31:003
1.8646,7.4949,1.2464,0.4418,9.3752,2.8428,0.4241,-1.2094,-0.8083,-0.3514,1.5895,0.2406,29.18,-27.0,-16.05,274.49,-73.89,-10.64,48.84391,2.353356,94.3,NaN,,11.892,,0 / 30,,1221,2022-01-11 15:48:31:009
1.8646,7.4949,1.2464,0.4418,9.3752,2.8428,0.4241,-1.2094,-0.8083,-0.3514,1.5895,0.2406,29.18,-27.0,-16.05,274.49,-73.89,-10.64,48.84391,2.353356,94.3,NaN,,11.892,,0 / 30,,1225,2022-01-11 15:48:31:013
1.8646,7.4949,1.2464,0.4418,9.3752,2.8428,0.4241,-1.2094,-0.8083,-0.3514,1.5895,0.2406,29.18,-27.0,-16.05,274.49,-73.89,-10.64,48.84391,2.353356,94.3,NaN,,11.892,,0 / 30,,1230,2022-01-11 15:48:31:018
1.8646,7.4949,1.2464,0.4418,9.3752,2.8428,0.4241,-1.2094,-0.8083,-0.3514,1.5895,0.2406,29.18,-27.0,-16.05,274.49,-73.89,-10.64,48.84391,2.353356,94.3,NaN,,11.892,,0 / 30,,1235,2022-01-11 15:48:31:023
1.4142,8.8077,4.5858,0.4418,9.3752,2.8428,0.4241,-1.2094,-0.8083,-0.3514,1.5895,0.2406,29.18,-27.0,-16.05,274.49,-73.89,-10.64,48.84391,2.353356,94.3,NaN,,11.892,,0 / 30,,1242,2022-01-11 15:48:31:030
1.4142,8.8077,4.5858,0.4418,9.3752,2.8428,0.4241,-1.2094,-0.8083,-0.3514,1.5895,0.2406,29.18,-27.0,-16.05,274.49,-73.89,-10.64,48.84391,2.353356,94.3,NaN,,11.892,,0 / 30,,1246,2022-01-11 15:48:31:034
1.4142,8.8077,4.5858,0.4418,9.3752,2.8428,0.4241,-1.2094,-0.8083,-0.3514,1.5895,0.2406,29.18,-27.0,-16.05,274.49,-73.89,-10.64,48.84391,2.353356,94.3,NaN,,11.892,,0 / 30,,1250,2022-01-11 15:48:31:038
1.4142,8.8077,4.5858,0.4418,9.3752,2.8428,0.4241,-1.2094,-0.8083,-0.3514,1.5895,0.2406,29.18,-27.0,-16.05,274.49,-73.89,-10.64,48.84391,2.353356,94.3,NaN,,11.892,,0 / 30,,1255,2022-01-11 15:48:31:043
1.4142,8.8077,4.5858,0.4418,9.3752,2.8428,0.4241,-1.2094,-0.8083,-0.3514,1.5895,0.2406,29.18,-27.0,-16.05,274.49,-73.89,-10.64,48.84391,2.353356,94.3,NaN,,11.892,,0 / 30,,1260,2022-01-11 15:48:31:048
1.4142,8.8077,4.5858,0.4418,9.3752,2.8428,0.4241,-1.2094,-0.8083,-0.3514,1.5895,0.2406,29.18,-27.0,-16.05,274.49,-73.89,-10.64,48.84391,2.353356,94.3,NaN,,11.892,,0 / 30,,1265,2022-01-11 15:48:31:053
1.4142,8.8077,4.5858,0.4418,9.3752,2.8428,0.4241,-1.2094,-0.8083,-0.3514,1.5895,0.2406,27.53,-27.6,-15.67,275.29,-72.94,-8.83,48.84391,2.353356,94.3,NaN,,11.892,,0 / 30,,1270,2022-01-11 15:48:31:058
1.4142,8.8077,4.5858,0.4418,9.3752,2.8428,0.4241,-1.2094,-0.8083,-0.3514,1.5895,0.2406,27.53,-27.6,-15.67,275.29,-72.94,-8.83,48.84391,2.353356,94.3,NaN,,11.892,,0 / 30,,1276,2022-01-11 15:48:31:064
1.4142,8.8077,4.5858,0.4418,9.3752,2.8428,0.4241,-1.2094,-0.8083,-0.3514,1.5895,0.2406,27.53,-27.6,-15.67,275.29,-72.94,-8.83,48.84391,2.353356,94.3,NaN,,11.892,,0 / 30,,1281,2022-01-11 15:48:31:069
1.4142,8.8077,4.5858,0.4418,9.3752,2.8428,0.4241,-1.2094,-0.8083,-0.3514,1.5895,0.2406,27.53,-27.6,-15.67,275.29,-72.94,-8.83,48.84391,2.353356,94.3,NaN,,11.892,,0 / 30,,1285,2022-01-11 15:48:31:073
1.4142,8.8077,4.5858,0.4418,9.3752,2.8428,0.4241,-1.2094,-0.8083,-0.3514,1.5895,0.2406,27.53,-27.6,-15.67,275.29,-72.94,-8.83,48.84391,2.353356,94.3,NaN,,11.892,,0 / 30,,1291,2022-01-11 15:48:31:079
1.4142,8.8077,4.5858,0.4418,9.3752,2.8428,0.4241,-1.2094,-0.8083,0.5048,-0.8792,-0.2342,27.53,-27.6,-15.67,275.29,-72.94,-8.83,48.84391,2.353356,94.3,NaN,,11.892,,0 / 30,,1295,2022-01-11 15:48:31:083
1.4142,8.8077,4.5858,0.4418,9.3752,2.8428,0.4241,-1.2094,-0.8083,0.5048,-0.8792,-0.2342,27.53,-27.6,-15.67,275.29,-72.94,-8.83,48.84391,2.353356,94.3,NaN,,11.892,,0 / 30,,1300,2022-01-11 15:48:31:088
1.4142,8.8077,4.5858,0.4418,9.3752,2.8428,0.4241,-1.2094,-0.8083,0.5048,-0.8792,-0.2342,27.53,-27.6,-15.67,275.29,-72.94,-8.83,48.84391,2.353356,94.3,NaN,,11.892,,0 / 30,,1306,2022-01-11 15:48:31:094
0.0284,9.4926,2.4455,0.4767,9.4594,2.5423,0.5469,-0.7602,2.0304,0.5048,-0.8792,-0.2342,27.53,-27.6,-15.67,275.29,-72.94,-8.83,48.84391,2.353356,94.3,NaN,,11.892,,0 / 30,,1310,2022-01-11 15:48:31:098
0.0284,9.4926,2.4455,0.4767,9.4594,2.5423,0.5469,-0.7602,2.0304,0.5048,-0.8792,-0.2342,27.53,-27.6,-15.67,275.29,-72.94,-8.83,48.84391,2.353356,94.3,NaN,,11.892,,0 / 30,,1315,2022-01-11 15:48:31:103
0.0284,9.4926,2.4455,0.4767,9.4594,2.5423,0.5469,-0.7602,2.0304,0.5048,-0.8792,-0.2342,27.53,-27.6,-15.67,275.29,-72.94,-8.83,48.84391,2.353356,94.3,NaN,,11.892,,0 / 30,,1321,2022-01-11 15:48:31:109
0.0284,9.4926,2.4455,0.4767,9.4594,2.5423,0.5469,-0.7602,2.0304,0.5048,-0.8792,-0.2342,27.53,-27.6,-15.67,275.29,-72.94,-8.83,48.84391,2.353356,94.3,NaN,,11.892,,0 / 30,,1326,2022-01-11 15:48:31:114
0.0284,9.4926,2.4455,0.4767,9.4594,2.5423,0.5469,-0.7602,2.0304,0.5048,-0.8792,-0.2342,27.53,-27.6,-15.67,275.29,-72.94,-8.83,48.84391,2.353356,94.3,NaN,,11.892,,0 / 30,,1330,2022-01-11 15:48:31:118
0.0284,9.4926,2.4455,0.4767,9.4594,2.5423,0.5469,-0.7602,2.0304,0.5048,-0.8792,-0.2342,27.53,-27.6,-15.67,275.29,-72.94,-8.83,48.84391,2.353356,94.3,NaN,,11.892,,0 / 30,,1335,2022-01-11 15:48:31:123
0.0284,9.4926,2.4455,0.4767,9.4594,2.5423,0.5469,-0.7602,2.0304,0.5048,-0.8792,-0.2342,27.53,-27.6,-15.67,275.29,-72.94,-8.83,48.84391,2.353356,94.3,NaN,,11.892,,0 / 30,,1341,2022-01-11 15:48:31:129
0.0284,9.4926,2.4455,0.4767,9.4594,2.5423,0.5469,-0.7602,2.0304,0.5048,-0.8792,-0.2342,27.53,-27.6,-15.67,275.29,-72.94,-8.83,48.84391,2.353356,94.3,NaN,,11.892,,0 / 30,,1345,2022-01-11 15:48:31:133
0.0284,9.4926,2.4455,0.4767,9.4594,2.5423,0.5469,-0.7602,2.0304,0.5048,-0.8792,-0.2342,27.53,-27.6,-15.67,275.29,-72.94,-8.83,48.84391,2.353356,94.3,NaN,,11.892,,0 / 30,,1351,2022-01-11 15:48:31:139
0.0284,9.4926,2.4455,0.4767,9.4594,2.5423,0.5469,-0.7602,2.0304,0.5048,-0.8792,-0.2342,27.53,-27.6,-15.67,275.29,-72.94,-8.83,48.84391,2.353356,94.3,NaN,,11.892,,0 / 30,,1355,2022-01-11 15:48:31:143
0.0284,9.4926,2.4455,0.4767,9.4594,2.5423,0.5469,-0.7602,2.0304,0.5048,-0.8792,-0.2342,27.53,-27.6,-15.67,275.29,-72.94,-8.83,48.84391,2.353356,94.3,NaN,,11.892,,0 / 30,,1360,2022-01-11 15:48:31:148
0.0284,9.4926,2.4455,0.4767,9.4594,2.5423,0.5469,-0.7602,2.0304,0.5048,-0.8792,-0.2342,27.53,-27.6,-15.67,275.29,-72.94,-8.83,48.84391,2.353356,94.3,NaN,,11.892,,0 / 30,,1366,2022-01-11 15:48:31:154
0.7134,9.7971,2.2059,0.2885,9.5204,2.3341,-0.1652,0.2943,0.5236,0.5048,-0.8792,-0.2342,26.85,-27.9,-15.52,280.8,-76.12,-7.05,48.84391,2.353356,94.3,NaN,,11.892,,0 / 30,,1371,2022-01-11 15:48:31:159
0.7134,9.7971,2.2059,0.2885,9.5204,2.3341,-0.1652,0.2943,0.5236,0.5048,-0.8792,-0.2342,26.85,-27.9,-15.52,280.8,-76.12,-7.05,48.84391,2.353356,94.3,NaN,,11.892,,0 / 30,,1376,2022-01-11 15:48:31:164
0.7134,9.7971,2.2059,0.2885,9.5204,2.3341,-0.1652,0.2943,0.5236,0.5048,-0.8792,-0.2342,26.85,-27.9,-15.52,280.8,-76.12,-7.05,48.84391,2.353356,94.3,NaN,,11.892,,0 / 30,,1381,2022-01-11 15:48:31:169
0.7134,9.7971,2.2059,0.2885,9.5204,2.3341,-0.1652,0.2943,0.5236,0.5048,-0.8792,-0.2342,26.85,-27.9,-15.52,280.8,-76.12,-7.05,48.84391,2.353356,94.3,NaN,,11.892,,0 / 30,,1385,2022-01-11 15:48:31:173
0.7134,9.7971,2.2059,0.2885,9.5204,2.3341,-0.1652,0.2943,0.5236,0.5048,-0.8792,-0.2342,26.85,-27.9,-15.52,280.8,-76.12,-7.05,48.84391,2.353356,94.3,NaN,,11.892,,0 / 30,,1390,2022-01-11 15:48:31:178
0.7134,9.7971,2.2059,0.2885,9.5204,2.3341,-0.1652,0.2943,0.5236,0.5048,-0.8792,-0.2342,26.85,-27.9,-15.52,280.8,-76.12,-7.05,48.84391,2.353356,94.3,NaN,,11.892,,0 / 30,,1395,2022-01-11 15:48:31:183
0.7134,9.7971,2.2059,0.2885,9.5204,2.3341,-0.1652,0.2943,0.5236,0.5048,-0.8792,-0.2342,26.85,-27.9,-15.52,280.8,-76.12,-7.05,48.84391,2.353356,94.3,NaN,,11.892,,0 / 30,,1401,2022-01-11 15:48:31:189
0.7134,9.7971,2.2059,0.2885,9.5204,2.3341,-0.1652,0.2943,0.5236,0.5048,-0.8792,-0.2342,26.85,-27.9,-15.52,280.8,-76.12,-7.05,48.84391,2.353356,94.3,NaN,,11.892,,0 / 30,,1405,2022-01-11 15:48:31:193
0.7134,9.7971,2.2059,0.2885,9.5204,2.3341,-0.1652,0.2943,0.5236,0.5048,-0.8792,-0.2342,26.85,-27.9,-15.52,280.8,-76.12,-7.05,48.84391,2.353356,94.3,NaN,,11.892,,0 / 30,,1410,2022-01-11 15:48:31:198
0.7134,9.7971,2.2059,0.2885,9.5204,2.3341,-0.1652,0.2943,0.5236,0.5048,-0.8792,-0.2342,26.85,-27.9,-15.52,280.8,-76.12,-7.05,48.84391,2.353356,94.3,NaN,,11.892,,0 / 30,,1416,2022-01-11 15:48:31:204
0.7134,9.7971,2.2059,0.2885,9.5204,2.3341,-0.1652,0.2943,0.5236,0.3164,-0.6887,-0.641,26.85,-27.9,-15.52,280.8,-76.12,-7.05,48.84391,2.353356,94.3,NaN,,11.892,,0 / 30,,1420,2022-01-11 15:48:31:208
0.7134,9.7971,2.2059,0.2885,9.5204,2.3341,-0.1652,0.2943,0.5236,0.3164,-0.6887,-0.641,26.85,-27.9,-15.52,280.8,-76.12,-7.05,48.84391,2.353356,94.3,NaN,,11.892,,0 / 30,,1425,2022-01-11 15:48:31:213
0.7134,9.7971,2.2059,0.2885,9.5204,2.3341,-0.1652,0.2943,0.5236,0.3164,-0.6887,-0.641,26.85,-27.9,-15.52,280.8,-76.12,-7.05,48.84391,2.353356,94.3,NaN,,11.892,,0 / 30,,1431,2022-01-11 15:48:31:219
0.7134,9.7971,2.2059,0.2885,9.5204,2.3341,-0.1652,0.2943,0.5236,0.3164,-0.6887,-0.641,26.85,-27.9,-15.52,280.8,-76.12,-7.05,48.84391,2.353356,94.3,NaN,,11.892,,0 / 30,,1435,2022-01-11 15:48:31:223
0.7134,9.7971,2.2059,0.2885,9.5204,2.3341,-0.1652,0.2943,0.5236,0.3164,-0.6887,-0.641,26.85,-27.9,-15.52,280.8,-76.12,-7.05,48.84391,2.353356,94.3,NaN,,11.892,,0 / 30,,1441,2022-01-11 15:48:31:229
-0.1585,10.1886,1.7506,0.0073,9.5646,2.1655,0.6068,-0.1597,0.1943,0.3164,-0.6887,-0.641,26.85,-27.9,-15.52,280.8,-76.12,-7.05,48.84391,2.353356,94.3,NaN,,11.892,,0 / 30,,1445,2022-01-11 15:48:31:233
-0.1585,10.1886,1.7506,0.0073,9.5646,2.1655,0.6068,-0.1597,0.1943,0.3164,-0.6887,-0.641,26.85,-27.9,-15.52,280.8,-76.12,-7.05,48.84391,2.353356,94.3,NaN,,11.892,,0 / 30,,1451,2022-01-11 15:48:31:239
-0.1585,10.1886,1.7506,0.0073,9.5646,2.1655,0.6068,-0.1597,0.1943,0.3164,-0.6887,-0.641,26.85,-27.9,-15.52,280.8,-76.12,-7.05,48.84391,2.353356,94.3,NaN,,11.892,,0 / 30,,1456,2022-01-11 15:48:31:244
-0.1585,10.1886,1.7506,0.0073,9.5646,2.1655,0.6068,-0.1597,0.1943,0.3164,-0.6887,-0.641,26.85,-27.9,-15.52,280.8,-76.12,-7.05,48.84391,2.353356,94.3,NaN,,11.892,,0 / 30,,1460,2022-01-11 15:48:31:248
-0.1585,10.1886,1.7506,0.0073,9.5646,2.1655,0.6068,-0.1597,0.1943,0.3164,-0.6887,-0.641,26.85,-27.9,-15.52,280.8,-76.12,-7.05,48.84391,2.353356,94.3,NaN,,11.892,,0 / 30,,1466,2022-01-11 15:48:31:254
-0.1585,10.1886,1.7506,0.0073,9.5646,2.1655,0.6068,-0.1597,0.1943,0.3164,-0.6887,-0.641,26.1,-28.2,-15.3,287.8,-77.24,-0.19,48.84391,2.353356,94.3,NaN,,11.892,,0 / 30,,1471,2022-01-11 15:48:31:259
-0.1585,10.1886,1.7506,0.0073,9.5646,2.1655,0.6068,-0.1597,0.1943,0.3164,-0.6887,-0.641,26.1,-28.2,-15.3,287.8,-77.24,-0.19,48.84391,2.353356,94.3,NaN,,11.892,,0 / 30,,1476,2022-01-11 15:48:31:264
-0.1585,10.1886,1.7506,0.0073,9.5646,2.1655,0.6068,-0.1597,0.1943,0.3164,-0.6887,-0.641,26.1,-28.2,-15.3,287.8,-77.24,-0.19,48.84391,2.353356,94.3,NaN,,11.892,,0 / 30,,1480,2022-01-11 15:48:31:268
-0.1585,10.1886,1.7506,0.0073,9.5646,2.1655,0.6068,-0.1597,0.1943,0.3164,-0.6887,-0.641,26.1,-28.2,-15.3,287.8,-77.24,-0.19,48.84391,2.353356,94.3,NaN,,11.892,,0 / 30,,1486,2022-01-11 15:48:31:274
-0.1585,10.1886,1.7506,0.0073,9.5646,2.1655,0.6068,-0.1597,0.1943,0.3164,-0.6887,-0.641,26.1,-28.2,-15.3,287.8,-77.24,-0.19,48.84391,2.353356,94.3,NaN,,11.892,,0 / 30,,1490,2022-01-11 15:48:31:278
-0.1585,10.1886,1.7506,0.0073,9.5646,2.1655,0.6068,-0.1597,0.1943,0.2294,-0.4632,-0.5398,26.1,-28.2,-15.3,287.8,-77.24,-0.19,48.84391,2.353356,94.3,NaN,,11.892,,0 / 30,,1495,2022-01-11 15:48:31:283
-0.1585,10.1886,1.7506,0.0073,9.5646,2.1655,0.6068,-0.1597,0.1943,0.2294,-0.4632,-0.5398,26.1,-28.2,-15.3,287.8,-77.24,-0.19,48.84391,2.353356,94.3,NaN,,11.892,,0 / 30,,1500,2022-01-11 15:48:31:288
-0.1585,10.1886,1.7506,0.0073,9.5646,2.1655,0.6068,-0.1597,0.1943,0.2294,-0.4632,-0.5398,26.1,-28.2,-15.3,287.8,-77.24,-0.19,48.84391,2.353356,94.3,NaN,,11.892,,0 / 30,,1506,2022-01-11 15:48:31:294
-0.4651,9.6975,2.1832,0.0073,9.5646,2.1655,0.6068,-0.1597,0.1943,0.2294,-0.4632,-0.5398,26.1,-28.2,-15.3,287.8,-77.24,-0.19,48.84391,2.353356,94.3,NaN,,11.892,,0 / 30,,1516,2022-01-11 15:48:31:304
-0.4651,9.6975,2.1832,0.0073,9.5646,2.1655,0.6068,-0.1597,0.1943,0.2294,-0.4632,-0.5398,26.1,-28.2,-15.3,287.8,-77.24,-0.19,48.84391,2.353356,94.3,NaN,,11.892,,0 / 30,,1517,2022-01-11 15:48:31:305
-0.4651,9.6975,2.1832,0.0073,9.5646,2.1655,0.6068,-0.1597,0.1943,0.2294,-0.4632,-0.5398,26.1,-28.2,-15.3,287.8,-77.24,-0.19,48.84391,2.353356,94.3,NaN,,11.892,,0 / 30,,1520,2022-01-11 15:48:31:308
-0.4651,9.6975,2.1832,0.0073,9.5646,2.1655,0.6068,-0.1597,0.1943,0.2294,-0.4632,-0.5398,26.1,-28.2,-15.3,287.8,-77.24,-0.19,48.84391,2.353356,94.3,NaN,,11.892,,0 / 30,,1526,2022-01-11 15:48:31:314
-0.4651,9.6975,2.1832,0.0073,9.5646,2.1655,0.6068,-0.1597,0.1943,0.2294,-0.4632,-0.5398,26.1,-28.2,-15.3,287.8,-77.24,-0.19,48.84391,2.353356,94.3,NaN,,11.892,,0 / 30,,1531,2022-01-11 15:48:31:319
-0.4651,9.6975,2.1832,0.0073,9.5646,2.1655,0.6068,-0.1597,0.1943,0.2294,-0.4632,-0.5398,26.1,-28.2,-15.3,287.8,-77.24,-0.19,48.84391,2.353356,94.3,NaN,,11.892,,0 / 30,,1535,2022-01-11 15:48:31:323
-0.4651,9.6975,2.1832,0.0073,9.5646,2.1655,0.6068,-0.1597,0.1943,0.2294,-0.4632,-0.5398,26.1,-28.2,-15.3,287.8,-77.24,-0.19,48.84391,2.353356,94.3,NaN,,11.892,,0 / 30,,1541,2022-01-11 15:48:31:329
-0.4651,9.6975,2.1832,0.0073,9.5646,2.1655,0.6068,-0.1597,0.1943,0.2294,-0.4632,-0.5398,26.1,-28.2,-15.3,287.8,-77.24,-0.19,48.84391,2.353356,94.3,NaN,,11.892,,0 / 30,,1545,2022-01-11 15:48:31:333
-0.4651,9.6975,2.1832,0.0073,9.5646,2.1655,0.6068,-0.1597,0.1943,0.2294,-0.4632,-0.5398,26.1,-28.2,-15.3,287.8,-77.24,-0.19,48.84391,2.353356,94.3,NaN,,11.892,,0 / 30,,1550,2022-01-11 15:48:31:338
-0.4651,9.6975,2.1832,0.0073,9.5646,2.1655,0.6068,-0.1597,0.1943,0.2294,-0.4632,-0.5398,26.1,-28.2,-15.3,287.8,-77.24,-0.19,48.84391,2.353356,94.3,NaN,,11.892,,0 / 30,,1556,2022-01-11 15:48:31:344
-0.4651,9.6975,2.1832,-0.5342,9.5893,1.9828,0.322,-0.4183,0.071,0.2294,-0.4632,-0.5398,26.1,-28.2,-15.3,287.8,-77.24,-0.19,48.84391,2.353356,94.3,NaN,,11.892,,0 / 30,,1560,2022-01-11 15:48:31:348
-0.4651,9.6975,2.1832,-0.5342,9.5893,1.9828,0.322,-0.4183,0.071,0.2294,-0.4632,-0.5398,26.1,-28.2,-15.3,287.8,-77.24,-0.19,48.84391,2.353356,94.3,NaN,,11.892,,0 / 30,,1565,2022-01-11 15:48:31:353
-0.4651,9.6975,2.1832,-0.5342,9.5893,1.9828,0.322,-0.4183,0.071,0.2294,-0.4632,-0.5398,24.68,-29.25,-13.95,303.38,-77.91,15.08,48.84391,2.353356,94.3,NaN,,11.892,,0 / 30,,1571,2022-01-11 15:48:31:359
-0.4651,9.6975,2.1832,-0.5342,9.5893,1.9828,0.322,-0.4183,0.071,0.2294,-0.4632,-0.5398,24.68,-29.25,-13.95,303.38,-77.91,15.08,48.84391,2.353356,94.3,NaN,,11.892,,0 / 30,,1576,2022-01-11 15:48:31:364
-0.4651,9.6975,2.1832,-0.5342,9.5893,1.9828,0.322,-0.4183,0.071,0.2294,-0.4632,-0.5398,24.68,-29.25,-13.95,303.38,-77.91,15.08,48.84391,2.353356,94.3,NaN,,11.892,,0 / 30,,1580,2022-01-11 15:48:31:368
-0.8399,9.3144,1.6693,-0.5342,9.5893,1.9828,0.322,-0.4183,0.071,0.2294,-0.4632,-0.5398,24.68,-29.25,-13.95,303.38,-77.91,15.08,48.84391,2.353356,94.3,NaN,,11.892,,0 / 30,,1585,2022-01-11 15:48:31:373
-0.8399,9.3144,1.6693,-0.5342,9.5893,1.9828,0.322,-0.4183,0.071,0.2294,-0.4632,-0.5398,24.68,-29.25,-13.95,303.38,-77.91,15.08,48.84391,2.353356,94.3,NaN,,11.892,,0 / 30,,1592,2022-01-11 15:48:31:380
-0.8399,9.3144,1.6693,-0.5342,9.5893,1.9828,0.322,-0.4183,0.071,0.2294,-0.4632,-0.5398,24.68,-29.25,-13.95,303.38,-77.91,15.08,48.84391,2.353356,94.3,NaN,,11.892,,0 / 30,,1596,2022-01-11 15:48:31:384
-0.8399,9.3144,1.6693,-0.5342,9.5893,1.9828,0.322,-0.4183,0.071,0.2294,-0.4632,-0.5398,24.68,-29.25,-13.95,303.38,-77.91,15.08,48.84391,2.353356,94.3,NaN,,11.892,,0 / 30,,1600,2022-01-11 15:48:31:388
-0.8399,9.3144,1.6693,-0.5342,9.5893,1.9828,0.322,-0.4183,0.071,0.2294,-0.4632,-0.5398,24.68,-29.25,-13.95,303.38,-77.91,15.08,48.84391,2.353356,94.3,NaN,,11.892,,0 / 30,,1605,2022-01-11 15:48:31:393
-0.8399,9.3144,1.6693,-0.5342,9.5893,1.9828,0.322,-0.4183,0.071,0.2294,-0.4632,-0.5398,24.68,-29.25,-13.95,303.38,-77.91,15.08,48.84391,2.353356,94.3,NaN,,11.892,,0 / 30,,1611,2022-01-11 15:48:31:399
-0.8399,9.3144,1.6693,-0.5342,9.5893,1.9828,0.322,-0.4183,0.071,0.2294,-0.4632,-0.5398,24.68,-29.25,-13.95,303.38,-77.91,15.08,48.84391,2.353356,94.3,NaN,,11.892,,0 / 30,,1615,2022-01-11 15:48:31:403
-0.8399,9.3144,1.6693,-0.5342,9.5893,1.9828,0.322,-0.4183,0.071,0.1184,-0.0682,-0.3077,24.68,-29.25,-13.95,303.38,-77.91,15.08,48.84391,2.353356,94.3,NaN,,11.892,,0 / 30,,1621,2022-01-11 15:48:31:409
-0.8399,9.3144,1.6693,-0.7055,9.5913,1.9184,0.0232,-0.0546,-0.1035,0.1184,-0.0682,-0.3077,24.68,-29.25,-13.95,303.38,-77.91,15.08,48.84391,2.353356,94.3,NaN,,11.892,,0 / 30,,1626,2022-01-11 15:48:31:414
-0.8399,9.3144,1.6693,-0.7055,9.5913,1.9184,0.0232,-0.0546,-0.1035,0.1184,-0.0682,-0.3077,24.68,-29.25,-13.95,303.38,-77.91,15.08,48.84391,2.353356,94.3,NaN,,11.892,,0 / 30,,1630,2022-01-11 15:48:31:418
-0.8399,9.3144,1.6693,-0.7055,9.5913,1.9184,0.0232,-0.0546,-0.1035,0.1184,-0.0682,-0.3077,24.68,-29.25,-13.95,303.38,-77.91,15.08,48.84391,2.353356,94.3,NaN,,11.892,,0 / 30,,1635,2022-01-11 15:48:31:423
-0.8399,9.3144,1.6693,-0.7055,9.5913,1.9184,0.0232,-0.0546,-0.1035,0.1184,-0.0682,-0.3077,24.68,-29.25,-13.95,303.38,-77.91,15.08,48.84391,2.353356,94.3,NaN,,11.892,,0 / 30,,1641,2022-01-11 15:48:31:429
-0.8399,9.3144,1.6693,-0.7055,9.5913,1.9184,0.0232,-0.0546,-0.1035,0.1184,-0.0682,-0.3077,24.68,-29.25,-13.95,303.38,-77.91,15.08,48.84391,2.353356,94.3,NaN,,11.892,,0 / 30,,1646,2022-01-11 15:48:31:434
-1.1154,9.8605,1.6753,-0.7055,9.5913,1.9184,0.0232,-0.0546,-0.1035,0.1184,-0.0682,-0.3077,24.68,-29.25,-13.95,303.38,-77.91,15.08,48.84391,2.353356,94.3,NaN,,11.892,,0 / 30,,1650,2022-01-11 15:48:31:438
-1.1154,9.8605,1.6753,-0.7055,9.5913,1.9184,0.0232,-0.0546,-0.1035,0.1184,-0.0682,-0.3077,24.68,-29.25,-13.95,303.38,-77.91,15.08,48.84391,2.353356,94.3,NaN,,11.892,,0 / 30,,1655,2022-01-11 15:48:31:443
-1.1154,9.8605,1.6753,-0.7055,9.5913,1.9184,0.0232,-0.0546,-0.1035,0.1184,-0.0682,-0.3077,24.68,-29.25,-13.95,303.38,-77.91,15.08,48.84391,2.353356,94.3,NaN,,11.892,,0 / 30,,1660,2022-01-11 15:48:31:448
-1.1154,9.8605,1.6753,-0.7055,9.5913,1.9184,0.0232,-0.0546,-0.1035,0.1184,-0.0682,-0.3077,24.68,-29.25,-13.95,303.38,-77.91,15.08,48.84391,2.353356,94.3,NaN,,11.892,,0 / 30,,1665,2022-01-11 15:48:31:453
-1.1154,9.8605,1.6753,-0.7055,9.5913,1.9184,0.0232,-0.0546,-0.1035,0.1184,-0.0682,-0.3077,25.35,-29.25,-13.42,307.05,-77.97,20.19,48.84391,2.353356,94.3,NaN,,11.892,,0 / 30,,1678,2022-01-11 15:48:31:466
-1.1154,9.8605,1.6753,-0.7055,9.5913,1.9184,0.0232,-0.0546,-0.1035,0.1184,-0.0682,-0.3077,25.35,-29.25,-13.42,307.05,-77.97,20.19,48.84391,2.353356,94.3,NaN,,11.892,,0 / 30,,1679,2022-01-11 15:48:31:467
-1.1154,9.8605,1.6753,-0.7055,9.5913,1.9184,0.0232,-0.0546,-0.1035,0.1184,-0.0682,-0.3077,25.35,-29.25,-13.42,307.05,-77.97,20.19,48.84391,2.353356,94.3,NaN,,11.892,,0 / 30,,1681,2022-01-11 15:48:31:469
-1.1154,9.8605,1.6753,-0.7055,9.5913,1.9184,0.0232,-0.0546,-0.1035,0.1184,-0.0682,-0.3077,25.35,-29.25,-13.42,307.05,-77.97,20.19,48.84391,2.353356,94.3,NaN,,11.892,,0 / 30,,1685,2022-01-11 15:48:31:473
-1.1154,9.8605,1.6753,-0.7055,9.5913,1.9184,0.0232,-0.0546,-0.1035,0.1184,-0.0682,-0.3077,25.35,-29.25,-13.42,307.05,-77.97,20.19,48.84391,2.353356,94.3,NaN,,11.892,,0 / 30,,1690,2022-01-11 15:48:31:478
-1.1154,9.8605,1.6753,-0.9287,9.5726,1.9166,0.2067,0.1923,-0.0694,-0.0345,0.3081,-0.2936,25.35,-29.25,-13.42,307.05,-77.97,20.19,48.84391,2.353356,94.3,NaN,,11.892,,0 / 30,,1696,2022-01-11 15:48:31:484
-1.1154,9.8605,1.6753,-0.9287,9.5726,1.9166,0.2067,0.1923,-0.0694,-0.0345,0.3081,-0.2936,25.35,-29.25,-13.42,307.05,-77.97,20.19,48.84391,2.353356,94.3,NaN,,11.892,,0 / 30,,1701,2022-01-11 15:48:31:489
-1.1154,9.8605,1.6753,-0.9287,9.5726,1.9166,0.2067,0.1923,-0.0694,-0.0345,0.3081,-0.2936,25.35,-29.25,-13.42,307.05,-77.97,20.19,48.84391,2.353356,94.3,NaN,,11.892,,0 / 30,,1706,2022-01-11 15:48:31:494
-1.1154,9.8605,1.6753,-0.9287,9.5726,1.9166,0.2067,0.1923,-0.0694,-0.0345,0.3081,-0.2936,25.35,-29.25,-13.42,307.05,-77.97,20.19,48.84391,2.353356,94.3,NaN,,11.892,,0 / 30,,1711,2022-01-11 15:48:31:499
-1.1719,9.2462,1.4728,-0.9287,9.5726,1.9166,0.2067,0.1923,-0.0694,-0.0345,0.3081,-0.2936,25.35,-29.25,-13.42,307.05,-77.97,20.19,48.84391,2.353356,94.3,NaN,,11.892,,0 / 30,,1716,2022-01-11 15:48:31:504
-1.1719,9.2462,1.4728,-0.9287,9.5726,1.9166,0.2067,0.1923,-0.0694,-0.0345,0.3081,-0.2936,25.35,-29.25,-13.42,307.05,-77.97,20.19,48.84391,2.353356,94.3,NaN,,11.892,,0 / 30,,1721,2022-01-11 15:48:31:509
-1.1719,9.2462,1.4728,-0.9287,9.5726,1.9166,0.2067,0.1923,-0.0694,-0.0345,0.3081,-0.2936,25.35,-29.25,-13.42,307.05,-77.97,20.19,48.84391,2.353356,94.3,NaN,,11.892,,0 / 30,,1726,2022-01-11 15:48:31:514
-1.1719,9.2462,1.4728,-0.9287,9.5726,1.9166,0.2067,0.1923,-0.0694,-0.0345,0.3081,-0.2936,25.35,-29.25,-13.42,307.05,-77.97,20.19,48.84391,2.353356,94.3,NaN,,11.892,,0 / 30,,1731,2022-01-11 15:48:31:519
-1.1719,9.2462,1.4728,-0.9287,9.5726,1.9166,0.2067,0.1923,-0.0694,-0.0345,0.3081,-0.2936,25.35,-29.25,-13.42,307.05,-77.97,20.19,48.84391,2.353356,94.3,NaN,,11.892,,0 / 30,,1736,2022-01-11 15:48:31:524
-1.1719,9.2462,1.4728,-0.9287,9.5726,1.9166,0.2067,0.1923,-0.0694,-0.0345,0.3081,-0.2936,25.35,-29.25,-13.42,307.05,-77.97,20.19,48.84391,2.353356,94.3,NaN,,11.892,,0 / 30,,1744,2022-01-11 15:48:31:532
-1.1719,9.2462,1.4728,-0.9287,9.5726,1.9166,0.2067,0.1923,-0.0694,-0.0345,0.3081,-0.2936,25.35,-29.25,-13.42,307.05,-77.97,20.19,48.84391,2.353356,94.3,NaN,,11.892,,0 / 30,,1746,2022-01-11 15:48:31:534
-1.1719,9.2462,1.4728,-0.9287,9.5726,1.9166,0.2067,0.1923,-0.0694,-0.0345,0.3081,-0.2936,25.35,-29.25,-13.42,307.05,-77.97,20.19,48.84391,2.353356,94.3,NaN,,11.892,,0 / 30,,1751,2022-01-11 15:48:31:539
-1.1719,9.2462,1.4728,-0.9287,9.5726,1.9166,0.2067,0.1923,-0.0694,-0.0345,0.3081,-0.2936,25.35,-29.25,-13.42,307.05,-77.97,20.19,48.84391,2.353356,94.3,NaN,,11.892,,0 / 30,,1756,2022-01-11 15:48:31:544
-1.1719,9.2462,1.4728,-0.9287,9.5726,1.9166,0.2067,0.1923,-0.0694,-0.0345,0.3081,-0.2936,25.35,-29.25,-13.42,307.05,-77.97,20.19,48.84391,2.353356,94.3,NaN,,11.892,,0 / 30,,1760,2022-01-11 15:48:31:548
-1.1719,9.2462,1.4728,-0.9287,9.5726,1.9166,0.2067,0.1923,-0.0694,-0.0345,0.3081,-0.2936,25.35,-29.25,-13.42,307.05,-77.97,20.19,48.84391,2.353356,94.3,NaN,,11.892,,0 / 30,,1766,2022-01-11 15:48:31:554
-1.1838,8.9707,1.7124,-0.9287,9.5726,1.9166,0.2067,0.1923,-0.0694,-0.0345,0.3081,-0.2936,26.03,-29.17,-13.5,314.62,-77.46,25.85,48.84391,2.353356,94.3,NaN,,11.892,,0 / 30,,1771,2022-01-11 15:48:31:559
-1.1838,8.9707,1.7124,-0.9287,9.5726,1.9166,0.2067,0.1923,-0.0694,-0.0345,0.3081,-0.2936,26.03,-29.17,-13.5,314.62,-77.46,25.85,48.84391,2.353356,94.3,NaN,,11.892,,0 / 30,,1776,2022-01-11 15:48:31:564
-1.1838,8.9707,1.7124,-0.9287,9.5726,1.9166,0.2067,0.1923,-0.0694,-0.0345,0.3081,-0.2936,26.03,-29.17,-13.5,314.62,-77.46,25.85,48.84391,2.353356,94.3,NaN,,11.892,,0 / 30,,1781,2022-01-11 15:48:31:569
-1.1838,8.9707,1.7124,-0.9287,9.5726,1.9166,0.2067,0.1923,-0.0694,-0.0345,0.3081,-0.2936,26.03,-29.17,-13.5,314.62,-77.46,25.85,48.84391,2.353356,94.3,NaN,,11.892,,0 / 30,,1786,2022-01-11 15:48:31:574
-1.1838,8.9707,1.7124,-0.9287,9.5726,1.9166,0.2067,0.1923,-0.0694,-0.0345,0.3081,-0.2936,26.03,-29.17,-13.5,314.62,-77.46,25.85,48.84391,2.353356,94.3,NaN,,11.892,,0 / 30,,1791,2022-01-11 15:48:31:579
-1.1838,8.9707,1.7124,-0.9287,9.5726,1.9166,0.2067,0.1923,-0.0694,-0.0345,0.3081,-0.2936,26.03,-29.17,-13.5,314.62,-77.46,25.85,48.84391,2.353356,94.3,NaN,,11.892,,0 / 30,,1796,2022-01-11 15:48:31:584
-1.1838,8.9707,1.7124,-1.148,9.5212,2.0493,-0.073,-0.2925,-0.5726,-0.0345,0.3081,-0.2936,26.03,-29.17,-13.5,314.62,-77.46,25.85,48.84391,2.353356,94.3,NaN,,11.892,,0 / 30,,1801,2022-01-11 15:48:31:589
-1.1838,8.9707,1.7124,-1.148,9.5212,2.0493,-0.073,-0.2925,-0.5726,-0.0345,0.3081,-0.2936,26.03,-29.17,-13.5,314.62,-77.46,25.85,48.84391,2.353356,94.3,NaN,,11.892,,0 / 30,,1805,2022-01-11 15:48:31:593
-1.1838,8.9707,1.7124,-1.148,9.5212,2.0493,-0.073,-0.2925,-0.5726,-0.0345,0.3081,-0.2936,26.03,-29.17,-13.5,314.62,-77.46,25.85,48.84391,2.353356,94.3,NaN,,11.892,,0 / 30,,1811,2022-01-11 15:48:31:599
-1.1838,8.9707,1.7124,-1.148,9.5212,2.0493,-0.073,-0.2925,-0.5726,-0.2598,0.2118,-0.0479,26.03,-29.17,-13.5,314.62,-77.46,25.85,48.84391,2.353356,94.3,NaN,,11.892,,0 / 30,,1816,2022-01-11 15:48:31:604
-1.1838,8.9707,1.7124,-1.148,9.5212,2.0493,-0.073,-0.2925,-0.5726,-0.2598,0.2118,-0.0479,26.03,-29.17,-13.5,314.62,-77.46,25.85,48.84391,2.353356,94.3,NaN,,11.892,,0 / 30,,1820,2022-01-11 15:48:31:608
-1.1838,8.9707,1.7124,-1.148,9.5212,2.0493,-0.073,-0.2925,-0.5726,-0.2598,0.2118,-0.0479,26.03,-29.17,-13.5,314.62,-77.46,25.85,48.84391,2.353356,94.3,NaN,,11.892,,0 / 30,,1825,2022-01-11 15:48:31:613
-1.1838,8.9707,1.7124,-1.148,9.5212,2.0493,-0.073,-0.2925,-0.5726,-0.2598,0.2118,-0.0479,26.03,-29.17,-13.5,314.62,-77.46,25.85,48.84391,2.353356,94.3,NaN,,11.892,,0 / 30,,1830,2022-01-11 15:48:31:618
-1.1838,8.9707,1.7124,-1.148,9.5212,2.0493,-0.073,-0.2925,-0.5726,-0.2598,0.2118,-0.0479,26.03,-29.17,-13.5,314.62,-77.46,25.85,48.84391,2.353356,94.3,NaN,,11.892,,0 / 30,,1836,2022-01-11 15:48:31:624
-1.1838,8.9707,1.7124,-1.148,9.5212,2.0493,-0.073,-0.2925,-0.5726,-0.2598,0.2118,-0.0479,26.03,-29.17,-13.5,314.62,-77.46,25.85,48.84391,2.353356,94.3,NaN,,11.892,,0 / 30,,1840,2022-01-11 15:48:31:628
-1.1838,8.9707,1.7124,-1.148,9.5212,2.0493,-0.073,-0.2925,-0.5726,-0.2598,0.2118,-0.0479,26.03,-29.17,-13.5,314.62,-77.46,25.85,48.84391,2.353356,94.3,NaN,,11.892,,0 / 30,,1845,2022-01-11 15:48:31:633
-1.185,9.725,2.1138,-1.148,9.5212,2.0493,-0.073,-0.2925,-0.5726,-0.2598,0.2118,-0.0479,26.03,-29.17,-13.5,314.62,-77.46,25.85,48.84391,2.353356,94.3,NaN,,11.892,,0 / 30,,1851,2022-01-11 15:48:31:639
-1.185,9.725,2.1138,-1.148,9.5212,2.0493,-0.073,-0.2925,-0.5726,-0.2598,0.2118,-0.0479,26.03,-29.17,-13.5,314.62,-77.46,25.85,48.84391,2.353356,94.3,NaN,,11.892,,0 / 30,,1856,2022-01-11 15:48:31:644
-1.185,9.725,2.1138,-1.148,9.5212,2.0493,-0.073,-0.2925,-0.5726,-0.2598,0.2118,-0.0479,26.03,-29.17,-13.5,314.62,-77.46,25.85,48.84391,2.353356,94.3,NaN,,11.892,,0 / 30,,1860,2022-01-11 15:48:31:648
-1.185,9.725,2.1138,-1.148,9.5212,2.0493,-0.073,-0.2925,-0.5726,-0.2598,0.2118,-0.0479,26.03,-29.17,-13.5,314.62,-77.46,25.85,48.84391,2.353356,94.3,NaN,,11.892,,0 / 30,,1865,2022-01-11 15:48:31:653
-1.185,9.725,2.1138,-1.095,9.5041,2.1548,-0.1532,-0.3332,-0.4085,-0.2598,0.2118,-0.0479,27.23,-28.8,-13.8,313.46,-75.73,26.94,48.84391,2.353356,94.3,NaN,,11.892,,0 / 30,,1870,2022-01-11 15:48:31:658
-1.185,9.725,2.1138,-1.095,9.5041,2.1548,-0.1532,-0.3332,-0.4085,-0.2598,0.2118,-0.0479,27.23,-28.8,-13.8,313.46,-75.73,26.94,48.84391,2.353356,94.3,NaN,,11.892,,0 / 30,,1875,2022-01-11 15:48:31:663
-1.185,9.725,2.1138,-1.095,9.5041,2.1548,-0.1532,-0.3332,-0.4085,-0.2598,0.2118,-0.0479,27.23,-28.8,-13.8,313.46,-75.73,26.94,48.84391,2.353356,94.3,NaN,,11.892,,0 / 30,,1886,2022-01-11 15:48:31:674
-1.185,9.725,2.1138,-1.095,9.5041,2.1548,-0.1532,-0.3332,-0.4085,-0.2598,0.2118,-0.0479,27.23,-28.8,-13.8,313.46,-75.73,26.94,48.84391,2.353356,94.3,NaN,,11.892,,0 / 30,,1887,2022-01-11 15:48:31:675
-1.185,9.725,2.1138,-1.095,9.5041,2.1548,-0.1532,-0.3332,-0.4085,-0.2598,0.2118,-0.0479,27.23,-28.8,-13.8,313.46,-75.73,26.94,48.84391,2.353356,94.3,NaN,,11.892,,0 / 30,,1891,2022-01-11 15:48:31:679
-1.185,9.725,2.1138,-1.095,9.5041,2.1548,-0.1532,-0.3332,-0.4085,-0.2598,0.2118,-0.0479,27.23,-28.8,-13.8,313.46,-75.73,26.94,48.84391,2.353356,94.3,NaN,,11.892,,0 / 30,,1895,2022-01-11 15:48:31:683
-1.185,9.725,2.1138,-1.095,9.5041,2.1548,-0.1532,-0.3332,-0.4085,-0.1867,0.0543,0.1687,27.23,-28.8,-13.8,313.46,-75.73,26.94,48.84391,2.353356,94.3,NaN,,11.892,,0 / 30,,1900,2022-01-11 15:48:31:688
-1.185,9.725,2.1138,-1.095,9.5041,2.1548,-0.1532,-0.3332,-0.4085,-0.1867,0.0543,0.1687,27.23,-28.8,-13.8,313.46,-75.73,26.94,48.84391,2.353356,94.3,NaN,,11.892,,0 / 30,,1908,2022-01-11 15:48:31:696
-1.185,9.725,2.1138,-1.095,9.5041,2.1548,-0.1532,-0.3332,-0.4085,-0.1867,0.0543,0.1687,27.23,-28.8,-13.8,313.46,-75.73,26.94,48.84391,2.353356,94.3,NaN,,11.892,,0 / 30,,1911,2022-01-11 15:48:31:699
-1.4294,10.6223,2.3785,-1.095,9.5041,2.1548,-0.1532,-0.3332,-0.4085,-0.1867,0.0543,0.1687,27.23,-28.8,-13.8,313.46,-75.73,26.94,48.84391,2.353356,94.3,NaN,,11.892,,0 / 30,,1915,2022-01-11 15:48:31:703
-1.4294,10.6223,2.3785,-1.095,9.5041,2.1548,-0.1532,-0.3332,-0.4085,-0.1867,0.0543,0.1687,27.23,-28.8,-13.8,313.46,-75.73,26.94,48.84391,2.353356,94.3,NaN,,11.892,,0 / 30,,1921,2022-01-11 15:48:31:709
-1.4294,10.6223,2.3785,-1.095,9.5041,2.1548,-0.1532,-0.3332,-0.4085,-0.1867,0.0543,0.1687,27.23,-28.8,-13.8,313.46,-75.73,26.94,48.84391,2.353356,94.3,NaN,,11.892,,0 / 30,,1925,2022-01-11 15:48:31:713
-1.4294,10.6223,2.3785,-1.095,9.5041,2.1548,-0.1532,-0.3332,-0.4085,-0.1867,0.0543,0.1687,27.23,-28.8,-13.8,313.46,-75.73,26.94,48.84391,2.353356,94.3,NaN,,11.892,,0 / 30,,1930,2022-01-11 15:48:31:718
-1.4294,10.6223,2.3785,-1.095,9.5041,2.1548,-0.1532,-0.3332,-0.4085,-0.1867,0.0543,0.1687,27.23,-28.8,-13.8,313.46,-75.73,26.94,48.84391,2.353356,94.3,NaN,,11.892,,0 / 30,,1936,2022-01-11 15:48:31:724
-1.4294,10.6223,2.3785,-1.095,9.5041,2.1548,-0.1532,-0.3332,-0.4085,-0.1867,0.0543,0.1687,27.23,-28.8,-13.8,313.46,-75.73,26.94,48.84391,2.353356,94.3,NaN,,11.892,,0 / 30,,1940,2022-01-11 15:48:31:728
-1.4294,10.6223,2.3785,-1.095,9.5041,2.1548,-0.1532,-0.3332,-0.4085,-0.1867,0.0543,0.1687,27.23,-28.8,-13.8,313.46,-75.73,26.94,48.84391,2.353356,94.3,NaN,,11.892,,0 / 30,,1945,2022-01-11 15:48:31:733
-1.4294,10.6223,2.3785,-1.095,9.5041,2.1548,-0.1532,-0.3332,-0.4085,-0.1867,0.0543,0.1687,27.23,-28.8,-13.8,313.46,-75.73,26.94,48.84391,2.353356,94.3,NaN,,11.892,,0 / 30,,1951,2022-01-11 15:48:31:739
-1.4294,10.6223,2.3785,-1.095,9.5041,2.1548,-0.1532,-0.3332,-0.4085,-0.1867,0.0543,0.1687,27.23,-28.8,-13.8,313.46,-75.73,26.94,48.84391,2.353356,94.3,NaN,,11.892,,0 / 30,,1955,2022-01-11 15:48:31:743
-1.4294,10.6223,2.3785,-1.095,9.5041,2.1548,-0.1532,-0.3332,-0.4085,-0.1867,0.0543,0.1687,27.23,-28.8,-13.8,313.46,-75.73,26.94,48.84391,2.353356,94.3,NaN,,11.892,,0 / 30,,1960,2022-01-11 15:48:31:748
-1.4294,10.6223,2.3785,-1.095,9.5041,2.1548,-0.1532,-0.3332,-0.4085,-0.1867,0.0543,0.1687,27.23,-28.8,-13.8,313.46,-75.73,26.94,48.84391,2.353356,94.3,NaN,,11.892,,0 / 30,,1966,2022-01-11 15:48:31:754
-1.4294,10.6223,2.3785,-1.095,9.5041,2.1548,-0.1532,-0.3332,-0.4085,-0.1867,0.0543,0.1687,27.68,-28.8,-14.1,312.8,-75.73,26.94,48.84391,2.353356,94.3,NaN,,11.892,,0 / 30,,1971,2022-01-11 15:48:31:759
-1.4294,10.6223,2.3785,-1.095,9.5041,2.1548,-0.1532,-0.3332,-0.4085,-0.1867,0.0543,0.1687,27.68,-28.8,-14.1,312.8,-75.73,26.94,48.84391,2.353356,94.3,NaN,,11.892,,0 / 30,,1976,2022-01-11 15:48:31:764
-0.32,13.9591,2.4156,-0.6257,9.5421,2.1741,-0.5692,1.0477,0.1425,-0.1867,0.0543,0.1687,27.68,-28.8,-14.1,312.8,-75.73,26.94,48.84391,2.353356,94.3,NaN,,11.892,,0 / 30,,1980,2022-01-11 15:48:31:768
-0.32,13.9591,2.4156,-0.6257,9.5421,2.1741,-0.5692,1.0477,0.1425,-0.1867,0.0543,0.1687,27.68,-28.8,-14.1,312.8,-75.73,26.94,48.84391,2.353356,94.3,NaN,,11.892,,0 / 30,,1986,2022-01-11 15:48:31:774
-0.32,13.9591,2.4156,-0.6257,9.5421,2.1741,-0.5692,1.0477,0.1425,-0.1867,0.0543,0.1687,27.68,-28.8,-14.1,312.8,-75.73,26.94,48.84391,2.353356,94.3,NaN,,11.892,,0 / 30,,1990,2022-01-11 15:48:31:778
-0.32,13.9591,2.4156,-0.6257,9.5421,2.1741,-0.5692,1.0477,0.1425,-0.1867,0.0543,0.1687,27.68,-28.8,-14.1,312.8,-75.73,26.94,48.84391,2.353356,94.3,NaN,,11.892,,0 / 30,,1995,2022-01-11 15:48:31:783
-0.32,13.9591,2.4156,-0.6257,9.5421,2.1741,-0.5692,1.0477,0.1425,-0.1867,0.0543,0.1687,27.68,-28.8,-14.1,312.8,-75.73,26.94,48.84391,2.353356,94.3,NaN,,11.892,,0 / 30,,2000,2022-01-11 15:48:31:788
-0.32,13.9591,2.4156,-0.6257,9.5421,2.1741,-0.5692,1.0477,0.1425,-0.1867,0.0543,0.1687,27.68,-28.8,-14.1,312.8,-75.73,26.94,48.84391,2.353356,94.3,NaN,,11.892,,0 / 30,,2005,2022-01-11 15:48:31:793
-0.32,13.9591,2.4156,-0.6257,9.5421,2.1741,-0.5692,1.0477,0.1425,-0.1867,0.0543,0.1687,27.68,-28.8,-14.1,312.8,-75.73,26.94,48.84391,2.353356,94.3,NaN,,11.892,,0 / 30,,2016,2022-01-11 15:48:31:804
-0.32,13.9591,2.4156,-0.6257,9.5421,2.1741,-0.5692,1.0477,0.1425,-0.1867,0.0543,0.1687,27.68,-28.8,-14.1,312.8,-75.73,26.94,48.84391,2.353356,94.3,NaN,,11.892,,0 / 30,,2018,2022-01-11 15:48:31:806
-0.32,13.9591,2.4156,-0.6257,9.5421,2.1741,-0.5692,1.0477,0.1425,-0.1867,0.0543,0.1687,27.68,-28.8,-14.1,312.8,-75.73,26.94,48.84391,2.353356,94.3,NaN,,11.892,,0 / 30,,2021,2022-01-11 15:48:31:809
-0.32,13.9591,2.4156,-0.6257,9.5421,2.1741,-0.5692,1.0477,0.1425,-0.1867,0.0543,0.1687,27.68,-28.8,-14.1,312.8,-75.73,26.94,48.84391,2.353356,94.3,NaN,,11.892,,0 / 30,,2025,2022-01-11 15:48:31:813
-0.32,13.9591,2.4156,-0.6257,9.5421,2.1741,-0.5692,1.0477,0.1425,-0.1867,0.0543,0.1687,27.68,-28.8,-14.1,312.8,-75.73,26.94,48.84391,2.353356,94.3,NaN,,11.892,,0 / 30,,2031,2022-01-11 15:48:31:819
-0.32,13.9591,2.4156,-0.6257,9.5421,2.1741,-0.5692,1.0477,0.1425,0.1467,0.2632,1.1511,27.68,-28.8,-14.1,312.8,-75.73,26.94,48.84391,2.353356,94.3,NaN,,11.892,,0 / 30,,2035,2022-01-11 15:48:31:823
-0.32,13.9591,2.4156,-0.6257,9.5421,2.1741,-0.5692,1.0477,0.1425,0.1467,0.2632,1.1511,27.68,-28.8,-14.1,312.8,-75.73,26.94,48.84391,2.353356,94.3,NaN,,11.892,,0 / 30,,2040,2022-01-11 15:48:31:828
-0.32,13.9591,2.4156,-0.6257,9.5421,2.1741,-0.5692,1.0477,0.1425,0.1467,0.2632,1.1511,27.68,-28.8,-14.1,312.8,-75.73,26.94,48.84391,2.353356,94.3,NaN,,11.892,,0 / 30,,2045,2022-01-11 15:48:31:833
-0.119,15.8719,3.5174,0.2333,9.585,2.0601,-0.8391,3.0415,0.2334,0.1467,0.2632,1.1511,27.68,-28.8,-14.1,312.8,-75.73,26.94,48.84391,2.353356,94.3,NaN,,11.892,,0 / 30,,2051,2022-01-11 15:48:31:839
-0.119,15.8719,3.5174,0.2333,9.585,2.0601,-0.8391,3.0415,0.2334,0.1467,0.2632,1.1511,27.68,-28.8,-14.1,312.8,-75.73,26.94,48.84391,2.353356,94.3,NaN,,11.892,,0 / 30,,2055,2022-01-11 15:48:31:843
-0.119,15.8719,3.5174,0.2333,9.585,2.0601,-0.8391,3.0415,0.2334,0.1467,0.2632,1.1511,27.68,-28.8,-14.1,312.8,-75.73,26.94,48.84391,2.353356,94.3,NaN,,11.892,,0 / 30,,2060,2022-01-11 15:48:31:848
-0.119,15.8719,3.5174,0.2333,9.585,2.0601,-0.8391,3.0415,0.2334,0.1467,0.2632,1.1511,27.68,-28.8,-14.1,312.8,-75.73,26.94,48.84391,2.353356,94.3,NaN,,11.892,,0 / 30,,2066,2022-01-11 15:48:31:854
-0.119,15.8719,3.5174,0.2333,9.585,2.0601,-0.8391,3.0415,0.2334,0.1467,0.2632,1.1511,26.93,-28.72,-14.02,279.0,-77.79,-6.46,48.84391,2.353356,94.3,NaN,,11.892,,0 / 30,,2071,2022-01-11 15:48:31:859
-0.119,15.8719,3.5174,0.2333,9.585,2.0601,-0.8391,3.0415,0.2334,0.1467,0.2632,1.1511,26.93,-28.72,-14.02,279.0,-77.79,-6.46,48.84391,2.353356,94.3,NaN,,11.892,,0 / 30,,2075,2022-01-11 15:48:31:863
-0.119,15.8719,3.5174,0.2333,9.585,2.0601,-0.8391,3.0415,0.2334,0.1467,0.2632,1.1511,26.93,-28.72,-14.02,279.0,-77.79,-6.46,48.84391,2.353356,94.3,NaN,,11.892,,0 / 30,,2080,2022-01-11 15:48:31:868
-0.119,15.8719,3.5174,0.2333,9.585,2.0601,-0.8391,3.0415,0.2334,0.1467,0.2632,1.1511,26.93,-28.72,-14.02,279.0,-77.79,-6.46,48.84391,2.353356,94.3,NaN,,11.892,,0 / 30,,2086,2022-01-11 15:48:31:874
-0.119,15.8719,3.5174,0.2333,9.585,2.0601,-0.8391,3.0415,0.2334,0.1467,0.2632,1.1511,26.93,-28.72,-14.02,279.0,-77.79,-6.46,48.84391,2.353356,94.3,NaN,,11.892,,0 / 30,,2090,2022-01-11 15:48:31:878
-0.119,15.8719,3.5174,0.2333,9.585,2.0601,-0.8391,3.0415,0.2334,0.1467,0.2632,1.1511,26.93,-28.72,-14.02,279.0,-77.79,-6.46,48.84391,2.353356,94.3,NaN,,11.892,,0 / 30,,2096,2022-01-11 15:48:31:884
-0.119,15.8719,3.5174,0.2333,9.585,2.0601,-0.8391,3.0415,0.2334,0.1467,0.2632,1.1511,26.93,-28.72,-14.02,279.0,-77.79,-6.46,48.84391,2.353356,94.3,NaN,,11.892,,0 / 30,,2100,2022-01-11 15:48:31:888
-0.119,15.8719,3.5174,0.2333,9.585,2.0601,-0.8391,3.0415,0.2334,0.1467,0.2632,1.1511,26.93,-28.72,-14.02,279.0,-77.79,-6.46,48.84391,2.353356,94.3,NaN,,11.892,,0 / 30,,2106,2022-01-11 15:48:31:894
-0.119,15.8719,3.5174,0.2333,9.585,2.0601,-0.8391,3.0415,0.2334,0.1467,0.2632,1.1511,26.93,-28.72,-14.02,279.0,-77.79,-6.46,48.84391,2.353356,94.3,NaN,,11.892,,0 / 30,,2110,2022-01-11 15:48:31:898
2.3976,20.7215,5.3354,2.1949,9.3699,1.8863,-2.1559,6.3814,1.5682,0.1467,0.2632,1.1511,26.93,-28.72,-14.02,279.0,-77.79,-6.46,48.84391,2.353356,94.3,NaN,,11.892,,0 / 30,,2115,2022-01-11 15:48:31:903
2.3976,20.7215,5.3354,2.1949,9.3699,1.8863,-2.1559,6.3814,1.5682,0.1467,0.2632,1.1511,26.93,-28.72,-14.02,279.0,-77.79,-6.46,48.84391,2.353356,94.3,NaN,,11.892,,0 / 30,,2120,2022-01-11 15:48:31:908
2.3976,20.7215,5.3354,2.1949,9.3699,1.8863,-2.1559,6.3814,1.5682,0.1467,0.2632,1.1511,26.93,-28.72,-14.02,279.0,-77.79,-6.46,48.84391,2.353356,94.3,NaN,,11.892,,0 / 30,,2126,2022-01-11 15:48:31:914
2.3976,20.7215,5.3354,2.1949,9.3699,1.8863,-2.1559,6.3814,1.5682,0.1467,0.2632,1.1511,26.93,-28.72,-14.02,279.0,-77.79,-6.46,48.84391,2.353356,94.3,NaN,,11.892,,0 / 30,,2130,2022-01-11 15:48:31:918
2.3976,20.7215,5.3354,2.1949,9.3699,1.8863,-2.1559,6.3814,1.5682,0.1467,0.2632,1.1511,26.93,-28.72,-14.02,279.0,-77.79,-6.46,48.84391,2.353356,94.3,NaN,,11.892,,0 / 30,,2135,2022-01-11 15:48:31:923
2.3976,20.7215,5.3354,2.1949,9.3699,1.8863,-2.1559,6.3814,1.5682,0.1467,0.2632,1.1511,26.93,-28.72,-14.02,279.0,-77.79,-6.46,48.84391,2.353356,94.3,NaN,,11.892,,0 / 30,,2140,2022-01-11 15:48:31:928
2.3976,20.7215,5.3354,2.1949,9.3699,1.8863,-2.1559,6.3814,1.5682,0.1467,0.2632,1.1511,26.93,-28.72,-14.02,279.0,-77.79,-6.46,48.84391,2.353356,94.3,NaN,,11.892,,0 / 30,,2145,2022-01-11 15:48:31:933
2.3976,20.7215,5.3354,2.1949,9.3699,1.8863,-2.1559,6.3814,1.5682,0.1467,0.2632,1.1511,26.93,-28.72,-14.02,279.0,-77.79,-6.46,48.84391,2.353356,94.3,NaN,,11.892,,0 / 30,,2151,2022-01-11 15:48:31:939
2.3976,20.7215,5.3354,2.1949,9.3699,1.8863,-2.1559,6.3814,1.5682,0.1467,0.2632,1.1511,26.93,-28.72,-14.02,279.0,-77.79,-6.46,48.84391,2.353356,94.3,NaN,,11.892,,0 / 30,,2156,2022-01-11 15:48:31:944
2.3976,20.7215,5.3354,2.1949,9.3699,1.8863,-2.1559,6.3814,1.5682,0.543,-0.3558,7.6303,26.93,-28.72,-14.02,279.0,-77.79,-6.46,48.84391,2.353356,94.3,NaN,,11.892,,0 / 30,,2161,2022-01-11 15:48:31:949
2.3976,20.7215,5.3354,2.1949,9.3699,1.8863,-2.1559,6.3814,1.5682,0.543,-0.3558,7.6303,26.93,-28.72,-14.02,279.0,-77.79,-6.46,48.84391,2.353356,94.3,NaN,,11.892,,0 / 30,,2165,2022-01-11 15:48:31:953
2.3976,20.7215,5.3354,2.1949,9.3699,1.8863,-2.1559,6.3814,1.5682,0.543,-0.3558,7.6303,19.13,-31.57,-10.5,229.62,-72.84,-49.32,48.84391,2.353356,94.3,NaN,,11.892,,0 / 30,,2170,2022-01-11 15:48:31:958
-7.491,-7.774,4.6421,6.5004,7.1628,1.6157,-2.1559,6.3814,1.5682,0.543,-0.3558,7.6303,19.13,-31.57,-10.5,229.62,-72.84,-49.32,48.84391,2.353356,94.3,NaN,,11.892,,0 / 30,,2175,2022-01-11 15:48:31:963
-7.491,-7.774,4.6421,6.5004,7.1628,1.6157,-2.1559,6.3814,1.5682,0.543,-0.3558,7.6303,19.13,-31.57,-10.5,229.62,-72.84,-49.32,48.84391,2.353356,94.3,NaN,,11.892,,0 / 30,,2184,2022-01-11 15:48:31:972
-7.491,-7.774,4.6421,6.5004,7.1628,1.6157,-2.1559,6.3814,1.5682,0.543,-0.3558,7.6303,19.13,-31.57,-10.5,229.62,-72.84,-49.32,48.84391,2.353356,94.3,NaN,,11.892,,0 / 30,,2186,2022-01-11 15:48:31:974
-7.491,-7.774,4.6421,6.5004,7.1628,1.6157,-2.1559,6.3814,1.5682,0.543,-0.3558,7.6303,19.13,-31.57,-10.5,229.62,-72.84,-49.32,48.84391,2.353356,94.3,NaN,,11.892,,0 / 30,,2190,2022-01-11 15:48:31:978
-7.491,-7.774,4.6421,6.5004,7.1628,1.6157,-2.1559,6.3814,1.5682,0.543,-0.3558,7.6303,19.13,-31.57,-10.5,229.62,-72.84,-49.32,48.84391,2.353356,94.3,NaN,,11.892,,0 / 30,,2195,2022-01-11 15:48:31:983
-7.491,-7.774,4.6421,6.5004,7.1628,1.6157,-2.1559,6.3814,1.5682,0.543,-0.3558,7.6303,19.13,-31.57,-10.5,229.62,-72.84,-49.32,48.84391,2.353356,94.3,NaN,,11.892,,0 / 30,,2200,2022-01-11 15:48:31:988
-7.491,-7.774,4.6421,6.5004,7.1628,1.6157,-2.1559,6.3814,1.5682,0.543,-0.3558,7.6303,19.13,-31.57,-10.5,229.62,-72.84,-49.32,48.84391,2.353356,94.3,NaN,,11.892,,0 / 30,,2206,2022-01-11 15:48:31:994
-7.491,-7.774,4.6421,6.5004,7.1628,1.6157,-2.1559,6.3814,1.5682,0.543,-0.3558,7.6303,19.13,-31.57,-10.5,229.62,-72.84,-49.32,48.84391,2.353356,94.3,NaN,,11.892,,0 / 30,,2210,2022-01-11 15:48:31:998
-7.491,-7.774,4.6421,6.5004,7.1628,1.6157,-2.1559,6.3814,1.5682,0.543,-0.3558,7.6303,19.13,-31.57,-10.5,229.62,-72.84,-49.32,48.84391,2.353356,94.3,NaN,,11.892,,0 / 30,,2216,2022-01-11 15:48:32:004
-7.491,-7.774,4.6421,6.5004,7.1628,1.6157,-2.1559,6.3814,1.5682,0.543,-0.3558,7.6303,19.13,-31.57,-10.5,229.62,-72.84,-49.32,48.84391,2.353356,94.3,NaN,,11.892,,0 / 30,,2220,2022-01-11 15:48:32:008
-7.491,-7.774,4.6421,6.5004,7.1628,1.6157,-10.3013,9.2711,1.286,0.543,-0.3558,7.6303,19.13,-31.57,-10.5,229.62,-72.84,-49.32,48.84391,2.353356,94.3,NaN,,11.892,,0 / 30,,2226,2022-01-11 15:48:32:014
-7.491,-7.774,4.6421,6.5004,7.1628,1.6157,-10.3013,9.2711,1.286,0.543,-0.3558,7.6303,19.13,-31.57,-10.5,229.62,-72.84,-49.32,48.84391,2.353356,94.3,NaN,,11.892,,0 / 30,,2230,2022-01-11 15:48:32:018
-7.491,-7.774,4.6421,6.5004,7.1628,1.6157,-10.3013,9.2711,1.286,0.543,-0.3558,7.6303,19.13,-31.57,-10.5,229.62,-72.84,-49.32,48.84391,2.353356,94.3,NaN,,11.892,,0 / 30,,2235,2022-01-11 15:48:32:023
-7.491,-7.774,4.6421,6.5004,7.1628,1.6157,-10.3013,9.2711,1.286,0.543,-0.3558,7.6303,19.13,-31.57,-10.5,229.62,-72.84,-49.32,48.84391,2.353356,94.3,NaN,,11.892,,0 / 30,,2244,2022-01-11 15:48:32:032
-7.491,-7.774,4.6421,6.5004,7.1628,1.6157,-10.3013,9.2711,1.286,0.543,-0.3558,7.6303,19.13,-31.57,-10.5,229.62,-72.84,-49.32,48.84391,2.353356,94.3,NaN,,11.892,,0 / 30,,2246,2022-01-11 15:48:32:034
2.4921,-11.6474,-0.1753,6.5004,7.1628,1.6157,-10.3013,9.2711,1.286,0.543,-0.3558,7.6303,19.13,-31.57,-10.5,229.62,-72.84,-49.32,48.84391,2.353356,94.3,NaN,,11.892,,0 / 30,,2251,2022-01-11 15:48:32:039
2.4921,-11.6474,-0.1753,6.5004,7.1628,1.6157,-10.3013,9.2711,1.286,0.543,-0.3558,7.6303,19.13,-31.57,-10.5,229.62,-72.84,-49.32,48.84391,2.353356,94.3,NaN,,11.892,,0 / 30,,2256,2022-01-11 15:48:32:044
2.4921,-11.6474,-0.1753,6.5004,7.1628,1.6157,-10.3013,9.2711,1.286,0.543,-0.3558,7.6303,19.13,-31.57,-10.5,229.62,-72.84,-49.32,48.84391,2.353356,94.3,NaN,,11.892,,0 / 30,,2260,2022-01-11 15:48:32:048
2.4921,-11.6474,-0.1753,6.5004,7.1628,1.6157,-10.3013,9.2711,1.286,0.543,-0.3558,7.6303,19.13,-31.57,-10.5,229.62,-72.84,-49.32,48.84391,2.353356,94.3,NaN,,11.892,,0 / 30,,2265,2022-01-11 15:48:32:053
2.4921,-11.6474,-0.1753,6.5004,7.1628,1.6157,-10.3013,9.2711,1.286,0.543,-0.3558,7.6303,3.75,-23.85,-10.8,213.95,-46.92,-76.04,48.84391,2.353356,94.3,NaN,,11.892,,0 / 30,,2270,2022-01-11 15:48:32:058
2.4921,-11.6474,-0.1753,6.5004,7.1628,1.6157,-10.3013,9.2711,1.286,0.543,-0.3558,7.6303,3.75,-23.85,-10.8,213.95,-46.92,-76.04,48.84391,2.353356,94.3,NaN,,11.892,,0 / 30,,2275,2022-01-11 15:48:32:063
2.4921,-11.6474,-0.1753,6.5004,7.1628,1.6157,-10.3013,9.2711,1.286,0.543,-0.3558,7.6303,3.75,-23.85,-10.8,213.95,-46.92,-76.04,48.84391,2.353356,94.3,NaN,,11.892,,0 / 30,,2281,2022-01-11 15:48:32:069
2.4921,-11.6474,-0.1753,6.5004,7.1628,1.6157,-10.3013,9.2711,1.286,0.543,-0.3558,7.6303,3.75,-23.85,-10.8,213.95,-46.92,-76.04,48.84391,2.353356,94.3,NaN,,11.892,,0 / 30,,2286,2022-01-11 15:48:32:074
2.4921,-11.6474,-0.1753,6.5004,7.1628,1.6157,-10.3013,9.2711,1.286,0.543,-0.3558,7.6303,3.75,-23.85,-10.8,213.95,-46.92,-76.04,48.84391,2.353356,94.3,NaN,,11.892,,0 / 30,,2290,2022-01-11 15:48:32:078
2.4921,-11.6474,-0.1753,2.0615,-9.5611,0.712,-1.3379,-3.8213,1.2322,1.7852,-2.5833,18.6048,3.75,-23.85,-10.8,213.95,-46.92,-76.04,48.84391,2.353356,94.3,NaN,,11.892,,0 / 30,,2295,2022-01-11 15:48:32:083
2.4921,-11.6474,-0.1753,2.0615,-9.5611,0.712,-1.3379,-3.8213,1.2322,1.7852,-2.5833,18.6048,3.75,-23.85,-10.8,213.95,-46.92,-76.04,48.84391,2.353356,94.3,NaN,,11.892,,0 / 30,,2301,2022-01-11 15:48:32:089
2.4921,-11.6474,-0.1753,2.0615,-9.5611,0.712,-1.3379,-3.8213,1.2322,1.7852,-2.5833,18.6048,3.75,-23.85,-10.8,213.95,-46.92,-76.04,48.84391,2.353356,94.3,NaN,,11.892,,0 / 30,,2305,2022-01-11 15:48:32:093
2.4921,-11.6474,-0.1753,2.0615,-9.5611,0.712,-1.3379,-3.8213,1.2322,1.7852,-2.5833,18.6048,3.75,-23.85,-10.8,213.95,-46.92,-76.04,48.84391,2.353356,94.3,NaN,,11.892,,0 / 30,,2310,2022-01-11 15:48:32:098
2.4479,-11.7538,-0.1992,2.0615,-9.5611,0.712,-1.3379,-3.8213,1.2322,1.7852,-2.5833,18.6048,3.75,-23.85,-10.8,213.95,-46.92,-76.04,48.84391,2.353356,94.3,NaN,,11.892,,0 / 30,,2316,2022-01-11 15:48:32:104
2.4479,-11.7538,-0.1992,2.0615,-9.5611,0.712,-1.3379,-3.8213,1.2322,1.7852,-2.5833,18.6048,3.75,-23.85,-10.8,213.95,-46.92,-76.04,48.84391,2.353356,94.3,NaN,,11.892,,0 / 30,,2321,2022-01-11 15:48:32:109
2.4479,-11.7538,-0.1992,2.0615,-9.5611,0.712,-1.3379,-3.8213,1.2322,1.7852,-2.5833,18.6048,3.75,-23.85,-10.8,213.95,-46.92,-76.04,48.84391,2.353356,94.3,NaN,,11.892,,0 / 30,,2325,2022-01-11 15:48:32:113
2.4479,-11.7538,-0.1992,2.0615,-9.5611,0.712,-1.3379,-3.8213,1.2322,1.7852,-2.5833,18.6048,3.75,-23.85,-10.8,213.95,-46.92,-76.04,48.84391,2.353356,94.3,NaN,,11.892,,0 / 30,,2330,2022-01-11 15:48:32:118
2.4479,-11.7538,-0.1992,2.0615,-9.5611,0.712,-1.3379,-3.8213,1.2322,1.7852,-2.5833,18.6048,3.75,-23.85,-10.8,213.95,-46.92,-76.04,48.84391,2.353356,94.3,NaN,,11.892,,0 / 30,,2336,2022-01-11 15:48:32:124
2.4479,-11.7538,-0.1992,2.0615,-9.5611,0.712,-1.3379,-3.8213,1.2322,1.7852,-2.5833,18.6048,3.75,-23.85,-10.8,213.95,-46.92,-76.04,48.84391,2.353356,94.3,NaN,,11.892,,0 / 30,,2340,2022-01-11 15:48:32:128
2.4479,-11.7538,-0.1992,2.0615,-9.5611,0.712,-1.3379,-3.8213,1.2322,1.7852,-2.5833,18.6048,3.75,-23.85,-10.8,213.95,-46.92,-76.04,48.84391,2.353356,94.3,NaN,,11.892,,0 / 30,,2345,2022-01-11 15:48:32:133
2.4479,-11.7538,-0.1992,2.0615,-9.5611,0.712,-1.3379,-3.8213,1.2322,1.7852,-2.5833,18.6048,3.75,-23.85,-10.8,213.95,-46.92,-76.04,48.84391,2.353356,94.3,NaN,,11.892,,0 / 30,,2350,2022-01-11 15:48:32:138
2.4479,-11.7538,-0.1992,2.0615,-9.5611,0.712,-1.3379,-3.8213,1.2322,1.7852,-2.5833,18.6048,3.75,-23.85,-10.8,213.95,-46.92,-76.04,48.84391,2.353356,94.3,NaN,,11.892,,0 / 30,,2355,2022-01-11 15:48:32:143
2.4479,-11.7538,-0.1992,-7.5051,-5.9236,2.1805,9.7205,-5.9309,-2.3029,1.7852,-2.5833,18.6048,3.75,-23.85,-10.8,213.95,-46.92,-76.04,48.84391,2.353356,94.3,NaN,,11.892,,0 / 30,,2361,2022-01-11 15:48:32:149
2.4479,-11.7538,-0.1992,-7.5051,-5.9236,2.1805,9.7205,-5.9309,-2.3029,1.7852,-2.5833,18.6048,3.75,-23.85,-10.8,213.95,-46.92,-76.04,48.84391,2.353356,94.3,NaN,,11.892,,0 / 30,,2366,2022-01-11 15:48:32:154
2.4479,-11.7538,-0.1992,-7.5051,-5.9236,2.1805,9.7205,-5.9309,-2.3029,1.7852,-2.5833,18.6048,22.58,-25.42,-10.27,174.79,37.16,73.8,48.84391,2.353356,94.3,NaN,,11.892,,0 / 30,,2370,2022-01-11 15:48:32:158
2.4479,-11.7538,-0.1992,-7.5051,-5.9236,2.1805,9.7205,-5.9309,-2.3029,1.7852,-2.5833,18.6048,22.58,-25.42,-10.27,174.79,37.16,73.8,48.84391,2.353356,94.3,NaN,,11.892,,0 / 30,,2375,2022-01-11 15:48:32:163
2.4479,-11.7538,-0.1992,-7.5051,-5.9236,2.1805,9.7205,-5.9309,-2.3029,1.7852,-2.5833,18.6048,22.58,-25.42,-10.27,174.79,37.16,73.8,48.84391,2.353356,94.3,NaN,,11.892,,0 / 30,,2380,2022-01-11 15:48:32:168
2.595,-11.6797,-0.1657,-7.5051,-5.9236,2.1805,9.7205,-5.9309,-2.3029,1.7852,-2.5833,18.6048,22.58,-25.42,-10.27,174.79,37.16,73.8,48.84391,2.353356,94.3,NaN,,11.892,,0 / 30,,2386,2022-01-11 15:48:32:174
2.595,-11.6797,-0.1657,-7.5051,-5.9236,2.1805,9.7205,-5.9309,-2.3029,1.7852,-2.5833,18.6048,22.58,-25.42,-10.27,174.79,37.16,73.8,48.84391,2.353356,94.3,NaN,,11.892,,0 / 30,,2391,2022-01-11 15:48:32:179
2.595,-11.6797,-0.1657,-7.5051,-5.9236,2.1805,9.7205,-5.9309,-2.3029,1.7852,-2.5833,18.6048,22.58,-25.42,-10.27,174.79,37.16,73.8,48.84391,2.353356,94.3,NaN,,11.892,,0 / 30,,2395,2022-01-11 15:48:32:183
2.595,-11.6797,-0.1657,-7.5051,-5.9236,2.1805,9.7205,-5.9309,-2.3029,1.7852,-2.5833,18.6048,22.58,-25.42,-10.27,174.79,37.16,73.8,48.84391,2.353356,94.3,NaN,,11.892,,0 / 30,,2400,2022-01-11 15:48:32:188
2.595,-11.6797,-0.1657,-7.5051,-5.9236,2.1805,9.7205,-5.9309,-2.3029,1.7852,-2.5833,18.6048,22.58,-25.42,-10.27,174.79,37.16,73.8,48.84391,2.353356,94.3,NaN,,11.892,,0 / 30,,2409,2022-01-11 15:48:32:197
2.595,-11.6797,-0.1657,-7.5051,-5.9236,2.1805,9.7205,-5.9309,-2.3029,1.7852,-2.5833,18.6048,22.58,-25.42,-10.27,174.79,37.16,73.8,48.84391,2.353356,94.3,NaN,,11.892,,0 / 30,,2410,2022-01-11 15:48:32:198
2.595,-11.6797,-0.1657,-7.5051,-5.9236,2.1805,9.7205,-5.9309,-2.3029,1.7852,-2.5833,18.6048,22.58,-25.42,-10.27,174.79,37.16,73.8,48.84391,2.353356,94.3,NaN,,11.892,,0 / 30,,2416,2022-01-11 15:48:32:204
2.595,-11.6797,-0.1657,-7.5051,-5.9236,2.1805,9.7205,-5.9309,-2.3029,1.7852,-2.5833,18.6048,22.58,-25.42,-10.27,174.79,37.16,73.8,48.84391,2.353356,94.3,NaN,,11.892,,0 / 30,,2420,2022-01-11 15:48:32:208
2.595,-11.6797,-0.1657,-7.5051,-5.9236,2.1805,9.7205,-5.9309,-2.3029,0.4628,3.2616,18.6272,22.58,-25.42,-10.27,174.79,37.16,73.8,48.84391,2.353356,94.3,NaN,,11.892,,0 / 30,,2425,2022-01-11 15:48:32:213
2.595,-11.6797,-0.1657,-7.5051,-5.9236,2.1805,9.7205,-5.9309,-2.3029,0.4628,3.2616,18.6272,22.58,-25.42,-10.27,174.79,37.16,73.8,48.84391,2.353356,94.3,NaN,,11.892,,0 / 30,,2430,2022-01-11 15:48:32:218
2.595,-11.6797,-0.1657,-7.5051,-5.9236,2.1805,9.7205,-5.9309,-2.3029,0.4628,3.2616,18.6272,22.58,-25.42,-10.27,174.79,37.16,73.8,48.84391,2.353356,94.3,NaN,,11.892,,0 / 30,,2436,2022-01-11 15:48:32:224
2.595,-11.6797,-0.1657,-7.5051,-5.9236,2.1805,9.7205,-5.9309,-2.3029,0.4628,3.2616,18.6272,22.58,-25.42,-10.27,174.79,37.16,73.8,48.84391,2.353356,94.3,NaN,,11.892,,0 / 30,,2440,2022-01-11 15:48:32:228
2.595,-11.6797,-0.1657,-7.5051,-5.9236,2.1805,9.7205,-5.9309,-2.3029,0.4628,3.2616,18.6272,22.58,-25.42,-10.27,174.79,37.16,73.8,48.84391,2.353356,94.3,NaN,,11.892,,0 / 30,,2445,2022-01-11 15:48:32:233
2.3976,-11.5155,-0.1454,-7.5051,-5.9236,2.1805,9.7205,-5.9309,-2.3029,0.4628,3.2616,18.6272,22.58,-25.42,-10.27,174.79,37.16,73.8,48.84391,2.353356,94.3,NaN,,11.892,,0 / 30,,2450,2022-01-11 15:48:32:238
2.3976,-11.5155,-0.1454,-7.5051,-5.9236,2.1805,9.7205,-5.9309,-2.3029,0.4628,3.2616,18.6272,22.58,-25.42,-10.27,174.79,37.16,73.8,48.84391,2.353356,94.3,NaN,,11.892,,0 / 30,,2455,2022-01-11 15:48:32:243
2.3976,-11.5155,-0.1454,-7.5051,-5.9236,2.1805,9.7205,-5.9309,-2.3029,0.4628,3.2616,18.6272,22.58,-25.42,-10.27,174.79,37.16,73.8,48.84391,2.353356,94.3,NaN,,11.892,,0 / 30,,2461,2022-01-11 15:48:32:249
2.3976,-11.5155,-0.1454,0.0383,9.7498,1.0533,2.5199,-20.1864,-1.094,0.4628,3.2616,18.6272,22.58,-25.42,-10.27,174.79,37.16,73.8,48.84391,2.353356,94.3,NaN,,11.892,,0 / 30,,2465,2022-01-11 15:48:32:253
2.3976,-11.5155,-0.1454,0.0383,9.7498,1.0533,2.5199,-20.1864,-1.094,0.4628,3.2616,18.6272,-1.12,-27.38,-2.32,133.48,-83.83,-2.08,48.84391,2.353356,94.3,NaN,,11.892,,0 / 30,,2471,2022-01-11 15:48:32:259
2.3976,-11.5155,-0.1454,0.0383,9.7498,1.0533,2.5199,-20.1864,-1.094,0.4628,3.2616,18.6272,-1.12,-27.38,-2.32,133.48,-83.83,-2.08,48.84391,2.353356,94.3,NaN,,11.892,,0 / 30,,2475,2022-01-11 15:48:32:263
2.3976,-11.5155,-0.1454,0.0383,9.7498,1.0533,2.5199,-20.1864,-1.094,0.4628,3.2616,18.6272,-1.12,-27.38,-2.32,133.48,-83.83,-2.08,48.84391,2.353356,94.3,NaN,,11.892,,0 / 30,,2481,2022-01-11 15:48:32:269
2.3976,-11.5155,-0.1454,0.0383,9.7498,1.0533,2.5199,-20.1864,-1.094,0.4628,3.2616,18.6272,-1.12,-27.38,-2.32,133.48,-83.83,-2.08,48.84391,2.353356,94.3,NaN,,11.892,,0 / 30,,2485,2022-01-11 15:48:32:273
2.3976,-11.5155,-0.1454,0.0383,9.7498,1.0533,2.5199,-20.1864,-1.094,0.4628,3.2616,18.6272,-1.12,-27.38,-2.32,133.48,-83.83,-2.08,48.84391,2.353356,94.3,NaN,,11.892,,0 / 30,,2490,2022-01-11 15:48:32:278
2.3976,-11.5155,-0.1454,0.0383,9.7498,1.0533,2.5199,-20.1864,-1.094,0.4628,3.2616,18.6272,-1.12,-27.38,-2.32,133.48,-83.83,-2.08,48.84391,2.353356,94.3,NaN,,11.892,,0 / 30,,2495,2022-01-11 15:48:32:283
2.3976,-11.5155,-0.1454,0.0383,9.7498,1.0533,2.5199,-20.1864,-1.094,0.4628,3.2616,18.6272,-1.12,-27.38,-2.32,133.48,-83.83,-2.08,48.84391,2.353356,94.3,NaN,,11.892,,0 / 30,,2501,2022-01-11 15:48:32:289
2.3976,-11.5155,-0.1454,0.0383,9.7498,1.0533,2.5199,-20.1864,-1.094,0.4628,3.2616,18.6272,-1.12,-27.38,-2.32,133.48,-83.83,-2.08,48.84391,2.353356,94.3,NaN,,11.892,,0 / 30,,2506,2022-01-11 15:48:32:294
2.3976,-11.5155,-0.1454,0.0383,9.7498,1.0533,2.5199,-20.1864,-1.094,0.4628,3.2616,18.6272,-1.12,-27.38,-2.32,133.48,-83.83,-2.08,48.84391,2.353356,94.3,NaN,,11.892,,0 / 30,,2510,2022-01-11 15:48:32:298
2.3976,-11.5155,-0.1454,0.0383,9.7498,1.0533,2.5199,-20.1864,-1.094,0.4628,3.2616,18.6272,-1.12,-27.38,-2.32,133.48,-83.83,-2.08,48.84391,2.353356,94.3,NaN,,11.892,,0 / 30,,2515,2022-01-11 15:48:32:303
2.4275,-11.7885,-0.058,0.0383,9.7498,1.0533,2.5199,-20.1864,-1.094,0.4628,3.2616,18.6272,-1.12,-27.38,-2.32,133.48,-83.83,-2.08,48.84391,2.353356,94.3,NaN,,11.892,,0 / 30,,2521,2022-01-11 15:48:32:309
2.4275,-11.7885,-0.058,0.0383,9.7498,1.0533,2.5199,-20.1864,-1.094,0.4628,3.2616,18.6272,-1.12,-27.38,-2.32,133.48,-83.83,-2.08,48.84391,2.353356,94.3,NaN,,11.892,,0 / 30,,2525,2022-01-11 15:48:32:313
2.4275,-11.7885,-0.058,0.0383,9.7498,1.0533,2.5199,-20.1864,-1.094,0.4628,3.2616,18.6272,-1.12,-27.38,-2.32,133.48,-83.83,-2.08,48.84391,2.353356,94.3,NaN,,11.892,,0 / 30,,2531,2022-01-11 15:48:32:319
2.4275,-11.7885,-0.058,0.0383,9.7498,1.0533,2.5199,-20.1864,-1.094,0.4628,3.2616,18.6272,-1.12,-27.38,-2.32,133.48,-83.83,-2.08,48.84391,2.353356,94.3,NaN,,11.892,,0 / 30,,2535,2022-01-11 15:48:32:323
2.4275,-11.7885,-0.058,8.7968,3.7049,2.2494,-5.1391,-14.7491,-2.0317,0.4628,3.2616,18.6272,-1.12,-27.38,-2.32,133.48,-83.83,-2.08,48.84391,2.353356,94.3,NaN,,11.892,,0 / 30,,2541,2022-01-11 15:48:32:329
2.4275,-11.7885,-0.058,8.7968,3.7049,2.2494,-5.1391,-14.7491,-2.0317,0.4628,3.2616,18.6272,-1.12,-27.38,-2.32,133.48,-83.83,-2.08,48.84391,2.353356,94.3,NaN,,11.892,,0 / 30,,2546,2022-01-11 15:48:32:334
2.4275,-11.7885,-0.058,8.7968,3.7049,2.2494,-5.1391,-14.7491,-2.0317,0.4628,3.2616,18.6272,-1.12,-27.38,-2.32,133.48,-83.83,-2.08,48.84391,2.353356,94.3,NaN,,11.892,,0 / 30,,2551,2022-01-11 15:48:32:339
2.4275,-11.7885,-0.058,8.7968,3.7049,2.2494,-5.1391,-14.7491,-2.0317,0.4628,3.2616,18.6272,-1.12,-27.38,-2.32,133.48,-83.83,-2.08,48.84391,2.353356,94.3,NaN,,11.892,,0 / 30,,2555,2022-01-11 15:48:32:343
2.4275,-11.7885,-0.058,8.7968,3.7049,2.2494,-5.1391,-14.7491,-2.0317,-1.6948,0.3471,15.2564,-1.12,-27.38,-2.32,133.48,-83.83,-2.08,48.84391,2.353356,94.3,NaN,,11.892,,0 / 30,,2560,2022-01-11 15:48:32:348
2.4275,-11.7885,-0.058,8.7968,3.7049,2.2494,-5.1391,-14.7491,-2.0317,-1.6948,0.3471,15.2564,-1.12,-27.38,-2.32,133.48,-83.83,-2.08,48.84391,2.353356,94.3,NaN,,11.892,,0 / 30,,2565,2022-01-11 15:48:32:353
2.4275,-11.7885,-0.058,8.7968,3.7049,2.2494,-5.1391,-14.7491,-2.0317,-1.6948,0.3471,15.2564,-18.0,1.13,-12.08,320.32,-22.2,-75.66,48.84391,2.353356,94.3,NaN,,11.892,,0 / 30,,2571,2022-01-11 15:48:32:359
3.8815,14.619,-3.9135,8.7968,3.7049,2.2494,-5.1391,-14.7491,-2.0317,-1.6948,0.3471,15.2564,-18.0,1.13,-12.08,320.32,-22.2,-75.66,48.84391,2.353356,94.3,NaN,,11.892,,0 / 30,,2583,2022-01-11 15:48:32:371
3.8815,14.619,-3.9135,8.7968,3.7049,2.2494,-5.1391,-14.7491,-2.0317,-1.6948,0.3471,15.2564,-18.0,1.13,-12.08,320.32,-22.2,-75.66,48.84391,2.353356,94.3,NaN,,11.892,,0 / 30,,2585,2022-01-11 15:48:32:373
3.8815,14.619,-3.9135,8.7968,3.7049,2.2494,-5.1391,-14.7491,-2.0317,-1.6948,0.3471,15.2564,-18.0,1.13,-12.08,320.32,-22.2,-75.66,48.84391,2.353356,94.3,NaN,,11.892,,0 / 30,,2585,2022-01-11 15:48:32:373
3.8815,14.619,-3.9135,8.7968,3.7049,2.2494,-5.1391,-14.7491,-2.0317,-1.6948,0.3471,15.2564,-18.0,1.13,-12.08,320.32,-22.2,-75.66,48.84391,2.353356,94.3,NaN,,11.892,,0 / 30,,2593,2022-01-11 15:48:32:381
3.8815,14.619,-3.9135,8.7968,3.7049,2.2494,-5.1391,-14.7491,-2.0317,-1.6948,0.3471,15.2564,-18.0,1.13,-12.08,320.32,-22.2,-75.66,48.84391,2.353356,94.3,NaN,,11.892,,0 / 30,,2595,2022-01-11 15:48:32:383
3.8815,14.619,-3.9135,6.3883,2.1588,7.1204,-5.1391,-14.7491,-2.0317,-1.6948,0.3471,15.2564,-18.0,1.13,-12.08,320.32,-22.2,-75.66,48.84391,2.353356,94.3,NaN,,11.892,,0 / 30,,2600,2022-01-11 15:48:32:388
3.8815,14.619,-3.9135,6.3883,2.1588,7.1204,-5.1391,-14.7491,-2.0317,-1.6948,0.3471,15.2564,-18.0,1.13,-12.08,320.32,-22.2,-75.66,48.84391,2.353356,94.3,NaN,,11.892,,0 / 30,,2607,2022-01-11 15:48:32:395
3.8815,14.619,-3.9135,6.3883,2.1588,7.1204,-5.1391,-14.7491,-2.0317,-1.6948,0.3471,15.2564,-18.0,1.13,-12.08,320.32,-22.2,-75.66,48.84391,2.353356,94.3,NaN,,11.892,,0 / 30,,2612,2022-01-11 15:48:32:400
3.8815,14.619,-3.9135,6.3883,2.1588,7.1204,-5.1391,-14.7491,-2.0317,-1.6948,0.3471,15.2564,-18.0,1.13,-12.08,320.32,-22.2,-75.66,48.84391,2.353356,94.3,NaN,,11.892,,0 / 30,,2616,2022-01-11 15:48:32:404
3.8815,14.619,-3.9135,6.3883,2.1588,7.1204,-5.1391,-14.7491,-2.0317,-1.6948,0.3471,15.2564,-18.0,1.13,-12.08,320.32,-22.2,-75.66,48.84391,2.353356,94.3,NaN,,11.892,,0 / 30,,2621,2022-01-11 15:48:32:409
3.8815,14.619,-3.9135,6.3883,2.1588,7.1204,-5.1391,-14.7491,-2.0317,-1.6948,0.3471,15.2564,-18.0,1.13,-12.08,320.32,-22.2,-75.66,48.84391,2.353356,94.3,NaN,,11.892,,0 / 30,,2625,2022-01-11 15:48:32:413
3.8815,14.619,-3.9135,6.3883,2.1588,7.1204,-5.1391,-14.7491,-2.0317,-1.6948,0.3471,15.2564,-18.0,1.13,-12.08,320.32,-22.2,-75.66,48.84391,2.353356,94.3,NaN,,11.892,,0 / 30,,2630,2022-01-11 15:48:32:418
3.8815,14.619,-3.9135,6.3883,2.1588,7.1204,-5.1391,-14.7491,-2.0317,-1.6948,0.3471,15.2564,-18.0,1.13,-12.08,320.32,-22.2,-75.66,48.84391,2.353356,94.3,NaN,,11.892,,0 / 30,,2636,2022-01-11 15:48:32:424
3.8815,14.619,-3.9135,6.3883,2.1588,7.1204,-5.1391,-14.7491,-2.0317,-1.6948,0.3471,15.2564,-18.0,1.13,-12.08,320.32,-22.2,-75.66,48.84391,2.353356,94.3,NaN,,11.892,,0 / 30,,2640,2022-01-11 15:48:32:428
3.8815,14.619,-3.9135,6.3883,2.1588,7.1204,-5.1391,-14.7491,-2.0317,-1.6948,0.3471,15.2564,-18.0,1.13,-12.08,320.32,-22.2,-75.66,48.84391,2.353356,94.3,NaN,,11.892,,0 / 30,,2645,2022-01-11 15:48:32:433
4.5404,1.3732,22.4393,6.3883,2.1588,7.1204,23.9044,5.0755,3.342,-1.6948,0.3471,15.2564,-18.0,1.13,-12.08,320.32,-22.2,-75.66,48.84391,2.353356,94.3,NaN,,11.892,,0 / 30,,2651,2022-01-11 15:48:32:439
4.5404,1.3732,22.4393,6.3883,2.1588,7.1204,23.9044,5.0755,3.342,-1.6948,0.3471,15.2564,-18.0,1.13,-12.08,320.32,-22.2,-75.66,48.84391,2.353356,94.3,NaN,,11.892,,0 / 30,,2656,2022-01-11 15:48:32:444
4.5404,1.3732,22.4393,6.3883,2.1588,7.1204,23.9044,5.0755,3.342,-1.6948,0.3471,15.2564,-18.0,1.13,-12.08,320.32,-22.2,-75.66,48.84391,2.353356,94.3,NaN,,11.892,,0 / 30,,2660,2022-01-11 15:48:32:448
4.5404,1.3732,22.4393,6.3883,2.1588,7.1204,23.9044,5.0755,3.342,-1.6948,0.3471,15.2564,-18.0,1.13,-12.08,320.32,-22.2,-75.66,48.84391,2.353356,94.3,NaN,,11.892,,0 / 30,,2665,2022-01-11 15:48:32:453
4.5404,1.3732,22.4393,6.3883,2.1588,7.1204,23.9044,5.0755,3.342,-1.6948,0.3471,15.2564,9.3,0.6,-9.98,275.51,-12.72,-41.9,48.84391,2.353356,94.3,NaN,,11.892,,0 / 30,,2670,2022-01-11 15:48:32:458
4.5404,1.3732,22.4393,6.3883,2.1588,7.1204,23.9044,5.0755,3.342,-1.6948,0.3471,15.2564,9.3,0.6,-9.98,275.51,-12.72,-41.9,48.84391,2.353356,94.3,NaN,,11.892,,0 / 30,,2675,2022-01-11 15:48:32:463
4.5404,1.3732,22.4393,6.3883,2.1588,7.1204,23.9044,5.0755,3.342,-1.6948,0.3471,15.2564,9.3,0.6,-9.98,275.51,-12.72,-41.9,48.84391,2.353356,94.3,NaN,,11.892,,0 / 30,,2680,2022-01-11 15:48:32:468
4.5404,1.3732,22.4393,6.3883,2.1588,7.1204,23.9044,5.0755,3.342,-1.6948,0.3471,15.2564,9.3,0.6,-9.98,275.51,-12.72,-41.9,48.84391,2.353356,94.3,NaN,,11.892,,0 / 30,,2686,2022-01-11 15:48:32:474
4.5404,1.3732,22.4393,6.3883,2.1588,7.1204,23.9044,5.0755,3.342,0.7441,-2.6598,0.2048,9.3,0.6,-9.98,275.51,-12.72,-41.9,48.84391,2.353356,94.3,NaN,,11.892,,0 / 30,,2692,2022-01-11 15:48:32:480
4.5404,1.3732,22.4393,6.3883,2.1588,7.1204,23.9044,5.0755,3.342,0.7441,-2.6598,0.2048,9.3,0.6,-9.98,275.51,-12.72,-41.9,48.84391,2.353356,94.3,NaN,,11.892,,0 / 30,,2696,2022-01-11 15:48:32:484
4.5404,1.3732,22.4393,6.3883,2.1588,7.1204,23.9044,5.0755,3.342,0.7441,-2.6598,0.2048,9.3,0.6,-9.98,275.51,-12.72,-41.9,48.84391,2.353356,94.3,NaN,,11.892,,0 / 30,,2701,2022-01-11 15:48:32:489
4.5404,1.3732,22.4393,6.3883,2.1588,7.1204,23.9044,5.0755,3.342,0.7441,-2.6598,0.2048,9.3,0.6,-9.98,275.51,-12.72,-41.9,48.84391,2.353356,94.3,NaN,,11.892,,0 / 30,,2706,2022-01-11 15:48:32:494
8.4138,0.8234,6.8686,5.8695,1.9508,7.6102,0.9794,-1.5538,13.23,0.7441,-2.6598,0.2048,9.3,0.6,-9.98,275.51,-12.72,-41.9,48.84391,2.353356,94.3,NaN,,11.892,,0 / 30,,2711,2022-01-11 15:48:32:499
8.4138,0.8234,6.8686,5.8695,1.9508,7.6102,0.9794,-1.5538,13.23,0.7441,-2.6598,0.2048,9.3,0.6,-9.98,275.51,-12.72,-41.9,48.84391,2.353356,94.3,NaN,,11.892,,0 / 30,,2716,2022-01-11 15:48:32:504
8.4138,0.8234,6.8686,5.8695,1.9508,7.6102,0.9794,-1.5538,13.23,0.7441,-2.6598,0.2048,9.3,0.6,-9.98,275.51,-12.72,-41.9,48.84391,2.353356,94.3,NaN,,11.892,,0 / 30,,2721,2022-01-11 15:48:32:509
8.4138,0.8234,6.8686,5.8695,1.9508,7.6102,0.9794,-1.5538,13.23,0.7441,-2.6598,0.2048,9.3,0.6,-9.98,275.51,-12.72,-41.9,48.84391,2.353356,94.3,NaN,,11.892,,0 / 30,,2725,2022-01-11 15:48:32:513
8.4138,0.8234,6.8686,5.8695,1.9508,7.6102,0.9794,-1.5538,13.23,0.7441,-2.6598,0.2048,9.3,0.6,-9.98,275.51,-12.72,-41.9,48.84391,2.353356,94.3,NaN,,11.892,,0 / 30,,2731,2022-01-11 15:48:32:519
8.4138,0.8234,6.8686,5.8695,1.9508,7.6102,0.9794,-1.5538,13.23,0.7441,-2.6598,0.2048,9.3,0.6,-9.98,275.51,-12.72,-41.9,48.84391,2.353356,94.3,NaN,,11.892,,0 / 30,,2736,2022-01-11 15:48:32:524
8.4138,0.8234,6.8686,5.8695,1.9508,7.6102,0.9794,-1.5538,13.23,0.7441,-2.6598,0.2048,9.3,0.6,-9.98,275.51,-12.72,-41.9,48.84391,2.353356,94.3,NaN,,11.892,,0 / 30,,2741,2022-01-11 15:48:32:529
8.4138,0.8234,6.8686,5.8695,1.9508,7.6102,0.9794,-1.5538,13.23,0.7441,-2.6598,0.2048,9.3,0.6,-9.98,275.51,-12.72,-41.9,48.84391,2.353356,94.3,NaN,,11.892,,0 / 30,,2747,2022-01-11 15:48:32:535
8.4138,0.8234,6.8686,5.8695,1.9508,7.6102,0.9794,-1.5538,13.23,0.7441,-2.6598,0.2048,9.3,0.6,-9.98,275.51,-12.72,-41.9,48.84391,2.353356,94.3,NaN,,11.892,,0 / 30,,2751,2022-01-11 15:48:32:539
8.4138,0.8234,6.8686,5.8695,1.9508,7.6102,0.9794,-1.5538,13.23,0.7441,-2.6598,0.2048,9.3,0.6,-9.98,275.51,-12.72,-41.9,48.84391,2.353356,94.3,NaN,,11.892,,0 / 30,,2756,2022-01-11 15:48:32:544
8.4138,0.8234,6.8686,5.8695,1.9508,7.6102,0.9794,-1.5538,13.23,-0.3659,-1.4038,-0.1446,9.3,0.6,-9.98,275.51,-12.72,-41.9,48.84391,2.353356,94.3,NaN,,11.892,,0 / 30,,2761,2022-01-11 15:48:32:549
8.4138,0.8234,6.8686,5.8695,1.9508,7.6102,0.9794,-1.5538,13.23,-0.3659,-1.4038,-0.1446,9.3,0.6,-9.98,275.51,-12.72,-41.9,48.84391,2.353356,94.3,NaN,,11.892,,0 / 30,,2766,2022-01-11 15:48:32:554
5.3091,1.063,6.0111,5.8695,1.9508,7.6102,0.9794,-1.5538,13.23,-0.3659,-1.4038,-0.1446,9.9,0.83,-14.55,277.1,-11.47,-37.64,48.84391,2.353356,94.3,NaN,,11.892,,0 / 30,,2771,2022-01-11 15:48:32:559
5.3091,1.063,6.0111,5.8695,1.9508,7.6102,0.9794,-1.5538,13.23,-0.3659,-1.4038,-0.1446,9.9,0.83,-14.55,277.1,-11.47,-37.64,48.84391,2.353356,94.3,NaN,,11.892,,0 / 30,,2776,2022-01-11 15:48:32:564
5.3091,1.063,6.0111,6.2835,1.9278,7.2781,1.9805,-1.035,0.8563,-0.3659,-1.4038,-0.1446,9.9,0.83,-14.55,277.1,-11.47,-37.64,48.84391,2.353356,94.3,NaN,,11.892,,0 / 30,,2780,2022-01-11 15:48:32:568
5.3091,1.063,6.0111,6.2835,1.9278,7.2781,1.9805,-1.035,0.8563,-0.3659,-1.4038,-0.1446,9.9,0.83,-14.55,277.1,-11.47,-37.64,48.84391,2.353356,94.3,NaN,,11.892,,0 / 30,,2787,2022-01-11 15:48:32:575
5.3091,1.063,6.0111,6.2835,1.9278,7.2781,1.9805,-1.035,0.8563,-0.3659,-1.4038,-0.1446,9.9,0.83,-14.55,277.1,-11.47,-37.64,48.84391,2.353356,94.3,NaN,,11.892,,0 / 30,,2790,2022-01-11 15:48:32:578
5.3091,1.063,6.0111,6.2835,1.9278,7.2781,1.9805,-1.035,0.8563,-0.3659,-1.4038,-0.1446,9.9,0.83,-14.55,277.1,-11.47,-37.64,48.84391,2.353356,94.3,NaN,,11.892,,0 / 30,,2797,2022-01-11 15:48:32:585
5.3091,1.063,6.0111,6.2835,1.9278,7.2781,1.9805,-1.035,0.8563,-0.3659,-1.4038,-0.1446,9.9,0.83,-14.55,277.1,-11.47,-37.64,48.84391,2.353356,94.3,NaN,,11.892,,0 / 30,,2800,2022-01-11 15:48:32:588
5.3091,1.063,6.0111,6.2835,1.9278,7.2781,1.9805,-1.035,0.8563,-0.3659,-1.4038,-0.1446,9.9,0.83,-14.55,277.1,-11.47,-37.64,48.84391,2.353356,94.3,NaN,,11.892,,0 / 30,,2806,2022-01-11 15:48:32:594
5.3091,1.063,6.0111,6.2835,1.9278,7.2781,1.9805,-1.035,0.8563,-0.3659,-1.4038,-0.1446,9.9,0.83,-14.55,277.1,-11.47,-37.64,48.84391,2.353356,94.3,NaN,,11.892,,0 / 30,,2810,2022-01-11 15:48:32:598
5.3091,1.063,6.0111,6.2835,1.9278,7.2781,1.9805,-1.035,0.8563,-0.3659,-1.4038,-0.1446,9.9,0.83,-14.55,277.1,-11.47,-37.64,48.84391,2.353356,94.3,NaN,,11.892,,0 / 30,,2815,2022-01-11 15:48:32:603
5.3091,1.063,6.0111,6.2835,1.9278,7.2781,1.9805,-1.035,0.8563,-0.3659,-1.4038,-0.1446,9.9,0.83,-14.55,277.1,-11.47,-37.64,48.84391,2.353356,94.3,NaN,,11.892,,0 / 30,,2820,2022-01-11 15:48:32:608
5.3091,1.063,6.0111,6.2835,1.9278,7.2781,1.9805,-1.035,0.8563,-0.3659,-1.4038,-0.1446,9.9,0.83,-14.55,277.1,-11.47,-37.64,48.84391,2.353356,94.3,NaN,,11.892,,0 / 30,,2826,2022-01-11 15:48:32:614
5.3091,1.063,6.0111,6.2835,1.9278,7.2781,1.9805,-1.035,0.8563,-0.3659,-1.4038,-0.1446,9.9,0.83,-14.55,277.1,-11.47,-37.64,48.84391,2.353356,94.3,NaN,,11.892,,0 / 30,,2830,2022-01-11 15:48:32:618
5.3091,1.063,6.0111,6.2835,1.9278,7.2781,1.9805,-1.035,0.8563,-0.3659,-1.4038,-0.1446,9.9,0.83,-14.55,277.1,-11.47,-37.64,48.84391,2.353356,94.3,NaN,,11.892,,0 / 30,,2835,2022-01-11 15:48:32:623
5.0602,0.2498,6.725,6.3966,2.3605,7.0486,-0.2087,-1.0061,-0.1252,-0.3659,-1.4038,-0.1446,9.9,0.83,-14.55,277.1,-11.47,-37.64,48.84391,2.353356,94.3,NaN,,11.892,,0 / 30,,2842,2022-01-11 15:48:32:630
5.0602,0.2498,6.725,6.3966,2.3605,7.0486,-0.2087,-1.0061,-0.1252,-0.3659,-1.4038,-0.1446,9.9,0.83,-14.55,277.1,-11.47,-37.64,48.84391,2.353356,94.3,NaN,,11.892,,0 / 30,,2845,2022-01-11 15:48:32:633
5.0602,0.2498,6.725,6.3966,2.3605,7.0486,-0.2087,-1.0061,-0.1252,-0.3659,-1.4038,-0.1446,9.9,0.83,-14.55,277.1,-11.47,-37.64,48.84391,2.353356,94.3,NaN,,11.892,,0 / 30,,2850,2022-01-11 15:48:32:638
5.0602,0.2498,6.725,6.3966,2.3605,7.0486,-0.2087,-1.0061,-0.1252,-0.3659,-1.4038,-0.1446,9.9,0.83,-14.55,277.1,-11.47,-37.64,48.84391,2.353356,94.3,NaN,,11.892,,0 / 30,,2857,2022-01-11 15:48:32:645
5.0602,0.2498,6.725,6.3966,2.3605,7.0486,-0.2087,-1.0061,-0.1252,-0.3659,-1.4038,-0.1446,9.9,0.83,-14.55,277.1,-11.47,-37.64,48.84391,2.353356,94.3,NaN,,11.892,,0 / 30,,2860,2022-01-11 15:48:32:648
5.0602,0.2498,6.725,6.3966,2.3605,7.0486,-0.2087,-1.0061,-0.1252,-0.3659,-1.4038,-0.1446,9.9,0.83,-14.55,277.1,-11.47,-37.64,48.84391,2.353356,94.3,NaN,,11.892,,0 / 30,,2865,2022-01-11 15:48:32:653
5.0602,0.2498,6.725,6.3966,2.3605,7.0486,-0.2087,-1.0061,-0.1252,-0.3659,-1.4038,-0.1446,8.93,-12.0,-22.28,246.83,-13.93,-42.22,48.84391,2.353356,94.3,NaN,,11.892,,0 / 30,,2871,2022-01-11 15:48:32:659
5.0602,0.2498,6.725,6.3966,2.3605,7.0486,-0.2087,-1.0061,-0.1252,-0.3659,-1.4038,-0.1446,8.93,-12.0,-22.28,246.83,-13.93,-42.22,48.84391,2.353356,94.3,NaN,,11.892,,0 / 30,,2875,2022-01-11 15:48:32:663
5.0602,0.2498,6.725,6.3966,2.3605,7.0486,-0.2087,-1.0061,-0.1252,-0.3659,-1.4038,-0.1446,8.93,-12.0,-22.28,246.83,-13.93,-42.22,48.84391,2.353356,94.3,NaN,,11.892,,0 / 30,,2881,2022-01-11 15:48:32:669
5.0602,0.2498,6.725,6.3966,2.3605,7.0486,-0.2087,-1.0061,-0.1252,0.598,-0.5554,-0.6734,8.93,-12.0,-22.28,246.83,-13.93,-42.22,48.84391,2.353356,94.3,NaN,,11.892,,0 / 30,,2886,2022-01-11 15:48:32:674
5.0602,0.2498,6.725,6.3966,2.3605,7.0486,-0.2087,-1.0061,-0.1252,0.598,-0.5554,-0.6734,8.93,-12.0,-22.28,246.83,-13.93,-42.22,48.84391,2.353356,94.3,NaN,,11.892,,0 / 30,,2890,2022-01-11 15:48:32:678
5.0602,0.2498,6.725,6.3966,2.3605,7.0486,-0.2087,-1.0061,-0.1252,0.598,-0.5554,-0.6734,8.93,-12.0,-22.28,246.83,-13.93,-42.22,48.84391,2.353356,94.3,NaN,,11.892,,0 / 30,,2895,2022-01-11 15:48:32:683
5.0602,0.2498,6.725,6.3966,2.3605,7.0486,-0.2087,-1.0061,-0.1252,0.598,-0.5554,-0.6734,8.93,-12.0,-22.28,246.83,-13.93,-42.22,48.84391,2.353356,94.3,NaN,,11.892,,0 / 30,,2900,2022-01-11 15:48:32:688
5.6327,1.4297,6.6852,6.4479,2.8161,6.8311,-0.6201,-1.9568,0.3775,0.598,-0.5554,-0.6734,8.93,-12.0,-22.28,246.83,-13.93,-42.22,48.84391,2.353356,94.3,NaN,,11.892,,0 / 30,,2906,2022-01-11 15:48:32:694
5.6327,1.4297,6.6852,6.4479,2.8161,6.8311,-0.6201,-1.9568,0.3775,0.598,-0.5554,-0.6734,8.93,-12.0,-22.28,246.83,-13.93,-42.22,48.84391,2.353356,94.3,NaN,,11.892,,0 / 30,,2910,2022-01-11 15:48:32:698
5.6327,1.4297,6.6852,6.4479,2.8161,6.8311,-0.6201,-1.9568,0.3775,0.598,-0.5554,-0.6734,8.93,-12.0,-22.28,246.83,-13.93,-42.22,48.84391,2.353356,94.3,NaN,,11.892,,0 / 30,,2916,2022-01-11 15:48:32:704
5.6327,1.4297,6.6852,6.4479,2.8161,6.8311,-0.6201,-1.9568,0.3775,0.598,-0.5554,-0.6734,8.93,-12.0,-22.28,246.83,-13.93,-42.22,48.84391,2.353356,94.3,NaN,,11.892,,0 / 30,,2921,2022-01-11 15:48:32:709
5.6327,1.4297,6.6852,6.4479,2.8161,6.8311,-0.6201,-1.9568,0.3775,0.598,-0.5554,-0.6734,8.93,-12.0,-22.28,246.83,-13.93,-42.22,48.84391,2.353356,94.3,NaN,,11.892,,0 / 30,,2926,2022-01-11 15:48:32:714
5.6327,1.4297,6.6852,6.4479,2.8161,6.8311,-0.6201,-1.9568,0.3775,0.598,-0.5554,-0.6734,8.93,-12.0,-22.28,246.83,-13.93,-42.22,48.84391,2.353356,94.3,NaN,,11.892,,0 / 30,,2931,2022-01-11 15:48:32:719
5.6327,1.4297,6.6852,6.4479,2.8161,6.8311,-0.6201,-1.9568,0.3775,0.598,-0.5554,-0.6734,8.93,-12.0,-22.28,246.83,-13.93,-42.22,48.84391,2.353356,94.3,NaN,,11.892,,0 / 30,,2935,2022-01-11 15:48:32:723
5.6327,1.4297,6.6852,6.4479,2.8161,6.8311,-0.6201,-1.9568,0.3775,0.598,-0.5554,-0.6734,8.93,-12.0,-22.28,246.83,-13.93,-42.22,48.84391,2.353356,94.3,NaN,,11.892,,0 / 30,,2941,2022-01-11 15:48:32:729
5.6327,1.4297,6.6852,6.4479,2.8161,6.8311,-0.6201,-1.9568,0.3775,0.598,-0.5554,-0.6734,8.93,-12.0,-22.28,246.83,-13.93,-42.22,48.84391,2.353356,94.3,NaN,,11.892,,0 / 30,,2946,2022-01-11 15:48:32:734
5.6327,1.4297,6.6852,6.4479,2.8161,6.8311,-0.6201,-1.9568,0.3775,0.598,-0.5554,-0.6734,8.93,-12.0,-22.28,246.83,-13.93,-42.22,48.84391,2.353356,94.3,NaN,,11.892,,0 / 30,,2951,2022-01-11 15:48:32:739
5.6327,1.4297,6.6852,6.4479,2.8161,6.8311,-0.6201,-1.9568,0.3775,0.5077,0.043,-0.4278,8.93,-12.0,-22.28,246.83,-13.93,-42.22,48.84391,2.353356,94.3,NaN,,11.892,,0 / 30,,2956,2022-01-11 15:48:32:744
5.6327,1.4297,6.6852,6.4479,2.8161,6.8311,-0.6201,-1.9568,0.3775,0.5077,0.043,-0.4278,8.93,-12.0,-22.28,246.83,-13.93,-42.22,48.84391,2.353356,94.3,NaN,,11.892,,0 / 30,,2961,2022-01-11 15:48:32:749
5.6327,1.4297,6.6852,6.4479,2.8161,6.8311,-0.6201,-1.9568,0.3775,0.5077,0.043,-0.4278,8.93,-12.0,-22.28,246.83,-13.93,-42.22,48.84391,2.353356,94.3,NaN,,11.892,,0 / 30,,2966,2022-01-11 15:48:32:754
5.6327,1.4297,6.6852,6.4479,2.8161,6.8311,-0.6201,-1.9568,0.3775,0.5077,0.043,-0.4278,1.8,-16.35,-25.65,241.93,-16.69,-43.35,48.84391,2.353356,94.3,NaN,,11.892,,0 / 30,,2972,2022-01-11 15:48:32:760
5.6327,1.4297,6.6852,6.4479,2.8161,6.8311,-0.6201,-1.9568,0.3775,0.5077,0.043,-0.4278,1.8,-16.35,-25.65,241.93,-16.69,-43.35,48.84391,2.353356,94.3,NaN,,11.892,,0 / 30,,2976,2022-01-11 15:48:32:764
5.6327,1.4297,6.6852,6.4479,2.8161,6.8311,-0.6201,-1.9568,0.3775,0.5077,0.043,-0.4278,1.8,-16.35,-25.65,241.93,-16.69,-43.35,48.84391,2.353356,94.3,NaN,,11.892,,0 / 30,,2981,2022-01-11 15:48:32:769
6.096,2.6536,6.3715,6.4479,2.8161,6.8311,-0.6201,-1.9568,0.3775,0.5077,0.043,-0.4278,1.8,-16.35,-25.65,241.93,-16.69,-43.35,48.84391,2.353356,94.3,NaN,,11.892,,0 / 30,,2985,2022-01-11 15:48:32:773
6.096,2.6536,6.3715,6.4479,2.8161,6.8311,-0.6201,-1.9568,0.3775,0.5077,0.043,-0.4278,1.8,-16.35,-25.65,241.93,-16.69,-43.35,48.84391,2.353356,94.3,NaN,,11.892,,0 / 30,,2991,2022-01-11 15:48:32:779
6.096,2.6536,6.3715,6.4479,2.8161,6.8311,-0.6201,-1.9568,0.3775,0.5077,0.043,-0.4278,1.8,-16.35,-25.65,241.93,-16.69,-43.35,48.84391,2.353356,94.3,NaN,,11.892,,0 / 30,,2996,2022-01-11 15:48:32:784
6.096,2.6536,6.3715,6.4479,2.8161,6.8311,-0.6201,-1.9568,0.3775,0.5077,0.043,-0.4278,1.8,-16.35,-25.65,241.93,-16.69,-43.35,48.84391,2.353356,94.3,NaN,,11.892,,0 / 30,,3001,2022-01-11 15:48:32:789
